state_time,accelx,accely,accelz,gyrox,gyroy,gyroz,mot_ang,mot_vel,mot_acc,mot_cur,mot_volt,batt_volt,batt_curr,temperature,status_mn,status_ex,status_re,genvar_0,genvar_1,genvar_2,genvar_3,genvar_4,genvar_5,genvar_6,genvar_7,genvar_8,genvar_9,ank_ang,ank_vel,sys_time,event flags
10445,-74,-8224,1070,-47,41,16,9743,1,-3,-1,0,37341,287,26,79,0,0,0,0,0,0,0,0,-32318,0,0,0,3965,0,6718,0
10455,-32,-8214,1064,-51,40,15,9744,0,2,-2,0,37342,291,26,79,0,0,0,0,0,0,0,0,-32317,0,0,0,3963,0,10465,0
10465,-26,-8236,1084,-46,39,13,9743,-2,-4,0,0,37344,289,26,79,0,0,0,0,0,0,0,0,-32317,0,0,0,3963,0,10485,0
10475,-34,-8208,1066,-48,42,15,9744,0,1,0,0,37344,299,26,79,0,0,0,0,0,0,0,0,-32317,0,0,0,3963,0,10505,0
10485,-50,-8202,1092,-56,43,17,9742,-4,-2,0,0,37344,291,26,79,0,0,0,0,0,0,0,0,-32317,0,0,0,3963,0,10525,0
10495,-60,-8250,1040,-45,43,15,9742,-2,-3,0,0,37344,288,26,79,0,0,0,0,0,0,0,0,-32317,0,0,0,3964,0,10545,0
10505,-64,-8220,1072,-46,40,19,9743,2,-1,-2,0,37346,286,26,79,0,0,0,0,0,0,0,0,-32317,0,0,0,3964,0,10565,0
10515,-56,-8218,1054,-47,41,19,9743,0,-5,0,0,37354,288,25,79,0,0,0,0,0,0,0,0,-32317,0,0,0,3964,0,10586,0
10525,-56,-8232,1068,-42,37,14,9744,2,-3,-1,0,37354,291,26,79,0,0,0,0,0,0,0,0,-32317,0,0,0,3964,0,10606,0
10535,-80,-8208,1072,-46,37,19,9744,0,-3,0,0,37353,295,26,79,0,0,0,0,0,0,0,0,-32317,0,0,0,3963,0,10629,0
10545,-48,-8214,1094,-49,40,20,9744,4,3,0,0,37344,291,26,79,0,0,0,0,0,0,0,0,-32317,0,0,0,3964,0,10649,0
10555,-56,-8214,1096,-53,42,15,9744,3,-2,0,0,37346,289,25,79,0,0,0,0,0,0,0,0,-32317,0,0,0,3964,0,10669,0
10565,-46,-8250,1088,-50,46,23,9742,-4,0,1,0,37346,289,26,79,0,0,0,0,0,0,0,0,-32317,0,0,0,3964,0,10689,0
10575,-40,-8222,1074,-57,42,17,9743,-6,0,0,0,37346,288,25,79,0,0,0,0,0,0,0,0,-32317,0,0,0,3963,0,10709,0
10585,-40,-8226,1056,-56,47,27,9744,4,-3,0,0,37347,281,25,79,0,0,0,0,0,0,0,0,-32317,0,0,0,3963,0,10729,0
10595,-46,-8250,1082,-55,44,30,9743,5,2,0,0,37349,280,26,79,0,0,0,0,0,0,0,0,-32317,0,0,0,3964,0,10749,0
10605,-10,-8244,1090,-57,40,30,9744,6,1,-2,0,37354,279,26,79,0,0,0,0,0,0,0,0,-32317,0,0,0,3964,0,10769,0
10615,-42,-8214,1062,-50,43,34,9743,-1,-5,-2,0,37362,289,25,79,0,0,0,0,0,0,0,0,-32317,0,0,0,3965,0,10789,0
10625,-68,-8208,1022,-56,40,31,9742,-1,2,0,0,37360,294,25,79,0,0,0,0,0,0,0,0,-32317,0,0,0,3965,0,10809,0
10635,-110,-8236,1026,-51,44,33,9743,-1,4,-1,0,37360,294,26,79,0,0,0,0,0,0,0,0,-32317,0,0,0,3965,0,10828,0
10645,-66,-8198,1056,-53,39,28,9743,-3,4,-1,0,37354,291,26,79,0,0,0,0,0,0,0,0,-32317,0,0,0,3965,0,10849,0
10655,-96,-8222,1082,-57,40,33,9743,-2,-1,0,0,37355,297,25,79,0,0,0,0,0,0,0,0,-32317,0,0,0,3965,0,10869,0
10665,-84,-8220,1086,-53,44,27,9743,2,3,0,0,37354,304,25,79,0,0,0,0,0,0,0,0,-32317,0,0,0,3965,0,10888,0
10675,-54,-8234,1078,-54,39,23,9743,1,-3,1,0,37351,305,26,79,0,0,0,0,0,0,0,0,-32317,0,0,0,3967,0,10909,0
10685,-74,-8258,1066,-59,44,25,9742,-5,3,0,0,37350,301,26,79,0,0,0,0,0,0,0,0,-32317,0,0,0,3966,0,10929,0
10695,-60,-8202,1040,-53,46,28,9744,7,1,0,0,37350,297,26,79,0,0,0,0,0,0,0,0,-32317,0,0,0,3966,0,10949,0
10705,-60,-8218,1038,-56,40,26,9743,-4,1,-1,0,37349,294,26,79,0,0,0,0,0,0,0,0,-32317,0,0,0,3966,0,10969,0
10715,-78,-8198,1042,-50,44,26,9742,-3,3,0,0,37348,297,26,79,0,0,0,0,0,0,0,0,-32317,0,0,0,3967,0,10989,0
10725,-52,-8238,1072,-55,42,26,9742,-5,2,0,0,37358,308,26,79,0,0,0,0,0,0,0,0,-32317,0,0,0,3967,0,11009,0
10735,-50,-8222,1070,-53,37,28,9743,-2,0,-1,0,37370,301,26,79,0,0,0,0,0,0,0,0,-32318,0,0,0,3967,0,11029,0
10745,-60,-8208,1054,-48,35,26,9744,3,1,0,0,37379,302,26,79,0,0,0,0,0,0,0,0,-32317,0,0,0,3967,0,11049,0
10755,-78,-8224,1052,-53,39,26,9744,3,3,-2,0,37381,291,26,79,0,0,0,0,0,0,0,0,-32317,0,0,0,3966,0,11069,0
10765,-100,-8188,1064,-48,34,19,9743,-1,2,0,0,37373,297,26,79,0,0,0,0,0,0,0,0,-32317,0,0,0,3968,0,11089,0
10775,-106,-8204,1058,-51,45,13,9743,2,2,1,0,37364,291,26,79,0,0,0,0,0,0,0,0,-32317,0,0,0,3967,0,11109,0
10785,-94,-8240,1040,-53,37,10,9744,1,0,0,0,37352,290,26,79,0,0,0,0,0,0,0,0,-32317,0,0,0,3967,0,11129,0
10795,-86,-8242,1084,-55,44,12,9744,0,-1,-1,0,37350,291,26,79,0,0,0,0,0,0,0,0,-32317,0,0,0,3966,0,11149,0
10805,-50,-8228,1074,-53,40,8,9743,-2,-2,0,0,37350,294,26,79,0,0,0,0,0,0,0,0,-32317,0,0,0,3966,0,11169,0
10815,-102,-8196,1068,-53,41,9,9744,4,-3,0,0,37355,295,26,79,0,0,0,0,0,0,0,0,-32317,0,0,0,3967,0,11189,0
10825,-70,-8208,1072,-56,41,5,9744,-2,2,-1,0,37361,294,26,79,0,0,0,0,0,0,0,0,-32317,0,0,0,3967,0,11209,0
10835,-74,-8200,1046,-50,43,7,9743,0,3,0,0,37360,294,26,79,0,0,0,0,0,0,0,0,-32317,0,0,0,3967,0,11229,0
10845,-70,-8236,1062,-57,45,12,9743,2,0,0,0,37358,298,26,79,0,0,0,0,0,0,0,0,-32318,0,0,0,3967,0,11249,0
10855,-62,-8230,1052,-58,39,13,9742,2,1,-2,0,37354,295,26,79,0,0,0,0,0,0,0,0,-32317,0,0,0,3967,0,11269,0
10865,-70,-8226,1062,-52,40,17,9743,-2,-2,0,0,37356,299,26,79,0,0,0,0,0,0,0,0,-32317,0,0,0,3967,0,11289,0
10875,-68,-8236,1076,-54,41,13,9744,3,-2,0,0,37356,295,26,79,0,0,0,0,0,0,0,0,-32317,0,0,0,3967,0,11309,0
10885,-68,-8206,1088,-51,40,19,9744,6,4,-1,0,37354,297,26,79,0,0,0,0,0,0,0,0,-32317,0,0,0,3967,0,11328,0
10895,-72,-8236,1044,-60,48,14,9743,-3,-4,0,0,37354,296,26,79,0,0,0,0,0,0,0,0,-32317,0,0,0,3968,0,11348,0
10905,-54,-8228,1054,-58,44,19,9743,-6,-1,0,0,37356,287,26,79,0,0,0,0,0,0,0,0,-32317,0,0,0,3967,0,11367,0
10915,-68,-8210,1034,-54,44,8,9743,1,3,-1,0,37358,287,26,79,0,0,0,0,0,0,0,0,-32318,0,0,0,3967,0,11387,0
10925,-60,-8224,1036,-54,47,10,9744,3,1,-1,0,37360,293,26,79,0,0,0,0,0,0,0,0,-32317,0,0,0,3967,0,11406,0
10935,-66,-8208,1068,-57,38,9,9743,-4,0,0,0,37365,299,26,79,0,0,0,0,0,0,0,0,-32317,0,0,0,3967,0,11426,0
10945,-84,-8232,1052,-47,38,9,9744,-5,-1,1,0,37364,295,26,79,0,0,0,0,0,0,0,0,-32317,0,0,0,3967,0,11446,0
10955,-78,-8216,1048,-48,36,11,9744,7,0,0,0,37364,300,26,79,0,0,0,0,0,0,0,0,-32317,0,0,0,3965,0,11465,0
10965,-92,-8240,1082,-52,38,9,9743,1,2,1,0,37359,302,26,79,0,0,0,0,0,0,0,0,-32317,0,0,0,3966,0,11485,0
10975,-70,-8240,1074,-53,39,8,9743,4,0,0,0,37357,297,26,79,0,0,0,0,0,0,0,0,-32317,0,0,0,3966,0,11505,0
10985,-62,-8232,1074,-55,41,4,9743,0,-1,0,0,37354,294,26,79,0,0,0,0,0,0,0,0,-32318,0,0,0,3966,0,11525,0
10995,-64,-8208,1060,-51,39,2,9744,-2,2,0,0,37354,292,26,79,0,0,0,0,0,0,0,0,-32317,0,0,0,3966,0,11545,0
11005,-44,-8214,1054,-49,37,8,9743,0,-1,1,0,37354,293,26,79,0,0,0,0,0,0,0,0,-32317,0,0,0,3965,0,11565,0
11015,-44,-8216,1046,-53,37,9,9743,-1,-1,0,0,37354,296,26,79,0,0,0,0,0,0,0,0,-32317,0,0,0,3966,0,11585,0
11025,-36,-8226,1060,-52,33,18,9743,0,2,0,0,37353,296,25,79,0,0,0,0,0,0,0,0,-32317,0,0,0,3964,0,11605,0
11035,-46,-8220,1090,-46,35,15,9743,0,0,0,0,37356,295,26,79,0,0,0,0,0,0,0,0,-32317,0,0,0,3965,0,11625,0
11045,-48,-8216,1084,-57,38,21,9743,1,0,0,0,37357,302,25,79,0,0,0,0,0,0,0,0,-32317,0,0,0,3966,0,11645,0
11055,-54,-8218,1102,-52,42,18,9743,-1,-1,0,0,37358,297,25,79,0,0,0,0,0,0,0,0,-32317,0,0,0,3965,0,11665,0
11065,-68,-8214,1066,-64,38,19,9742,-3,0,0,0,37356,299,26,79,0,0,0,0,0,0,0,0,-32317,0,0,0,3966,0,11685,0
11075,-80,-8234,1054,-60,39,14,9744,7,-2,0,0,37350,292,26,79,0,0,0,0,0,0,0,0,-32317,0,0,0,3966,0,11705,0
11085,-52,-8218,1042,-55,43,13,9743,1,0,-1,0,37349,289,26,79,0,0,0,0,0,0,0,0,-32317,0,0,0,3964,0,11725,0
11095,-40,-8222,1060,-48,32,18,9744,8,4,-1,0,37352,297,26,79,0,0,0,0,0,0,0,0,-32317,0,0,0,3965,0,11745,0
11105,-46,-8220,1074,-51,45,17,9744,7,4,0,0,37353,295,26,79,0,0,0,0,0,0,0,0,-32317,0,0,0,3966,0,11765,0
11115,-40,-8220,1080,-55,47,19,9744,1,4,0,0,37351,296,26,79,0,0,0,0,0,0,0,0,-32317,0,0,0,3965,0,11785,0
11125,-38,-8248,1090,-61,41,24,9743,-3,-3,0,0,37350,291,26,79,0,0,0,0,0,0,0,0,-32316,0,0,0,3965,0,11805,0
11135,-40,-8212,1074,-58,49,27,9742,1,-4,-1,0,37350,293,26,79,0,0,0,0,0,0,0,0,-32317,0,0,0,3966,0,11825,0
11145,-52,-8238,1064,-57,41,28,9743,0,4,0,0,37354,302,26,79,0,0,0,0,0,0,0,0,-32317,0,0,0,3966,0,11845,0
11155,-66,-8226,1040,-56,37,34,9744,5,-4,-2,0,37353,305,26,79,0,0,0,0,0,0,0,0,-32317,0,0,0,3966,0,11865,0
11165,-92,-8190,1022,-48,40,26,9743,0,4,0,0,37351,308,25,79,0,0,0,0,0,0,0,0,-32317,0,0,0,3966,0,11885,0
11175,-112,-8204,1038,-48,41,18,9743,0,1,0,0,37348,298,25,79,0,0,0,0,0,0,0,0,-32317,0,0,0,3966,0,11905,0
11185,-126,-8198,1034,-48,37,9,9743,-7,-2,-1,0,37348,289,26,79,0,0,0,0,0,0,0,0,-32317,0,0,0,3967,0,11925,0
11195,-72,-8320,1052,-48,40,4,9743,-3,0,0,0,37349,280,26,79,0,0,0,0,0,0,0,0,-32317,0,0,0,3967,0,11945,0
11205,-126,-7926,1122,-47,39,6,9744,3,2,-1,0,37348,283,26,79,0,0,0,0,0,0,0,0,-32317,0,0,0,3967,0,11965,0
11215,-50,-8226,952,-59,35,3,9743,0,3,-1,0,37345,279,26,79,0,0,0,0,0,0,0,0,-32317,0,0,0,3966,0,11985,0
11225,-66,-8256,922,-40,35,0,9744,0,3,0,0,37346,281,26,79,0,0,0,0,0,0,0,0,-32317,0,0,0,3966,0,12005,0
11235,-56,-8136,968,-30,31,14,9743,-1,-5,-1,0,37345,277,26,79,0,0,0,0,0,0,0,0,-32317,0,0,0,3967,0,12025,0
11245,80,-8324,1234,-33,31,21,9742,-5,2,0,0,37355,272,26,79,0,0,0,0,0,0,0,0,-32317,0,0,0,3966,0,12045,0
11255,44,-8264,1188,-39,29,23,9743,0,2,-1,0,37354,277,26,79,0,0,0,0,0,0,0,0,-32317,0,0,0,3967,0,12065,0
11265,-116,-8280,1024,-46,6,33,9743,0,2,0,0,37355,287,25,79,0,0,0,0,0,0,0,0,-32317,0,0,0,3967,0,12085,0
11275,-112,-8248,1046,-49,-4,37,9743,-1,4,-1,0,37350,288,25,79,0,0,0,0,0,0,0,0,-32317,0,0,0,3968,0,12105,0
11285,-110,-8236,1168,-48,-7,7,9744,3,-2,0,0,37351,295,26,79,0,0,0,0,0,0,0,0,-32317,0,0,0,3969,0,12125,0
11295,-246,-8244,1072,-50,-15,11,9743,5,0,1,0,37351,290,26,79,0,0,0,0,0,0,0,0,-32317,0,0,0,3969,0,12145,0
11305,-184,-8090,1034,-41,-23,-5,9742,-5,-3,-1,0,37350,292,25,79,0,0,0,0,0,0,0,0,-32317,0,0,0,3970,0,12165,0
11315,-120,-8210,966,-39,-13,-30,9744,8,-3,-1,0,37349,297,25,79,0,0,0,0,0,0,0,0,-32317,0,0,0,3971,0,12185,0
11325,-188,-8150,956,-41,36,-31,9744,0,-3,0,0,37348,303,26,79,0,0,0,0,0,0,0,0,-32317,0,0,0,3970,0,12205,0
11335,-148,-8156,976,-27,43,-36,9743,-1,-2,0,0,37345,303,26,79,0,0,0,0,0,0,0,0,-32317,0,0,0,3969,0,12225,0
11345,0,-8272,1094,-24,83,-56,9743,-8,-4,0,0,37342,295,26,79,0,0,0,0,0,0,0,0,-32317,0,0,0,3969,0,12245,0
11355,12,-8298,1150,-29,87,-52,9743,-1,0,0,0,37343,298,26,79,0,0,0,0,0,0,0,0,-32317,0,0,0,3965,0,12265,0
11365,84,-8298,1126,-52,76,-13,9743,1,4,0,0,37342,293,26,79,0,0,0,0,0,0,0,0,-32317,0,0,0,3965,0,12285,0
11375,238,-8246,1188,-51,61,0,9743,0,1,0,0,37343,289,26,79,0,0,0,0,0,0,0,0,-32317,0,0,0,3966,0,12305,0
11385,100,-8250,1186,-57,42,29,9742,-6,-1,0,0,37340,286,26,79,0,0,0,0,0,0,0,0,-32317,0,0,0,3964,0,12325,0
11395,50,-8226,1126,-68,37,64,9744,0,3,0,0,37342,288,26,79,0,0,0,0,0,0,0,0,-32317,0,0,0,3966,0,12345,0
11405,-38,-8218,1088,-70,22,66,9744,0,2,-1,0,37341,291,26,79,0,0,0,0,0,0,0,0,-32317,0,0,0,3967,0,12365,0
11415,-114,-8172,1038,-66,31,62,9744,0,-4,-1,0,37341,294,25,79,0,0,0,0,0,0,0,0,-32317,0,0,0,3969,0,12385,0
11425,-190,-8232,1026,-71,29,68,9744,0,-1,0,0,37341,298,26,79,0,0,0,0,0,0,0,0,-32317,0,0,0,3969,0,12405,0
11435,-184,-8200,1050,-67,23,56,9742,-7,0,-1,0,37340,298,26,79,0,0,0,0,0,0,0,0,-32317,0,0,0,3969,0,12425,0
11445,-216,-8260,1052,-65,31,2,9744,-1,-2,-2,0,37340,293,26,79,0,0,0,0,0,0,0,0,-32317,0,0,0,3970,0,12445,0
11455,-296,-8262,1026,-64,39,-4,9744,5,3,0,0,37343,289,26,79,0,0,0,0,0,0,0,0,-32317,0,0,0,3969,0,12465,0
11465,-112,-8232,992,-62,40,-26,9743,4,5,0,0,37343,299,25,79,0,0,0,0,0,0,0,0,-32317,0,0,0,3969,0,12485,0
11475,-94,-8274,1004,-55,40,-42,9743,-2,-5,1,0,37344,304,25,79,0,0,0,0,0,0,0,0,-32317,0,0,0,3969,0,12506,0
11485,-60,-8206,1008,-44,55,-42,9743,0,1,0,0,37341,303,26,79,0,0,0,0,0,0,0,0,-32317,0,0,0,3966,0,12525,0
11495,-58,-8190,1050,-45,65,-36,9743,-2,3,0,0,37340,291,26,79,0,0,0,0,0,0,0,0,-32317,0,0,0,3966,0,12545,0
11505,64,-8282,1094,-47,65,-46,9743,-2,1,-1,0,37342,295,26,79,0,0,0,0,0,0,0,0,-32317,0,0,0,3964,0,12565,0
11515,-30,-8230,1090,-46,77,-30,9744,0,0,-1,0,37343,292,26,79,0,0,0,0,0,0,0,0,-32317,0,0,0,3963,0,12586,0
11525,122,-8200,1068,-52,50,1,9743,0,0,-2,0,37342,296,26,79,0,0,0,0,0,0,0,0,-32317,0,0,0,3964,0,12606,0
11535,134,-8260,1104,-55,37,12,9744,12,4,-1,0,37340,291,26,79,0,0,0,0,0,0,0,0,-32317,0,0,0,3962,0,12626,0
11545,26,-8216,1082,-57,29,34,9742,-1,0,0,0,37341,290,26,79,0,0,0,0,0,0,0,0,-32317,0,0,0,3964,0,12646,0
11555,-96,-8190,1094,-59,25,41,9744,10,-5,-1,0,37350,290,26,79,0,0,0,0,0,0,0,0,-32317,0,0,0,3964,0,12666,0
11565,-90,-8214,1082,-57,39,26,9743,-4,2,0,0,37352,294,26,79,0,0,0,0,0,0,0,0,-32317,0,0,0,3964,0,12686,0
11575,-122,-8274,1094,-61,52,12,9744,-2,1,1,0,37350,295,26,79,0,0,0,0,0,0,0,0,-32317,0,0,0,3964,0,12706,0
11585,-106,-8200,1060,-63,48,16,9743,5,0,-1,0,37342,294,26,79,0,0,0,0,0,0,0,0,-32317,0,0,0,3964,0,12726,0
11595,-18,-8240,1104,-67,51,10,9744,-3,0,-2,0,37343,295,26,79,0,0,0,0,0,0,0,0,-32317,0,0,0,3964,0,12746,0
11605,-24,-8220,1070,-72,55,8,9743,0,-1,0,0,37346,297,25,79,0,0,0,0,0,0,0,0,-32317,0,0,0,3963,0,12766,0
11615,-40,-8184,1014,-70,49,11,9743,0,7,0,0,37347,298,25,79,0,0,0,0,0,0,0,0,-32317,0,0,0,3964,0,12786,0
11625,0,-8220,962,-60,47,21,9742,-8,1,0,0,37346,300,26,79,0,0,0,0,0,0,0,0,-32317,0,0,0,3964,0,12806,0
11635,-4,-8236,940,-52,34,12,9743,0,3,1,0,37345,302,26,79,0,0,0,0,0,0,0,0,-32317,0,0,0,3963,0,12826,0
11645,-96,-8202,1000,-49,28,27,9743,1,0,-1,0,37347,296,26,79,0,0,0,0,0,0,0,0,-32317,0,0,0,3964,0,12846,0
11655,-72,-8188,1072,-44,28,26,9744,7,3,-1,0,37349,290,26,79,0,0,0,0,0,0,0,0,-32317,0,0,0,3963,0,12866,0
11665,-120,-8242,1168,-46,29,1,9743,1,-2,0,0,37352,287,26,79,0,0,0,0,0,0,0,0,-32317,0,0,0,3963,0,12886,0
11675,-112,-8210,1132,-60,41,2,9744,-5,3,0,0,37348,290,26,79,0,0,0,0,0,0,0,0,-32317,0,0,0,3964,0,12906,0
11685,-66,-8198,1076,-63,44,3,9744,9,1,0,0,37351,295,26,79,0,0,0,0,0,0,0,0,-32317,0,0,0,3963,0,12927,0
11695,-14,-8278,1064,-62,46,-7,9744,7,0,0,0,37351,294,26,79,0,0,0,0,0,0,0,0,-32317,0,0,0,3963,0,12946,0
11705,-18,-8220,1026,-64,46,6,9743,-6,1,-1,0,37352,291,26,79,0,0,0,0,0,0,0,0,-32317,0,0,0,3963,0,12966,0
11715,6,-8176,1008,-59,44,13,9743,2,1,0,0,37349,278,26,79,0,0,0,0,0,0,0,0,-32317,0,0,0,3963,0,12986,0
11725,32,-8240,1010,-51,47,16,9743,0,1,-1,0,37347,285,26,79,0,0,0,0,0,0,0,0,-32317,0,0,0,3963,0,13007,0
11735,6,-8226,1062,-55,42,22,9744,0,3,0,0,37350,285,26,79,0,0,0,0,0,0,0,0,-32317,0,0,0,3963,0,13027,0
11745,-14,-8206,1040,-56,39,38,9744,1,1,0,0,37351,285,26,79,0,0,0,0,0,0,0,0,-32317,0,0,0,3963,0,13047,0
11755,-40,-8246,1028,-55,41,29,9744,7,4,-1,0,37351,291,26,79,0,0,0,0,0,0,0,0,-32317,0,0,0,3964,0,13067,0
11765,-104,-8204,1058,-59,42,28,9743,4,0,0,0,37357,291,26,79,0,0,0,0,0,0,0,0,-32317,0,0,0,3964,0,13087,0
11775,-88,-8198,1032,-54,37,33,9743,5,2,0,0,37356,298,26,79,0,0,0,0,0,0,0,0,-32317,0,0,0,3963,0,13107,0
11785,-42,-8236,1042,-52,31,25,9743,-1,1,-1,0,37358,291,26,79,0,0,0,0,0,0,0,0,-32317,0,0,0,3964,0,13127,0
11795,-52,-8230,1058,-47,42,20,9743,-2,3,-1,0,37350,296,26,79,0,0,0,0,0,0,0,0,-32317,0,0,0,3964,0,13147,0
11805,-112,-8190,1032,-55,37,17,9743,2,0,-1,0,37352,298,26,79,0,0,0,0,0,0,0,0,-32317,0,0,0,3964,0,13167,0
11815,-100,-8204,1044,-54,40,12,9745,9,1,0,0,37354,295,26,79,0,0,0,0,0,0,0,0,-32317,0,0,0,3963,0,13187,0
11825,-52,-8258,1032,-46,43,-4,9743,0,2,0,0,37354,292,26,79,0,0,0,0,0,0,0,0,-32317,0,0,0,3964,0,13207,0
11835,-78,-8188,1020,-43,45,0,9744,5,-1,0,0,37352,290,26,79,0,0,0,0,0,0,0,0,-32317,0,0,0,3964,0,13227,0
11845,-18,-8264,1024,-44,43,6,9742,-4,-5,0,0,37353,292,26,79,0,0,0,0,0,0,0,0,-32317,0,0,0,3964,0,13247,0
11855,4,-8256,1046,-41,36,3,9743,2,1,-1,0,37352,290,26,79,0,0,0,0,0,0,0,0,-32317,0,0,0,3963,0,13267,0
11865,-44,-8222,1076,-44,42,2,9743,-5,-3,-2,0,37362,281,26,79,0,0,0,0,0,0,0,0,-32317,0,0,0,3963,0,13287,0
11875,-46,-8226,1062,-45,36,12,9742,-8,1,0,0,37361,275,26,79,0,0,0,0,0,0,0,0,-32317,0,0,0,3963,0,13307,0
11885,8,-8270,1090,-48,43,9,9744,2,-3,-1,0,37363,278,26,79,0,0,0,0,0,0,0,0,-32318,0,0,0,3963,0,13327,0
11895,-12,-8206,1068,-54,46,19,9742,0,2,-1,0,37358,284,26,79,0,0,0,0,0,0,0,0,-32317,0,0,0,3963,0,13347,0
11905,-6,-8220,1032,-48,44,29,9743,-5,3,0,0,37360,298,26,79,0,0,0,0,0,0,0,0,-32317,0,0,0,3963,0,13367,0
11915,18,-8252,1048,-50,44,30,9744,-1,5,0,0,37363,296,26,79,0,0,0,0,0,0,0,0,-32317,0,0,0,3964,0,13387,0
11925,-78,-8200,1062,-52,37,31,9744,5,6,0,0,37363,296,26,79,0,0,0,0,0,0,0,0,-32317,0,0,0,3963,0,13407,0
11935,-54,-8188,1052,-53,42,37,9743,0,-2,0,0,37361,298,26,79,0,0,0,0,0,0,0,0,-32317,0,0,0,3963,0,13427,0
11945,-32,-8244,1066,-48,37,24,9743,-5,1,0,0,37360,301,26,79,0,0,0,0,0,0,0,0,-32317,0,0,0,3964,0,13447,0
11955,-108,-8216,1036,-52,35,32,9743,-1,-3,0,0,37361,302,26,79,0,0,0,0,0,0,0,0,-32317,0,0,0,3964,0,13467,0
11965,-76,-8198,1028,-52,35,31,9743,-9,3,-2,0,37358,299,26,79,0,0,0,0,0,0,0,0,-32317,0,0,0,3965,0,13487,0
11975,-58,-8254,1052,-47,36,23,9743,0,-2,0,0,37356,297,26,79,0,0,0,0,0,0,0,0,-32317,0,0,0,3965,0,13507,0
11985,-68,-8234,1058,-54,43,20,9743,3,2,0,0,37355,302,26,79,0,0,0,0,0,0,0,0,-32317,0,0,0,3965,0,13527,0
11995,-92,-8194,1054,-58,46,21,9744,0,5,0,0,37358,304,26,79,0,0,0,0,0,0,0,0,-32317,0,0,0,3966,0,13547,0
12005,-58,-8222,1040,-57,38,17,9742,-2,0,-1,0,37356,299,26,79,0,0,0,0,0,0,0,0,-32317,0,0,0,3964,0,13567,0
12015,-44,-8242,1038,-49,41,16,9743,-1,-2,-1,0,37365,293,26,79,0,0,0,0,0,0,0,0,-32317,0,0,0,3964,0,13587,0
12025,-66,-8170,1048,-48,40,24,9743,-1,-2,0,0,37367,295,26,79,0,0,0,0,0,0,0,0,-32317,0,0,0,3965,0,13607,0
12035,-50,-8236,1060,-57,37,20,9744,1,-2,-1,0,37367,294,26,79,0,0,0,0,0,0,0,0,-32317,0,0,0,3966,0,13627,0
12045,-42,-8246,1046,-52,37,14,9744,-3,1,0,0,37360,294,26,79,0,0,0,0,0,0,0,0,-32317,0,0,0,3966,0,13647,0
12055,-106,-8188,1042,-45,44,22,9744,9,0,0,0,37353,292,26,79,0,0,0,0,0,0,0,0,-32317,0,0,0,3966,0,13667,0
12065,-34,-8238,1016,-49,35,23,9743,-4,3,-3,0,37353,301,26,79,0,0,0,0,0,0,0,0,-32317,0,0,0,3965,0,13687,0
12075,-2,-8240,1032,-43,36,17,9744,9,1,0,0,37353,304,26,79,0,0,0,0,0,0,0,0,-32317,0,0,0,3966,0,13707,0
12085,-88,-8204,1038,-35,42,19,9742,0,2,-1,0,37352,298,26,79,0,0,0,0,0,0,0,0,-32317,0,0,0,3966,0,13727,0
12095,-70,-8256,1060,-37,36,21,9743,0,-2,0,0,37352,302,26,79,0,0,0,0,0,0,0,0,-32317,0,0,0,3965,0,13747,0
12105,-34,-8238,1068,-43,37,10,9742,-9,-4,0,0,37352,303,26,79,0,0,0,0,0,0,0,0,-32317,0,0,0,3966,0,13767,0
12115,-88,-8220,1078,-43,44,8,9745,13,1,-2,0,37351,301,26,79,0,0,0,0,0,0,0,0,-32317,0,0,0,3965,0,13787,0
12125,-50,-8210,1050,-49,44,16,9743,-6,1,0,0,37348,296,26,79,0,0,0,0,0,0,0,0,-32317,0,0,0,3965,0,13807,0
12135,-26,-8216,1046,-49,39,11,9744,0,0,-2,0,37347,283,26,79,0,0,0,0,0,0,0,0,-32317,0,0,0,3965,0,13828,0
12145,-62,-8238,1064,-48,43,12,9743,1,2,0,0,37349,290,26,79,0,0,0,0,0,0,0,0,-32317,0,0,0,3965,0,13847,0
12155,-42,-8238,1050,-46,36,17,9743,1,0,-2,0,37349,289,26,79,0,0,0,0,0,0,0,0,-32317,0,0,0,3965,0,13867,0
12165,-12,-8232,1024,-48,40,23,9744,0,4,-1,0,37345,292,26,79,0,0,0,0,0,0,0,0,-32317,0,0,0,3965,0,13887,0
12175,-32,-8232,1052,-43,44,24,9743,-7,-1,3,0,37343,293,26,79,0,0,0,0,0,0,0,0,-32317,0,0,0,3966,0,13907,0
12185,-62,-8230,1060,-48,38,25,9743,0,-1,0,0,37350,291,26,79,0,0,0,0,0,0,0,0,-32317,0,0,0,3966,0,13928,0
12195,-24,-8218,1076,-51,36,29,9744,-2,1,0,0,37353,296,26,79,0,0,0,0,0,0,0,0,-32317,0,0,0,3966,0,13947,0
12205,-74,-8230,1096,-51,34,22,9743,3,-3,0,0,37353,303,26,79,0,0,0,0,0,0,0,0,-32317,0,0,0,3966,0,13968,0
12215,-90,-8220,1052,-55,30,22,9744,1,5,0,0,37346,297,26,79,0,0,0,0,0,0,0,0,-32317,0,0,0,3967,0,13987,0
12225,-70,-8218,1036,-54,41,19,9743,2,-6,0,0,37343,293,26,79,0,0,0,0,0,0,0,0,-32317,0,0,0,3966,0,14007,0
12235,-106,-8222,1042,-52,43,9,9744,4,-1,-1,0,37344,291,26,79,0,0,0,0,0,0,0,0,-32317,0,0,0,3967,0,14028,0
12245,-102,-8178,1030,-48,44,11,9744,5,4,0,0,37345,288,26,79,0,0,0,0,0,0,0,0,-32317,0,0,0,3966,0,14047,0
12255,-68,-8248,1038,-47,42,11,9744,2,4,-3,0,37347,289,26,79,0,0,0,0,0,0,0,0,-32317,0,0,0,3967,0,14068,0
12265,-20,-8236,1044,-49,39,11,9744,0,2,-1,0,37344,287,26,79,0,0,0,0,0,0,0,0,-32317,0,0,0,3966,0,14087,0
12275,-52,-8212,1044,-42,40,10,9743,0,-2,0,0,37343,294,25,79,0,0,0,0,0,0,0,0,-32316,0,0,0,3966,0,14108,0
12285,-32,-8252,1038,-42,39,13,9743,-1,-3,0,0,37352,294,25,79,0,0,0,0,0,0,0,0,-32317,0,0,0,3967,0,14128,0
12295,-54,-8224,1052,-47,39,12,9743,0,-2,-1,0,37354,295,26,79,0,0,0,0,0,0,0,0,-32317,0,0,0,3965,0,14148,0
12305,-64,-8236,1072,-49,36,10,9743,-1,-1,-1,0,37353,287,26,79,0,0,0,0,0,0,0,0,-32317,0,0,0,3966,0,14167,0
12315,-40,-8244,1048,-47,41,11,9742,-12,-2,-1,0,37347,289,26,79,0,0,0,0,0,0,0,0,-32317,0,0,0,3967,0,14188,0
12325,-68,-8228,1066,-49,38,3,9743,0,6,0,0,37343,292,26,79,0,0,0,0,0,0,0,0,-32317,0,0,0,3967,0,14208,0
12335,-110,-8188,1072,-42,42,7,9743,0,0,0,0,37344,290,26,79,0,0,0,0,0,0,0,0,-32317,0,0,0,3966,0,14228,0
12345,-94,-8218,1072,-46,43,4,9743,-1,2,0,0,37344,285,26,79,0,0,0,0,0,0,0,0,-32317,0,0,0,3967,0,14248,0
12355,-50,-8208,1070,-48,44,3,9744,5,4,0,0,37342,281,26,79,0,0,0,0,0,0,0,0,-32317,0,0,0,3967,0,14268,0
12365,-46,-8208,1040,-49,45,4,9743,-1,0,0,0,37341,287,26,79,0,0,0,0,0,0,0,0,-32317,0,0,0,3966,0,14287,0
12375,-22,-8218,1042,-46,42,7,9743,6,2,0,0,37342,293,26,79,0,0,0,0,0,0,0,0,-32317,0,0,0,3965,0,14308,0
12385,2,-8234,1050,-46,39,12,9743,0,3,0,0,37343,291,26,79,0,0,0,0,0,0,0,0,-32317,0,0,0,3966,0,14328,0
12395,-32,-8210,1078,-47,38,9,9742,-8,-2,0,0,37349,288,26,79,0,0,0,0,0,0,0,0,-32317,0,0,0,3966,0,14348,0
12405,-34,-8208,1066,-50,37,17,9743,-5,-3,-1,0,37349,287,26,79,0,0,0,0,0,0,0,0,-32317,0,0,0,3966,0,14368,0
12415,-62,-8258,1054,-47,43,18,9742,-5,3,0,0,37349,289,26,79,0,0,0,0,0,0,0,0,-32317,0,0,0,3966,0,14388,0
12425,-84,-8220,1034,-48,40,7,9744,3,-2,0,0,37342,288,26,79,0,0,0,0,0,0,0,0,-32317,0,0,0,3967,0,14408,0
12435,-114,-8230,1018,-54,41,10,9744,0,-2,-1,0,37342,291,26,79,0,0,0,0,0,0,0,0,-32317,0,0,0,3966,0,14428,0
12445,-60,-8206,1052,-51,42,11,9744,3,-1,1,0,37342,289,26,79,0,0,0,0,0,0,0,0,-32317,0,0,0,3965,0,14448,0
12455,-80,-8214,1050,-49,43,-1,9744,6,0,-1,0,37341,283,26,79,0,0,0,0,0,0,0,0,-32317,0,0,0,3964,0,14468,0
12465,-64,-8232,1070,-52,44,7,9743,-1,2,0,0,37340,284,26,79,0,0,0,0,0,0,0,0,-32317,0,0,0,3965,0,14488,0
12475,-40,-8216,1074,-48,43,5,9743,0,-1,0,0,37339,290,26,79,0,0,0,0,0,0,0,0,-32317,0,0,0,3966,0,14508,0
12485,-34,-8216,1082,-48,39,7,9743,0,-2,0,0,37341,295,26,79,0,0,0,0,0,0,0,0,-32317,0,0,0,3965,0,14528,0
12495,-44,-8230,1044,-55,40,9,9743,0,2,0,0,37343,286,26,79,0,0,0,0,0,0,0,0,-32316,0,0,0,3965,0,14548,0
12505,-54,-8212,1038,-50,37,11,9743,0,3,-1,0,37350,284,26,79,0,0,0,0,0,0,0,0,-32317,0,0,0,3965,0,14568,0
12515,-50,-8212,1062,-49,40,11,9744,1,-6,0,0,37349,281,26,79,0,0,0,0,0,0,0,0,-32317,0,0,0,3964,0,14588,0
12525,-58,-8228,1058,-51,42,6,9743,6,2,-2,0,37350,274,26,79,0,0,0,0,0,0,0,0,-32317,0,0,0,3964,0,14608,0
12535,-62,-8220,1068,-48,40,14,9744,6,-5,-1,0,37346,278,26,79,0,0,0,0,0,0,0,0,-32317,0,0,0,3964,0,14628,0
12545,-48,-8212,1052,-50,40,4,9742,0,1,0,0,37347,286,26,79,0,0,0,0,0,0,0,0,-32317,0,0,0,3964,0,14648,0
12555,-70,-8218,1066,-48,45,0,9745,13,0,-1,0,37351,292,26,79,0,0,0,0,0,0,0,0,-32317,0,0,0,3964,0,14668,0
12565,-82,-8232,1078,-55,48,3,9744,7,-1,0,0,37352,288,26,79,0,0,0,0,0,0,0,0,-32317,0,0,0,3963,0,14688,0
12575,-28,-8226,1062,-48,46,2,9743,0,3,0,0,37352,289,26,79,0,0,0,0,0,0,0,0,-32317,0,0,0,3963,0,14708,0
12585,-24,-8262,1042,-54,47,6,9742,-1,2,-1,0,37350,293,26,79,0,0,0,0,0,0,0,0,-32316,0,0,0,3964,0,14728,0
12595,0,-8218,1054,-48,45,13,9743,-2,-4,-1,0,37349,301,26,79,0,0,0,0,0,0,0,0,-32317,0,0,0,3963,0,14748,0
12605,-8,-8216,1072,-57,36,12,9744,2,-1,0,0,37353,300,26,79,0,0,0,0,0,0,0,0,-32317,0,0,0,3964,0,14768,0
12615,-38,-8230,1094,-54,40,15,9742,-2,5,0,0,37353,299,26,79,0,0,0,0,0,0,0,0,-32317,0,0,0,3963,0,14788,0
12625,-50,-8220,1106,-54,41,18,9743,-3,1,-1,0,37352,297,26,79,0,0,0,0,0,0,0,0,-32316,0,0,0,3962,0,14808,0
12635,-44,-8200,1078,-63,45,21,9744,-1,-3,0,0,37349,294,26,79,0,0,0,0,0,0,0,0,-32317,0,0,0,3963,0,14828,0
12645,-34,-8258,1040,-60,45,19,9744,6,-3,-1,0,37344,287,26,79,0,0,0,0,0,0,0,0,-32317,0,0,0,3963,0,14848,0
12655,-38,-8226,1042,-55,39,22,9744,3,-3,-2,0,37344,284,26,79,0,0,0,0,0,0,0,0,-32317,0,0,0,3964,0,14868,0
12665,-44,-8238,1040,-54,41,20,9743,0,-1,-1,0,37344,280,26,79,0,0,0,0,0,0,0,0,-32317,0,0,0,3963,0,14888,0
12675,-50,-8226,1012,-51,42,20,9744,0,1,0,0,37344,281,26,79,0,0,0,0,0,0,0,0,-32317,0,0,0,3964,0,14908,0
12685,-82,-8236,1052,-53,43,17,9742,-5,-3,-1,0,37345,291,26,79,0,0,0,0,0,0,0,0,-32317,0,0,0,3963,0,14928,0
12695,-78,-8198,1076,-50,42,16,9744,5,3,0,0,37348,293,26,79,0,0,0,0,0,0,0,0,-32317,0,0,0,3964,0,14948,0
12705,-46,-8228,1062,-51,40,11,9744,-1,0,1,0,37350,292,26,79,0,0,0,0,0,0,0,0,-32317,0,0,0,3964,0,14968,0
12715,-48,-8228,1066,-54,42,14,9744,5,0,0,0,37353,285,26,79,0,0,0,0,0,0,0,0,-32317,0,0,0,3963,0,14988,0
12725,-56,-8218,1068,-55,42,17,9743,-11,-3,0,0,37351,289,26,79,0,0,0,0,0,0,0,0,-32317,0,0,0,3963,0,15008,0
12735,-42,-8240,1042,-54,43,13,9743,-1,-1,-1,0,37353,292,26,79,0,0,0,0,0,0,0,0,-32316,0,0,0,3963,0,15029,0
12745,-12,-8206,1048,-58,39,17,9743,0,-2,0,0,37350,299,26,79,0,0,0,0,0,0,0,0,-32317,0,0,0,3964,0,15049,0
12755,-54,-8222,1024,-54,39,19,9743,2,5,-1,0,37350,298,26,79,0,0,0,0,0,0,0,0,-32317,0,0,0,3964,0,15069,0
12765,-62,-8222,1038,-52,45,20,9743,-2,-1,-2,0,37348,293,26,79,0,0,0,0,0,0,0,0,-32317,0,0,0,3963,0,15089,0
12775,-64,-8214,1056,-52,44,19,9743,-1,-1,-1,0,37350,294,26,79,0,0,0,0,0,0,0,0,-32317,0,0,0,3964,0,15109,0
12785,-82,-8196,1032,-53,46,19,9742,-6,1,0,0,37351,287,26,79,0,0,0,0,0,0,0,0,-32317,0,0,0,3963,0,15129,0
12795,-42,-8202,1036,-51,39,20,9744,5,1,0,0,37352,287,26,79,0,0,0,0,0,0,0,0,-32317,0,0,0,3964,0,15149,0
12805,-40,-8220,1048,-47,38,17,9743,0,-1,0,0,37352,290,26,79,0,0,0,0,0,0,0,0,-32317,0,0,0,3963,0,15169,0
12815,-64,-8240,1018,-51,43,19,9744,12,4,0,0,37353,287,26,79,0,0,0,0,0,0,0,0,-32317,0,0,0,3964,0,15189,0
12825,-66,-8210,1054,-50,33,13,9744,2,-2,-1,0,37354,290,26,79,0,0,0,0,0,0,0,0,-32317,0,0,0,3963,0,15209,0
12835,-54,-8232,1062,-54,36,10,9742,-4,-1,1,0,37355,284,26,79,0,0,0,0,0,0,0,0,-32317,0,0,0,3964,0,15229,0
12845,-60,-8238,1066,-50,44,13,9742,-2,1,0,0,37354,292,26,79,0,0,0,0,0,0,0,0,-32317,0,0,0,3964,0,15249,0
12855,-30,-8218,1054,-56,40,21,9743,-1,1,-1,0,37351,292,26,79,0,0,0,0,0,0,0,0,-32317,0,0,0,3964,0,15269,0
12865,-36,-8248,1056,-55,37,27,9743,2,-2,0,0,37352,290,26,79,0,0,0,0,0,0,0,0,-32317,0,0,0,3965,0,15289,0
12875,-46,-8230,1054,-54,47,23,9744,0,2,0,0,37353,284,26,79,0,0,0,0,0,0,0,0,-32317,0,0,0,3964,0,15309,0
12885,-40,-8212,1046,-57,42,20,9743,-1,-1,-1,0,37355,288,26,79,0,0,0,0,0,0,0,0,-32317,0,0,0,3964,0,15329,0
12895,-22,-8228,1044,-59,50,22,9742,-7,2,0,0,37354,289,26,79,0,0,0,0,0,0,0,0,-32317,0,0,0,3964,0,15349,0
12905,-48,-8236,1038,-58,52,27,9744,1,4,-1,0,37355,300,26,79,0,0,0,0,0,0,0,0,-32317,0,0,0,3964,0,15369,0
12915,-46,-8200,1038,-54,46,23,9743,-2,0,-2,0,37361,295,25,79,0,0,0,0,0,0,0,0,-32317,0,0,0,3964,0,15389,0
12925,-26,-8240,1050,-50,38,23,9743,-2,0,0,0,37361,293,25,79,0,0,0,0,0,0,0,0,-32317,0,0,0,3964,0,15409,0
12935,-46,-8228,1026,-49,34,27,9743,2,3,0,0,37360,283,26,79,0,0,0,0,0,0,0,0,-32316,0,0,0,3965,0,15429,0
12945,-106,-8202,1024,-48,40,19,9742,-8,-1,-1,0,37361,284,26,79,0,0,0,0,0,0,0,0,-32317,0,0,0,3965,0,15449,0
12955,-96,-8236,1040,-50,42,18,9743,7,-6,0,0,37353,287,26,79,0,0,0,0,0,0,0,0,-32317,0,0,0,3964,0,15469,0
12965,-50,-8206,1040,-44,42,15,9744,-1,5,0,0,37355,285,26,79,0,0,0,0,0,0,0,0,-32316,0,0,0,3965,0,15489,0
12975,-62,-8208,1030,-44,39,12,9744,5,-1,0,0,37355,284,26,79,0,0,0,0,0,0,0,0,-32317,0,0,0,3965,0,15509,0
12985,-52,-8242,1040,-43,37,9,9744,3,1,0,0,37353,289,26,79,0,0,0,0,0,0,0,0,-32317,0,0,0,3965,0,15529,0
12995,-40,-8236,1058,-44,41,13,9743,-4,1,0,0,37353,288,26,79,0,0,0,0,0,0,0,0,-32317,0,0,0,3964,0,15549,0
13005,-38,-8252,1058,-47,38,16,9743,0,-2,0,0,37355,295,26,79,0,0,0,0,0,0,0,0,-32317,0,0,0,3965,0,15569,0
13015,-24,-8220,1076,-52,40,18,9742,-1,-4,0,0,37356,291,26,79,0,0,0,0,0,0,0,0,-32317,0,0,0,3964,0,15589,0
13025,-4,-8234,1062,-50,42,25,9744,1,3,0,0,37359,290,26,79,0,0,0,0,0,0,0,0,-32317,0,0,0,3964,0,15609,0
13035,-72,-8226,1054,-50,37,29,9744,0,-1,0,0,37354,287,26,79,0,0,0,0,0,0,0,0,-32317,0,0,0,3965,0,15629,0
13045,-46,-8242,1030,-54,36,25,9744,-4,2,0,0,37353,284,26,79,0,0,0,0,0,0,0,0,-32317,0,0,0,3966,0,15649,0
13055,-44,-8222,1054,-51,40,23,9743,0,-2,-2,0,37348,289,26,79,0,0,0,0,0,0,0,0,-32317,0,0,0,3966,0,15669,0
13065,-80,-8214,1054,-53,42,20,9744,1,2,0,0,37349,291,26,79,0,0,0,0,0,0,0,0,-32317,0,0,0,3965,0,15689,0
13075,-58,-8228,1012,-52,39,20,9743,-4,-4,-1,0,37350,297,26,79,0,0,0,0,0,0,0,0,-32317,0,0,0,3967,0,15709,0
13085,-80,-8242,1044,-45,39,23,9743,0,-1,-1,0,37350,287,26,79,0,0,0,0,0,0,0,0,-32317,0,0,0,3966,0,15729,0
13095,-58,-8210,1056,-50,39,23,9742,-1,-4,-1,0,37350,290,26,79,0,0,0,0,0,0,0,0,-32317,0,0,0,3965,0,15749,0
13105,-60,-8202,1058,-47,42,22,9744,0,3,-2,0,37352,290,26,79,0,0,0,0,0,0,0,0,-32317,0,0,0,3966,0,15769,0
13115,-44,-8236,1046,-44,37,23,9744,3,-1,0,0,37351,293,26,79,0,0,0,0,0,0,0,0,-32316,0,0,0,3967,0,15789,0
13125,-62,-8208,1084,-46,45,15,9743,-1,0,0,0,37349,289,26,79,0,0,0,0,0,0,0,0,-32317,0,0,0,3967,0,15809,0
13135,-60,-8234,1066,-55,45,19,9744,8,2,0,0,37352,287,26,79,0,0,0,0,0,0,0,0,-32317,0,0,0,3966,0,15829,0
13145,-24,-8232,1068,-55,51,23,9743,-1,1,0,0,37355,284,26,79,0,0,0,0,0,0,0,0,-32317,0,0,0,3967,0,15849,0
13155,-46,-8216,1058,-55,49,20,9743,0,-5,-2,0,37354,285,26,79,0,0,0,0,0,0,0,0,-32317,0,0,0,3966,0,15869,0
13165,-54,-8218,1036,-53,42,19,9744,0,0,0,0,37348,283,26,79,0,0,0,0,0,0,0,0,-32317,0,0,0,3967,0,15889,0
13175,-40,-8238,1006,-41,40,24,9741,-2,-7,0,0,37346,292,26,79,0,0,0,0,0,0,0,0,-32317,0,0,0,3965,0,15909,0
13185,-76,-8218,1044,-45,32,25,9744,5,5,0,0,37344,297,26,79,0,0,0,0,0,0,0,0,-32317,0,0,0,3967,0,15929,0
13195,-92,-8228,1050,-44,34,16,9745,5,3,0,0,37348,294,26,79,0,0,0,0,0,0,0,0,-32317,0,0,0,3967,0,15949,0
13205,-90,-8244,1082,-49,40,6,9743,-3,0,0,0,37350,290,26,79,0,0,0,0,0,0,0,0,-32317,0,0,0,3967,0,15969,0
13215,-72,-8234,1084,-45,47,7,9743,0,-2,0,0,37350,287,26,79,0,0,0,0,0,0,0,0,-32317,0,0,0,3967,0,15989,0
13225,-30,-8210,1078,-52,40,6,9743,-1,7,1,0,37348,283,26,79,0,0,0,0,0,0,0,0,-32316,0,0,0,3966,0,16010,0
13235,-14,-8254,1078,-55,48,17,9744,3,-2,0,0,37354,283,26,79,0,0,0,0,0,0,0,0,-32317,0,0,0,3967,0,16030,0
13245,-18,-8196,1064,-54,44,21,9744,4,-3,-1,0,37357,285,26,79,0,0,0,0,0,0,0,0,-32317,0,0,0,3967,0,16050,0
13255,-26,-8220,1026,-54,41,22,9743,-7,-3,0,0,37359,286,26,79,0,0,0,0,0,0,0,0,-32317,0,0,0,3967,0,16069,0
13265,-30,-8228,1038,-51,38,26,9742,-3,3,-1,0,37351,279,26,79,0,0,0,0,0,0,0,0,-32317,0,0,0,3965,0,16089,0
13275,-34,-8206,1034,-54,44,29,9743,0,1,0,0,37348,283,26,79,0,0,0,0,0,0,0,0,-32317,0,0,0,3967,0,16110,0
13285,-70,-8212,1034,-49,37,24,9743,-6,1,0,0,37347,292,26,79,0,0,0,0,0,0,0,0,-32317,0,0,0,3967,0,16130,0
13295,-60,-8246,1042,-48,35,24,9743,3,5,0,0,37359,294,26,79,0,0,0,0,0,0,0,0,-32317,0,0,0,3968,0,16150,0
13305,-68,-8206,1076,-43,34,17,9743,-1,-1,0,0,37368,302,26,79,0,0,0,0,0,0,0,0,-32317,0,0,0,3968,0,16170,0
13315,-76,-8234,1054,-54,40,14,9742,-7,0,0,0,37374,291,26,79,0,0,0,0,0,0,0,0,-32317,0,0,0,3967,0,16190,0
13325,-82,-8214,1048,-52,43,15,9744,9,1,-2,0,37362,293,26,79,0,0,0,0,0,0,0,0,-32317,0,0,0,3967,0,16210,0
13335,-92,-8232,1070,-54,45,10,9743,-2,-6,-1,0,37357,282,26,79,0,0,0,0,0,0,0,0,-32317,0,0,0,3967,0,16230,0
13345,-50,-8228,1064,-51,41,11,9744,1,2,0,0,37347,286,26,79,0,0,0,0,0,0,0,0,-32317,0,0,0,3968,0,16250,0
13355,-58,-8230,1078,-52,40,15,9744,8,0,-1,0,37346,285,26,79,0,0,0,0,0,0,0,0,-32317,0,0,0,3968,0,16270,0
13365,-22,-8224,1048,-53,44,15,9742,-3,-5,-1,0,37340,292,26,79,0,0,0,0,0,0,0,0,-32317,0,0,0,3969,0,16290,0
13375,-42,-8184,1052,-56,42,18,9743,-7,2,0,0,37341,296,26,79,0,0,0,0,0,0,0,0,-32317,0,0,0,3967,0,16310,0
13385,-46,-8220,1060,-51,41,25,9743,1,4,0,0,37341,302,26,79,0,0,0,0,0,0,0,0,-32317,0,0,0,3967,0,16330,0
13395,-38,-8202,1020,-57,39,28,9744,0,-1,0,0,37341,294,26,79,0,0,0,0,0,0,0,0,-32317,0,0,0,3967,0,16350,0
13405,-74,-8242,1038,-51,37,19,9744,6,-1,-1,0,37340,291,26,79,0,0,0,0,0,0,0,0,-32317,0,0,0,3967,0,16370,0
13415,-74,-8222,1052,-50,36,18,9743,5,0,-1,0,37339,288,26,79,0,0,0,0,0,0,0,0,-32317,0,0,0,3968,0,16390,0
13425,-80,-8234,1046,-48,38,13,9743,1,0,-1,0,37338,290,26,79,0,0,0,0,0,0,0,0,-32316,0,0,0,3967,0,16410,0
13435,-86,-8206,1040,-50,41,11,9744,5,2,2,0,37339,292,26,79,0,0,0,0,0,0,0,0,-32316,0,0,0,3968,0,16430,0
13445,-74,-8260,1058,-47,42,10,9743,1,-2,0,0,37346,289,26,79,0,0,0,0,0,0,0,0,-32316,0,0,0,3967,0,16450,0
13455,-68,-8260,1054,-51,40,7,9744,5,5,0,0,37347,285,26,79,0,0,0,0,0,0,0,0,-32317,0,0,0,3969,0,16470,0
13465,-38,-8206,1066,-48,40,10,9743,-1,1,0,0,37346,284,26,79,0,0,0,0,0,0,0,0,-32317,0,0,0,3967,0,16490,0
13475,-32,-8232,1080,-50,50,10,9743,0,0,0,0,37340,291,26,79,0,0,0,0,0,0,0,0,-32317,0,0,0,3965,0,16510,0
13485,-14,-8242,1048,-56,37,16,9743,0,-1,-2,0,37339,285,26,79,0,0,0,0,0,0,0,0,-32317,0,0,0,3966,0,16530,0
13495,-40,-8206,1022,-53,41,20,9743,-1,-2,-1,0,37340,287,26,79,0,0,0,0,0,0,0,0,-32317,0,0,0,3967,0,16550,0
13505,-54,-8246,1042,-53,42,19,9743,-4,-2,-1,0,37340,284,26,79,0,0,0,0,0,0,0,0,-32317,0,0,0,3967,0,16570,0
13515,-60,-8220,1056,-47,39,20,9743,-6,-3,-1,0,37341,289,26,79,0,0,0,0,0,0,0,0,-32316,0,0,0,3967,0,16590,0
13525,-58,-8210,1058,-49,40,16,9742,0,3,0,0,37344,295,26,79,0,0,0,0,0,0,0,0,-32317,0,0,0,3967,0,16610,0
13535,-64,-8222,1032,-53,46,17,9743,3,-1,0,0,37343,287,26,79,0,0,0,0,0,0,0,0,-32316,0,0,0,3967,0,16630,0
13545,-78,-8236,1044,-48,41,15,9743,4,-1,-1,0,37347,289,26,79,0,0,0,0,0,0,0,0,-32317,0,0,0,3966,0,16650,0
13555,-74,-8196,1034,-48,41,13,9743,-10,1,0,0,37345,292,26,79,0,0,0,0,0,0,0,0,-32317,0,0,0,3966,0,16670,0
13565,-54,-8236,1028,-54,41,14,9743,2,-1,-1,0,37346,294,26,79,0,0,0,0,0,0,0,0,-32317,0,0,0,3965,0,16690,0
13575,-58,-8228,1050,-46,40,5,9743,0,0,0,0,37347,294,26,79,0,0,0,0,0,0,0,0,-32317,0,0,0,3966,0,16710,0
13585,-52,-8212,1064,-48,45,12,9744,3,3,0,0,37344,283,26,79,0,0,0,0,0,0,0,0,-32317,0,0,0,3965,0,16730,0
13595,-38,-8220,1086,-52,37,7,9745,5,-3,0,0,37342,284,26,79,0,0,0,0,0,0,0,0,-32317,0,0,0,3967,0,16750,0
13605,-56,-8218,1082,-57,42,23,9743,0,0,-1,0,37342,285,26,79,0,0,0,0,0,0,0,0,-32317,0,0,0,3966,0,16770,0
13615,-54,-8222,1066,-57,41,17,9742,-4,-2,0,0,37343,288,26,79,0,0,0,0,0,0,0,0,-32317,0,0,0,3965,0,16790,0
13625,-64,-8254,1048,-55,38,19,9743,-1,2,0,0,37344,285,26,79,0,0,0,0,0,0,0,0,-32317,0,0,0,3966,0,16810,0
13635,-42,-8248,1052,-51,40,19,9743,3,1,0,0,37343,282,26,79,0,0,0,0,0,0,0,0,-32317,0,0,0,3967,0,16831,0
13645,-50,-8210,1064,-57,52,18,9743,0,-1,3,0,37344,285,26,79,0,0,0,0,0,0,0,0,-32317,0,0,0,3967,0,16851,0
13655,-64,-8218,1042,-54,46,21,9743,0,-2,0,0,37353,291,26,79,0,0,0,0,0,0,0,0,-32317,0,0,0,3966,0,16871,0
13665,-66,-8214,1050,-52,47,21,9744,0,2,-1,0,37355,293,26,79,0,0,0,0,0,0,0,0,-32317,0,0,0,3966,0,16891,0
13675,-64,-8210,1030,-56,46,20,9743,1,1,0,0,37354,291,26,79,0,0,0,0,0,0,0,0,-32317,0,0,0,3967,0,16911,0
13685,-40,-8218,1058,-46,42,23,9743,0,-5,0,0,37345,293,26,79,0,0,0,0,0,0,0,0,-32316,0,0,0,3966,0,16932,0
13695,-74,-8232,1060,-46,44,20,9745,8,1,0,0,37347,289,26,79,0,0,0,0,0,0,0,0,-32317,0,0,0,3967,0,16952,0
13705,-100,-8242,1026,-52,40,18,9743,-3,-2,-1,0,37349,292,26,79,0,0,0,0,0,0,0,0,-32317,0,0,0,3967,0,16972,0
13715,-60,-8220,1068,-43,41,16,9743,-8,-2,0,0,37348,295,26,79,0,0,0,0,0,0,0,0,-32317,0,0,0,3967,0,16992,0
13725,-80,-8206,1074,-48,45,15,9743,0,4,-1,0,37346,295,26,79,0,0,0,0,0,0,0,0,-32317,0,0,0,3966,0,17012,0
13735,-74,-8242,1064,-51,39,11,9743,-3,-3,0,0,37346,293,26,79,0,0,0,0,0,0,0,0,-32317,0,0,0,3965,0,17033,0
13745,-70,-8220,1050,-53,42,10,9744,1,0,0,0,37346,292,26,79,0,0,0,0,0,0,0,0,-32317,0,0,0,3967,0,17053,0
13755,-74,-8234,1050,-52,42,12,9743,-6,-4,1,0,37349,290,26,79,0,0,0,0,0,0,0,0,-32316,0,0,0,3967,0,17073,0
13765,-46,-8222,1052,-54,43,6,9742,-7,3,0,0,37352,288,26,79,0,0,0,0,0,0,0,0,-32317,0,0,0,3966,0,17093,0
13775,-70,-8240,1090,-50,43,9,9744,4,-1,0,0,37352,289,26,79,0,0,0,0,0,0,0,0,-32316,0,0,0,3967,0,17113,0
13785,-52,-8216,1034,-56,44,10,9743,-3,2,0,0,37354,286,26,79,0,0,0,0,0,0,0,0,-32317,0,0,0,3967,0,17133,0
13795,-64,-8230,1026,-57,38,9,9744,1,2,0,0,37352,291,26,79,0,0,0,0,0,0,0,0,-32317,0,0,0,3966,0,17153,0
13805,-34,-8200,1028,-48,36,7,9743,-2,2,0,0,37350,291,26,79,0,0,0,0,0,0,0,0,-32317,0,0,0,3967,0,17173,0
13815,-68,-8242,1024,-43,35,6,9743,0,0,1,0,37348,294,26,79,0,0,0,0,0,0,0,0,-32316,0,0,0,3965,0,17193,0
13825,-92,-8270,1044,-48,38,7,9743,-3,2,1,0,37348,294,26,79,0,0,0,0,0,0,0,0,-32317,0,0,0,3965,0,17214,0
13835,-74,-8226,1050,-48,38,2,9744,0,3,0,0,37351,289,26,79,0,0,0,0,0,0,0,0,-32317,0,0,0,3965,0,17234,0
13845,-58,-8208,1090,-52,42,4,9743,0,1,0,0,37350,291,26,79,0,0,0,0,0,0,0,0,-32316,0,0,0,3964,0,17254,0
13855,-16,-8200,1070,-58,44,8,9744,-1,0,0,0,37347,295,26,79,0,0,0,0,0,0,0,0,-32317,0,0,0,3965,0,17274,0
13865,-38,-8214,1074,-59,38,9,9743,-1,0,1,0,37347,300,26,79,0,0,0,0,0,0,0,0,-32317,0,0,0,3965,0,17294,0
13875,-62,-8238,1044,-53,41,19,9743,0,2,0,0,37357,294,26,79,0,0,0,0,0,0,0,0,-32316,0,0,0,3964,0,17314,0
13885,-26,-8220,1018,-58,41,18,9744,-1,-5,0,0,37356,291,26,79,0,0,0,0,0,0,0,0,-32317,0,0,0,3964,0,17334,0
13895,-46,-8266,1030,-55,43,17,9743,0,-1,-1,0,37357,291,26,79,0,0,0,0,0,0,0,0,-32316,0,0,0,3964,0,17354,0
13905,-44,-8236,1050,-55,41,17,9744,-1,-1,-1,0,37350,286,26,79,0,0,0,0,0,0,0,0,-32317,0,0,0,3965,0,17374,0
13915,-58,-8240,1060,-52,36,18,9742,-2,1,0,0,37351,281,26,79,0,0,0,0,0,0,0,0,-32317,0,0,0,3964,0,17394,0
13925,-42,-8220,1056,-46,45,14,9744,3,0,0,0,37351,285,26,79,0,0,0,0,0,0,0,0,-32317,0,0,0,3965,0,17414,0
13935,-54,-8220,1064,-54,39,13,9742,-1,-3,0,0,37352,284,26,79,0,0,0,0,0,0,0,0,-32317,0,0,0,3964,0,17434,0
13945,-46,-8236,1046,-55,44,13,9743,4,-1,0,0,37356,290,26,79,0,0,0,0,0,0,0,0,-32317,0,0,0,3965,0,17454,0
13955,-36,-8214,1012,-49,30,15,9744,0,-1,0,0,37359,289,26,79,0,0,0,0,0,0,0,0,-32317,0,0,0,3965,0,17474,0
13965,-74,-8222,1024,-46,38,17,9743,2,0,0,0,37359,302,26,79,0,0,0,0,0,0,0,0,-32317,0,0,0,3966,0,17494,0
13975,-56,-8222,1040,-50,43,17,9743,-4,1,2,0,37359,302,26,79,0,0,0,0,0,0,0,0,-32317,0,0,0,3965,0,17514,0
13985,-70,-8226,1036,-52,42,13,9744,2,-1,0,0,37361,299,26,79,0,0,0,0,0,0,0,0,-32316,0,0,0,3965,0,17534,0
13995,-90,-8236,1042,-48,44,10,9744,0,4,-1,0,37360,301,26,79,0,0,0,0,0,0,0,0,-32317,0,0,0,3965,0,17554,0
14005,-52,-8232,1044,-49,38,10,9742,-3,-2,0,0,37360,307,26,79,0,0,0,0,0,0,0,0,-32317,0,0,0,3966,0,17574,0
14015,-46,-8206,1072,-49,44,15,9744,6,0,-2,0,37352,303,26,79,0,0,0,0,0,0,0,0,-32317,0,0,0,3965,0,17595,0
14025,-60,-8248,1062,-49,37,13,9742,-3,-2,-2,0,37349,297,26,79,0,0,0,0,0,0,0,0,-32317,0,0,0,3965,0,17615,0
14035,-58,-8224,1032,-50,38,10,9744,3,-1,0,0,37345,291,26,79,0,0,0,0,0,0,0,0,-32317,0,0,0,3965,0,17636,0
14045,-44,-8200,1042,-48,36,12,9743,-5,2,0,0,37345,297,26,79,0,0,0,0,0,0,0,0,-32317,0,0,0,3964,0,17656,0
14055,-30,-8236,1022,-47,36,11,9742,-5,-3,-1,0,37346,299,26,79,0,0,0,0,0,0,0,0,-32316,0,0,0,3964,0,17676,0
14065,-80,-8240,1052,-51,37,14,9744,2,-2,0,0,37348,294,26,79,0,0,0,0,0,0,0,0,-32316,0,0,0,3964,0,17696,0
14075,-52,-8210,1026,-53,42,10,9745,7,0,0,0,37346,296,26,79,0,0,0,0,0,0,0,0,-32317,0,0,0,3965,0,17716,0
14085,-64,-8230,1070,-51,46,7,9743,-2,-1,-1,0,37348,293,26,79,0,0,0,0,0,0,0,0,-32316,0,0,0,3964,0,17736,0
14095,-20,-8248,1096,-51,43,9,9743,1,-3,0,0,37347,291,26,79,0,0,0,0,0,0,0,0,-32316,0,0,0,3964,0,17756,0
14105,-20,-8216,1108,-58,45,16,9743,-4,-1,0,0,37349,290,26,79,0,0,0,0,0,0,0,0,-32317,0,0,0,3964,0,17776,0
14115,-44,-8224,1036,-64,39,14,9742,1,-8,0,0,37347,290,26,79,0,0,0,0,0,0,0,0,-32317,0,0,0,3964,0,17796,0
14125,-70,-8228,1006,-62,44,19,9743,2,1,0,0,37345,294,26,79,0,0,0,0,0,0,0,0,-32317,0,0,0,3965,0,17816,0
14135,-66,-8198,994,-53,47,18,9743,7,2,0,0,37343,291,26,79,0,0,0,0,0,0,0,0,-32317,0,0,0,3964,0,17836,0
14145,-52,-8224,1050,-49,40,17,9743,-6,1,0,0,37344,291,26,79,0,0,0,0,0,0,0,0,-32317,0,0,0,3964,0,17856,0
14155,-44,-8248,1070,-51,45,18,9743,-7,-1,-1,0,37347,295,26,79,0,0,0,0,0,0,0,0,-32316,0,0,0,3964,0,17876,0
14165,-2,-8220,1060,-61,43,22,9744,0,0,-1,0,37348,299,26,79,0,0,0,0,0,0,0,0,-32317,0,0,0,3964,0,17896,0
14175,-54,-8224,1050,-55,40,21,9743,-1,1,-1,0,37344,295,26,79,0,0,0,0,0,0,0,0,-32316,0,0,0,3964,0,17916,0
14185,-46,-8246,1026,-56,43,24,9745,7,5,0,0,37341,293,26,79,0,0,0,0,0,0,0,0,-32317,0,0,0,3964,0,17936,0
14195,-64,-8220,1014,-55,38,19,9744,3,1,-1,0,37346,291,26,79,0,0,0,0,0,0,0,0,-32317,0,0,0,3964,0,17956,0
14205,-110,-8246,1010,-50,42,20,9742,-3,-6,0,0,37347,293,26,79,0,0,0,0,0,0,0,0,-32316,0,0,0,3964,0,17976,0
14215,-110,-8234,1026,-53,41,13,9743,0,0,0,0,37348,292,26,79,0,0,0,0,0,0,0,0,-32316,0,0,0,3965,0,17996,0
14225,-40,-8190,1060,-53,42,8,9743,-5,1,-1,0,37341,292,26,79,0,0,0,0,0,0,0,0,-32316,0,0,0,3964,0,18016,0
14235,-52,-8208,1064,-57,39,8,9743,1,2,0,0,37338,291,26,79,0,0,0,0,0,0,0,0,-32317,0,0,0,3964,0,18036,0
14245,-22,-8208,1032,-54,42,12,9743,-3,0,0,0,37340,286,26,79,0,0,0,0,0,0,0,0,-32317,0,0,0,3964,0,18056,0
14255,-42,-8222,1040,-55,42,8,9742,-3,0,-1,0,37342,286,26,79,0,0,0,0,0,0,0,0,-32317,0,0,0,3964,0,18076,0
14265,-24,-8212,1050,-50,38,15,9743,0,0,-2,0,37342,289,26,79,0,0,0,0,0,0,0,0,-32317,0,0,0,3964,0,18096,0
14275,-60,-8278,1046,-60,42,12,9744,7,1,0,0,37339,286,26,79,0,0,0,0,0,0,0,0,-32317,0,0,0,3964,0,18116,0
14285,-40,-8232,1032,-51,42,15,9743,2,2,-1,0,37338,285,26,79,0,0,0,0,0,0,0,0,-32317,0,0,0,3964,0,18136,0
14295,-34,-8210,1052,-47,43,17,9744,1,0,-1,0,37342,284,26,79,0,0,0,0,0,0,0,0,-32317,0,0,0,3964,0,18156,0
14305,-52,-8226,1064,-54,41,23,9744,6,2,-1,0,37345,294,26,79,0,0,0,0,0,0,0,0,-32317,0,0,0,3964,0,18176,0
14315,-48,-8218,1030,-51,39,15,9742,-7,-4,0,0,37343,298,26,79,0,0,0,0,0,0,0,0,-32317,0,0,0,3964,0,18196,0
14325,-52,-8188,1022,-56,40,18,9743,0,-1,0,0,37338,299,26,79,0,0,0,0,0,0,0,0,-32317,0,0,0,3964,0,18216,0
14335,-90,-8234,1006,-52,39,17,9744,-1,0,0,0,37336,297,26,79,0,0,0,0,0,0,0,0,-32317,0,0,0,3964,0,18236,0
14345,-68,-8218,1026,-54,40,17,9743,2,3,1,0,37339,299,26,79,0,0,0,0,0,0,0,0,-32316,0,0,0,3963,0,18256,0
14355,-92,-8226,1028,-52,40,14,9742,-4,-3,-1,0,37340,297,26,79,0,0,0,0,0,0,0,0,-32316,0,0,0,3964,0,18276,0
14365,-74,-8212,1036,-51,46,14,9744,5,-5,0,0,37338,291,26,79,0,0,0,0,0,0,0,0,-32317,0,0,0,3964,0,18296,0
14375,-58,-8236,1070,-53,38,16,9743,-1,1,0,0,37335,291,26,79,0,0,0,0,0,0,0,0,-32316,0,0,0,3964,0,18317,0
14385,-72,-8198,1072,-54,44,15,9743,0,-2,1,0,37335,290,26,79,0,0,0,0,0,0,0,0,-32316,0,0,0,3965,0,18336,0
14395,-68,-8214,1046,-57,41,15,9743,-7,-7,0,0,37337,292,26,79,0,0,0,0,0,0,0,0,-32316,0,0,0,3964,0,18356,0
14405,-68,-8224,1028,-57,45,18,9743,6,0,-1,0,37338,287,26,79,0,0,0,0,0,0,0,0,-32317,0,0,0,3964,0,18376,0
14415,-8,-8204,1048,-52,41,15,9743,1,-1,-1,0,37342,289,25,79,0,0,0,0,0,0,0,0,-32317,0,0,0,3964,0,18396,0
14425,-46,-8218,1042,-48,41,20,9743,-4,-2,0,0,37342,291,26,79,0,0,0,0,0,0,0,0,-32317,0,0,0,3966,0,18417,0
14435,-34,-8234,1030,-51,38,26,9743,-4,-2,0,0,37339,293,26,79,0,0,0,0,0,0,0,0,-32316,0,0,0,3964,0,18437,0
14445,-60,-8226,1054,-57,39,25,9744,7,-6,0,0,37335,293,26,79,0,0,0,0,0,0,0,0,-32317,0,0,0,3964,0,18457,0
14455,-50,-8242,1028,-51,45,24,9743,-1,3,0,0,37334,288,26,79,0,0,0,0,0,0,0,0,-32317,0,0,0,3964,0,18477,0
14465,-76,-8220,1054,-50,40,21,9744,2,3,0,0,37335,286,26,79,0,0,0,0,0,0,0,0,-32316,0,0,0,3964,0,18496,0
14475,-100,-8220,1030,-53,37,20,9743,-3,1,0,0,37335,281,26,79,0,0,0,0,0,0,0,0,-32317,0,0,0,3964,0,18517,0
14485,-104,-8200,1018,-54,41,16,9743,-6,1,0,0,37336,283,26,79,0,0,0,0,0,0,0,0,-32316,0,0,0,3964,0,18537,0
14495,-94,-8240,1028,-46,46,4,9743,-5,2,1,0,37338,289,26,79,0,0,0,0,0,0,0,0,-32317,0,0,0,3964,0,18556,0
14505,-80,-8196,1034,-46,38,5,9743,2,-1,-2,0,37339,291,26,79,0,0,0,0,0,0,0,0,-32317,0,0,0,3964,0,18576,0
14515,-46,-8206,1028,-45,41,5,9744,3,5,0,0,37337,300,26,79,0,0,0,0,0,0,0,0,-32317,0,0,0,3964,0,18596,0
14525,-36,-8236,1054,-43,41,13,9743,1,3,-1,0,37341,305,26,79,0,0,0,0,0,0,0,0,-32316,0,0,0,3964,0,18617,0
14535,-32,-8234,1052,-45,39,14,9743,-7,-2,0,0,37344,300,26,79,0,0,0,0,0,0,0,0,-32316,0,0,0,3964,0,18643,0
14545,-44,-8222,1048,-49,37,16,9743,3,1,0,0,37347,294,26,79,0,0,0,0,0,0,0,0,-32317,0,0,0,3964,0,18663,0
14555,-40,-8230,1058,-47,40,13,9743,-4,-2,-1,0,37341,281,26,79,0,0,0,0,0,0,0,0,-32316,0,0,0,3964,0,18683,0
14565,-64,-8226,1094,-52,40,14,9744,5,5,-1,0,37341,281,26,79,0,0,0,0,0,0,0,0,-32317,0,0,0,3964,0,18703,0
14575,-58,-8200,1056,-48,43,12,9743,4,-1,0,0,37349,281,26,79,0,0,0,0,0,0,0,0,-32317,0,0,0,3964,0,18723,0
14585,-90,-8218,1042,-51,42,11,9744,1,6,0,0,37355,281,26,79,0,0,0,0,0,0,0,0,-32316,0,0,0,3965,0,18743,0
14595,-56,-8244,1022,-48,48,11,9744,-1,-3,0,0,37357,280,26,79,0,0,0,0,0,0,0,0,-32317,0,0,0,3964,0,18763,0
14605,-62,-8224,1014,-51,46,10,9744,0,1,0,0,37349,286,26,79,0,0,0,0,0,0,0,0,-32317,0,0,0,3964,0,18783,0
14615,-68,-8246,1024,-51,39,11,9744,-1,1,0,0,37344,282,26,79,0,0,0,0,0,0,0,0,-32317,0,0,0,3964,0,18803,0
14625,-44,-8226,1056,-45,44,11,9744,-3,1,-1,0,37351,284,26,79,0,0,0,0,0,0,0,0,-32317,0,0,0,3964,0,18823,0
14635,-50,-8228,1040,-48,39,12,9743,2,1,0,0,37351,288,26,79,0,0,0,0,0,0,0,0,-32317,0,0,0,3964,0,18843,0
14645,-32,-8248,1088,-49,42,15,9742,-12,-1,0,0,37350,296,26,79,0,0,0,0,0,0,0,0,-32317,0,0,0,3964,0,18863,0
14655,-26,-8234,1062,-54,41,15,9744,6,-1,-1,0,37350,300,26,79,0,0,0,0,0,0,0,0,-32317,0,0,0,3964,0,18883,0
14665,-74,-8204,1050,-57,40,19,9743,4,2,0,0,37347,307,26,79,0,0,0,0,0,0,0,0,-32317,0,0,0,3963,0,18903,0
14675,-44,-8216,1034,-58,40,21,9744,0,4,0,0,37346,305,26,79,0,0,0,0,0,0,0,0,-32316,0,0,0,3964,0,18923,0
14685,-50,-8248,1024,-56,45,14,9742,-6,-2,-2,0,37344,299,26,79,0,0,0,0,0,0,0,0,-32317,0,0,0,3964,0,18943,0
14695,-70,-8202,1036,-58,45,18,9743,2,3,0,0,37340,292,26,79,0,0,0,0,0,0,0,0,-32317,0,0,0,3963,0,18963,0
14705,-36,-8248,1042,-53,40,10,9743,-4,-1,-1,0,37340,294,26,79,0,0,0,0,0,0,0,0,-32316,0,0,0,3964,0,18983,0
14715,-42,-8216,1016,-50,36,17,9744,-2,-3,0,0,37341,298,26,79,0,0,0,0,0,0,0,0,-32317,0,0,0,3964,0,19003,0
14725,-64,-8214,1016,-48,39,15,9744,2,5,1,0,37339,293,26,79,0,0,0,0,0,0,0,0,-32317,0,0,0,3964,0,19024,0
14735,-60,-8238,1016,-48,38,20,9742,-7,2,0,0,37342,283,26,79,0,0,0,0,0,0,0,0,-32317,0,0,0,3964,0,19044,0
14745,-76,-8240,1036,-42,37,12,9743,1,3,0,0,37346,288,26,79,0,0,0,0,0,0,0,0,-32317,0,0,0,3964,0,19064,0
14755,-68,-8206,1056,-41,38,11,9744,2,-1,0,0,37350,296,26,79,0,0,0,0,0,0,0,0,-32316,0,0,0,3963,0,19084,0
14765,-84,-8228,1074,-44,40,5,9744,9,5,0,0,37345,302,26,79,0,0,0,0,0,0,0,0,-32316,0,0,0,3963,0,19104,0
14775,-88,-8238,1080,-53,45,9,9744,6,1,0,0,37343,294,26,79,0,0,0,0,0,0,0,0,-32317,0,0,0,3963,0,19124,0
14785,-48,-8208,1062,-53,43,7,9743,1,2,0,0,37344,287,26,79,0,0,0,0,0,0,0,0,-32317,0,0,0,3963,0,19144,0
14795,-38,-8250,1030,-55,47,9,9744,7,-2,0,0,37347,288,26,79,0,0,0,0,0,0,0,0,-32317,0,0,0,3964,0,19164,0
14805,-30,-8216,1024,-48,37,7,9743,0,2,-1,0,37348,294,26,79,0,0,0,0,0,0,0,0,-32317,0,0,0,3964,0,19184,0
14815,-50,-8218,1026,-47,40,12,9743,0,3,0,0,37346,297,26,79,0,0,0,0,0,0,0,0,-32317,0,0,0,3964,0,19204,0
14825,-98,-8228,1030,-46,41,3,9742,-3,-3,0,0,37344,296,26,79,0,0,0,0,0,0,0,0,-32317,0,0,0,3964,0,19224,0
14835,-88,-8238,1020,-43,40,-2,9744,0,2,0,0,37354,295,26,79,0,0,0,0,0,0,0,0,-32317,0,0,0,3963,0,19244,0
14845,-56,-8194,1038,-40,35,-7,9744,5,2,0,0,37355,292,26,79,0,0,0,0,0,0,0,0,-32317,0,0,0,3963,0,19264,0
14855,-68,-8244,1040,-42,41,-10,9744,5,2,0,0,37355,290,26,79,0,0,0,0,0,0,0,0,-32317,0,0,0,3963,0,19284,0
14865,-56,-8214,1076,-43,45,-13,9744,5,-2,0,0,37349,290,26,79,0,0,0,0,0,0,0,0,-32317,0,0,0,3963,0,19304,0
14875,-50,-8208,1080,-47,36,-14,9743,-2,0,0,0,37345,288,26,79,0,0,0,0,0,0,0,0,-32316,0,0,0,3961,0,19324,0
14885,-10,-8212,1050,-49,50,-11,9743,5,2,-1,0,37347,286,26,79,0,0,0,0,0,0,0,0,-32317,0,0,0,3961,0,19344,0
14895,-12,-8228,1048,-49,56,-4,9742,0,2,0,0,37350,292,26,79,0,0,0,0,0,0,0,0,-32317,0,0,0,3960,0,19364,0
14905,-2,-8202,1036,-47,51,-1,9743,5,3,0,0,37351,295,26,79,0,0,0,0,0,0,0,0,-32316,0,0,0,3960,0,19384,0
14915,-10,-8236,1034,-53,41,2,9743,2,1,0,0,37350,295,26,79,0,0,0,0,0,0,0,0,-32317,0,0,0,3961,0,19404,0
14925,-12,-8244,1042,-48,39,11,9743,7,-4,-1,0,37351,293,26,79,0,0,0,0,0,0,0,0,-32317,0,0,0,3960,0,19424,0
14935,-34,-8232,1058,-51,36,17,9743,2,4,-1,0,37351,289,26,79,0,0,0,0,0,0,0,0,-32317,0,0,0,3960,0,19444,0
14945,-44,-8226,1052,-52,40,17,9743,-3,-2,0,0,37355,293,26,79,0,0,0,0,0,0,0,0,-32317,0,0,0,3961,0,19464,0
14955,-66,-8218,1036,-54,42,16,9743,1,1,-2,0,37353,294,26,79,0,0,0,0,0,0,0,0,-32316,0,0,0,3960,0,19484,0
14965,-52,-8220,1026,-53,45,8,9744,7,3,0,0,37351,298,26,79,0,0,0,0,0,0,0,0,-32317,0,0,0,3960,0,19504,0
14975,-48,-8218,1018,-49,45,10,9744,2,3,-1,0,37349,297,26,79,0,0,0,0,0,0,0,0,-32316,0,0,0,3960,0,19524,0
14985,-54,-8250,1072,-54,44,4,9743,0,-1,-1,0,37349,296,26,79,0,0,0,0,0,0,0,0,-32317,0,0,0,3959,0,19544,0
14995,-2,-8210,1046,-58,39,10,9744,0,1,0,0,37348,289,26,79,0,0,0,0,0,0,0,0,-32317,0,0,0,3959,0,19564,0
15005,-4,-8222,1046,-56,40,15,9744,1,2,-2,0,37347,290,26,79,0,0,0,0,0,0,0,0,-32317,0,0,0,3960,0,19584,0
15015,-18,-8246,1070,-54,41,24,9743,-3,-2,0,0,37347,293,26,79,0,0,0,0,0,0,0,0,-32317,0,0,0,3960,0,19604,0
15025,-12,-8216,1056,-58,40,24,9744,1,2,-1,0,37347,292,26,79,0,0,0,0,0,0,0,0,-32317,0,0,0,3959,0,19624,0
15035,132,-8240,1116,-56,25,61,9696,-210,-107,-869,-872,37346,289,26,79,0,0,0,0,0,0,0,0,-32317,0,0,0,3960,0,19644,0
15045,-220,-8228,1116,-60,15,52,9481,-578,-458,-957,-1776,37344,303,26,79,0,0,0,0,0,0,0,0,-32316,0,0,0,3961,0,19664,0
15055,-70,-8212,1068,-72,29,40,9091,-973,-664,-1049,-2632,37338,316,26,79,0,0,0,0,0,0,0,0,-32317,0,0,0,3962,0,19684,0
15065,-182,-8198,1050,-84,60,29,8532,-1335,-661,-1053,-3400,37327,340,26,79,0,0,0,0,0,0,0,0,-32316,0,0,0,3963,0,19704,0
15075,-48,-8226,1092,-78,79,14,7832,-1613,-583,-1015,-4072,37314,366,26,79,0,0,0,0,0,0,0,0,-32316,0,0,0,3963,0,19725,0
15085,-12,-8234,1056,-62,86,8,7033,-1800,-443,-963,-4744,37303,397,26,79,0,0,0,0,0,0,0,0,-32317,0,0,0,3961,0,19745,0
15095,38,-8206,1076,-53,70,9,6171,-1927,-293,-953,-5328,37291,417,26,79,0,0,0,0,0,0,0,0,-32317,0,0,0,3961,0,19764,0
15105,-12,-8280,984,-38,63,21,5251,-2079,-230,-996,-5688,37282,424,26,79,0,0,0,0,0,0,0,0,-32317,0,0,0,3962,0,19784,0
15115,2,-8244,1120,-3,53,11,4242,-2268,-296,-1065,-5904,37273,439,26,79,0,0,0,0,0,0,0,0,-32318,0,0,0,3961,0,19804,0
15125,-44,-8228,996,-1,26,19,3155,-2438,-313,-1031,-6160,37265,450,26,79,0,0,0,0,0,0,0,0,-32316,0,0,0,3962,0,19825,0
15135,62,-8250,1018,1,4,31,1956,-2732,-376,-1052,-6632,37256,472,26,79,0,0,0,0,0,0,0,0,-32317,0,0,0,3961,0,19845,0
15145,16,-8218,1046,6,-27,32,612,-3043,-513,-1119,-6680,37248,486,26,79,0,0,0,0,0,0,0,0,-32316,0,0,0,3962,0,19865,0
15155,-54,-8222,1024,-68,36,26,-800,-3083,-388,-975,-6896,37239,502,26,79,0,0,0,0,0,0,0,0,-32316,0,0,0,3963,0,19885,0
15165,-122,-8216,1024,-68,25,18,-2117,-2820,109,-755,-7520,37235,500,26,79,0,0,0,0,0,0,0,0,-32317,0,0,0,3962,0,19905,0
15175,4,-8242,1014,-83,36,11,-3399,-2839,254,-975,-7568,37230,490,26,79,0,0,0,0,0,0,0,0,-32316,0,0,0,3963,0,19925,0
15185,36,-8220,1000,-97,42,9,-4725,-2949,-47,-1109,-7592,37227,484,26,79,0,0,0,0,0,0,0,0,-32317,0,0,0,3962,0,19945,0
15195,64,-8280,984,-111,56,27,-6142,-3218,-275,-1025,-7952,37224,488,26,79,0,0,0,0,0,0,0,0,-32317,0,0,0,3963,0,19965,0
15205,-6,-8274,944,-110,70,28,-7741,-3640,-556,-1138,-8408,37216,502,26,79,0,0,0,0,0,0,0,0,-32317,0,0,0,3963,0,19985,0
15215,-148,-8200,1078,-68,79,28,-9422,-3659,-493,-890,-8880,37204,525,26,79,0,0,0,0,0,0,0,0,-32317,0,0,0,3963,0,20005,0
15225,34,-8164,992,-35,115,-38,-11014,-3483,247,-833,-9384,37196,538,26,79,0,0,0,0,0,0,0,0,-32317,0,0,0,3962,0,20025,0
15235,-15276,-2874,4716,85,2012,-3761,-12464,-2915,228,-1375,-6120,37191,549,26,79,0,0,0,0,0,0,0,0,-32317,0,0,0,3881,-11,20045,0
15245,-11144,-7740,3104,-155,1102,-2281,-13129,-773,1751,-1079,-256,37189,550,26,79,0,0,0,0,0,0,0,0,-32316,0,0,0,3815,-4,20065,0
15255,11334,-7714,-762,-128,871,-332,-12834,1071,3435,-669,1256,37215,487,26,79,0,0,0,0,0,0,0,0,-32316,0,0,0,3831,3,20085,0
15265,16658,-8462,-1218,97,-1603,1771,-12269,1184,2393,-805,544,37251,407,26,79,0,0,0,0,0,0,0,0,-32316,0,0,0,3880,5,20105,0
15275,3750,-7902,1572,107,-1362,1865,-11945,477,2,-1313,-112,37297,299,26,79,0,0,0,0,0,0,0,0,-32317,0,0,0,3912,2,20125,0
15285,-7542,-7854,-98,601,-2266,760,-11884,66,-1018,-1032,-232,37315,258,26,79,0,0,0,0,0,0,0,0,-32317,0,0,0,3942,3,20145,0
15295,-10558,-5500,3362,-266,734,164,-11856,51,-568,-996,-232,37321,269,26,79,0,0,0,0,0,0,0,0,-32317,0,0,0,3949,0,20165,0
15305,-1186,-6148,1274,-428,1736,-450,-11847,-18,-82,-974,-352,37321,292,26,79,0,0,0,0,0,0,0,0,-32317,0,0,0,3939,-2,20185,0
15315,-508,-8450,2552,-560,1905,-657,-11898,-142,-155,-957,-560,37322,302,26,79,0,0,0,0,0,0,0,0,-32317,0,0,0,3916,-1,20205,0
15325,3556,-5472,-50,-119,-313,-218,-11978,-179,-174,-1005,-560,37322,296,26,79,0,0,0,0,0,0,0,0,-32317,0,0,0,3910,0,20225,0
15335,844,-7534,1576,48,-248,33,-12038,-81,-14,-1031,-368,37319,308,26,79,0,0,0,0,0,0,0,0,-32317,0,0,0,3905,0,20245,0
15345,-1738,-8342,2416,-40,6,74,-12030,45,182,-1015,-232,37321,318,26,79,0,0,0,0,0,0,0,0,-32317,0,0,0,3906,0,20265,0
15355,-1068,-7786,1834,-141,43,-39,-12010,24,151,-987,-312,37326,311,26,79,0,0,0,0,0,0,0,0,-32317,0,0,0,3907,0,20285,0
15365,370,-8316,414,-198,89,-142,-12021,-32,-46,-994,-360,37326,299,26,79,0,0,0,0,0,0,0,0,-32317,0,0,0,3906,0,20305,0
15375,1194,-8106,-144,-107,38,-71,-12036,-32,-62,-1000,-328,37327,301,26,79,0,0,0,0,0,0,0,0,-32317,0,0,0,3904,0,20325,0
15385,628,-8022,174,36,-20,81,-12040,1,21,-1004,-296,37325,302,26,79,0,0,0,0,0,0,0,0,-32317,0,0,0,3905,0,20345,0
15395,-244,-8334,1008,60,4,91,-12038,15,36,-996,-288,37325,303,26,79,0,0,0,0,0,0,0,0,-32317,0,0,0,3905,0,20365,0
15405,-522,-8214,1908,3,68,-2,-12037,-1,10,-996,-304,37324,297,26,79,0,0,0,0,0,0,0,0,-32317,0,0,0,3905,0,20385,0
15415,-212,-8136,1918,-57,78,-23,-12039,-4,-4,-1001,-304,37323,297,26,79,0,0,0,0,0,0,0,0,-32317,0,0,0,3906,0,20405,0
15425,462,-8310,1108,-118,41,8,-12038,0,-4,-997,-296,37322,291,26,79,0,0,0,0,0,0,0,0,-32317,0,0,0,3905,0,20425,0
15435,416,-8196,840,-99,16,26,-12038,3,-2,-998,-296,37323,292,26,79,0,0,0,0,0,0,0,0,-32317,0,0,0,3904,0,20445,0
15445,-226,-8148,694,-71,15,33,-12038,-1,-3,-998,-296,37324,297,26,79,0,0,0,0,0,0,0,0,-32317,0,0,0,3905,0,20465,0
15455,-424,-8296,744,-56,27,9,-12038,-1,-5,-1000,-304,37331,295,26,79,0,0,0,0,0,0,0,0,-32317,0,0,0,3904,0,20485,0
15465,-136,-8308,842,-32,55,-37,-12039,-2,0,-1000,-296,37332,294,26,79,0,0,0,0,0,0,0,0,-32317,0,0,0,3905,0,20505,0
15475,322,-8200,902,-19,55,-27,-12042,0,0,-996,-312,37332,291,26,79,0,0,0,0,0,0,0,0,-32317,0,0,0,3905,0,20525,0
15485,224,-8170,1162,-24,30,12,-12043,-3,-10,-999,-304,37327,298,26,79,0,0,0,0,0,0,0,0,-32317,0,0,0,3904,0,20545,0
15495,128,-8320,1244,-38,30,7,-12041,3,0,-1000,-296,37330,294,26,79,0,0,0,0,0,0,0,0,-32317,0,0,0,3905,0,20565,0
15505,62,-8234,1328,-73,35,13,-12044,-6,-3,-997,-288,37330,297,26,79,0,0,0,0,0,0,0,0,-32317,0,0,0,3904,0,20585,0
15515,74,-8172,1166,-80,42,20,-12045,-1,-3,-999,-304,37330,291,26,79,0,0,0,0,0,0,0,0,-32317,0,0,0,3905,0,20605,0
15525,194,-8236,974,-73,39,20,-12044,1,0,-999,-304,37330,297,26,79,0,0,0,0,0,0,0,0,-32317,0,0,0,3904,0,20625,0
15535,168,-8290,908,-66,47,27,-12047,-2,5,-999,-288,37332,299,26,79,0,0,0,0,0,0,0,0,-32317,0,0,0,3904,0,20645,0
15545,-20,-8192,962,-57,43,42,-12047,-6,2,-996,-296,37332,298,26,79,0,0,0,0,0,0,0,0,-32316,0,0,0,3904,0,20665,0
15555,-58,-8264,1030,-52,43,27,-12045,-4,3,-1004,-304,37338,296,26,79,0,0,0,0,0,0,0,0,-32316,0,0,0,3905,0,20685,0
15565,40,-8316,1060,-57,44,15,-12045,0,-3,-998,-288,37337,294,26,79,0,0,0,0,0,0,0,0,-32317,0,0,0,3904,0,20705,0
15575,76,-8146,1084,-66,40,23,-12045,-1,1,-998,-296,37339,297,26,79,0,0,0,0,0,0,0,0,-32317,0,0,0,3904,0,20725,0
15585,46,-8246,978,-55,41,24,-12044,5,1,-995,-288,37335,298,26,79,0,0,0,0,0,0,0,0,-32317,0,0,0,3904,0,20745,0
15595,46,-8276,958,-58,40,11,-12045,1,-3,-996,-296,37336,297,26,79,0,0,0,0,0,0,0,0,-32317,0,0,0,3904,0,20765,0
15605,40,-8184,996,-49,48,31,-12045,-4,-2,-997,-288,37333,300,26,79,0,0,0,0,0,0,0,0,-32317,0,0,0,3904,0,20785,0
15615,46,-8258,998,-56,39,25,-12046,0,8,-1000,-296,37334,301,26,79,0,0,0,0,0,0,0,0,-32316,0,0,0,3905,0,20805,0
15625,96,-8290,1058,-54,42,19,-12044,0,-4,-994,-288,37336,289,26,79,0,0,0,0,0,0,0,0,-32317,0,0,0,3905,0,20825,0
15635,62,-8184,1056,-55,42,20,-12044,3,0,-999,-288,37338,287,26,79,0,0,0,0,0,0,0,0,-32317,0,0,0,3904,0,20845,0
15645,-42,-8226,1056,-56,40,25,-12045,-1,5,-997,-304,37338,292,26,79,0,0,0,0,0,0,0,0,-32317,0,0,0,3904,0,20866,0
15655,14,-8278,1062,-61,35,15,-12044,-2,-3,-998,-288,37337,301,26,79,0,0,0,0,0,0,0,0,-32317,0,0,0,3904,0,20886,0
15665,48,-8188,1046,-58,42,12,-12046,-8,2,-998,-296,37335,300,26,79,0,0,0,0,0,0,0,0,-32317,0,0,0,3904,0,20906,0
15675,30,-8190,988,-54,38,22,-12044,0,-2,-997,-304,37336,300,26,79,0,0,0,0,0,0,0,0,-32317,0,0,0,3904,0,20926,0
15685,52,-8296,986,-52,43,17,-12045,1,5,-999,-288,37337,298,26,79,0,0,0,0,0,0,0,0,-32317,0,0,0,3904,0,20946,0
15695,154,-8202,1066,-48,52,15,-12044,4,-1,-1001,-296,37336,291,26,79,0,0,0,0,0,0,0,0,-32317,0,0,0,3904,0,20966,0
15705,108,-8192,1000,-56,45,31,-12045,2,5,-1001,-304,37336,299,26,79,0,0,0,0,0,0,0,0,-32317,0,0,0,3904,0,20986,0
15715,68,-8272,1012,-50,44,30,-12045,4,1,-1001,-296,37338,299,26,79,0,0,0,0,0,0,0,0,-32317,0,0,0,3904,0,21006,0
15725,92,-8240,984,-49,41,22,-12044,0,-1,-997,-304,37337,291,26,79,0,0,0,0,0,0,0,0,-32317,0,0,0,3904,0,21026,0
15735,-12,-8230,1002,-49,43,29,-12044,0,-2,-999,-296,37337,292,26,79,0,0,0,0,0,0,0,0,-32316,0,0,0,3905,0,21047,0
15745,-56,-8276,1010,-49,42,17,-12043,1,2,-998,-304,37337,296,26,79,0,0,0,0,0,0,0,0,-32317,0,0,0,3904,0,21067,0
15755,20,-8270,1000,-50,43,11,-12042,9,-1,-998,-304,37343,304,26,79,0,0,0,0,0,0,0,0,-32317,0,0,0,3905,0,21087,0
15765,2,-8182,1020,-45,45,18,-12043,5,-4,-1003,-304,37348,302,26,79,0,0,0,0,0,0,0,0,-32317,0,0,0,3904,0,21107,0
15775,52,-8210,992,-48,41,20,-12044,-4,3,-999,-288,37347,300,26,79,0,0,0,0,0,0,0,0,-32317,0,0,0,3904,0,21127,0
15785,74,-8232,1066,-48,38,11,-12044,-5,6,-997,-304,37345,300,26,79,0,0,0,0,0,0,0,0,-32317,0,0,0,3904,0,21147,0
15795,54,-8184,1024,-49,39,18,-12044,0,0,-1001,-304,37340,301,26,79,0,0,0,0,0,0,0,0,-32317,0,0,0,3904,0,21167,0
15805,14,-8226,994,-46,43,17,-12043,1,-4,-1001,-304,37341,296,26,79,0,0,0,0,0,0,0,0,-32316,0,0,0,3904,0,21187,0
15815,22,-8258,1000,-43,36,5,-12043,0,0,-1000,-296,37341,294,26,79,0,0,0,0,0,0,0,0,-32317,0,0,0,3904,0,21207,0
15825,48,-8214,1046,-46,41,18,-12044,-1,1,-995,-296,37338,291,26,79,0,0,0,0,0,0,0,0,-32317,0,0,0,3904,0,21227,0
15835,30,-8194,1032,-53,41,14,-12043,-1,2,-995,-288,37340,294,26,79,0,0,0,0,0,0,0,0,-32316,0,0,0,3905,0,21247,0
15845,62,-8248,1046,-49,40,4,-12043,1,0,-1000,-296,37341,292,26,79,0,0,0,0,0,0,0,0,-32317,0,0,0,3905,0,21267,0
15855,80,-8190,1018,-47,42,12,-12044,2,2,-1001,-304,37351,298,26,79,0,0,0,0,0,0,0,0,-32317,0,0,0,3904,0,21287,0
15865,20,-8224,1006,-45,36,15,-12044,-4,-3,-1001,-296,37361,297,26,79,0,0,0,0,0,0,0,0,-32316,0,0,0,3904,0,21307,0
15875,84,-8246,1008,-46,39,15,-12045,-7,4,-997,-296,37376,299,26,79,0,0,0,0,0,0,0,0,-32317,0,0,0,3904,0,21327,0
15885,88,-8226,1000,-41,37,15,-12044,1,4,-998,-296,37369,293,26,79,0,0,0,0,0,0,0,0,-32317,0,0,0,3904,0,21347,0
15895,54,-8180,1024,-45,37,19,-12044,0,0,-998,-280,37360,292,26,79,0,0,0,0,0,0,0,0,-32317,0,0,0,3904,0,21367,0
15905,38,-8264,1056,-41,43,14,-12044,5,-1,-1000,-296,37349,298,26,79,0,0,0,0,0,0,0,0,-32317,0,0,0,3904,0,21387,0
15915,52,-8226,1070,-47,38,17,-12044,5,0,-998,-296,37344,301,26,79,0,0,0,0,0,0,0,0,-32317,0,0,0,3904,0,21407,0
15925,34,-8232,1032,-53,40,21,-12043,0,2,-996,-296,37343,300,26,79,0,0,0,0,0,0,0,0,-32317,0,0,0,3904,0,21428,0
15935,54,-8238,1064,-52,41,17,-12044,5,-1,-999,-304,37344,295,26,79,0,0,0,0,0,0,0,0,-32317,0,0,0,3904,0,21448,0
15945,18,-8240,1054,-52,45,12,-12043,6,3,-999,-296,37344,295,26,79,0,0,0,0,0,0,0,0,-32317,0,0,0,3905,0,21468,0
15955,74,-8212,1034,-52,44,19,-12044,1,-3,-999,-288,37345,294,26,79,0,0,0,0,0,0,0,0,-32317,0,0,0,3904,0,21488,0
15965,56,-8236,1018,-49,39,14,-12044,-2,2,-998,-288,37343,293,26,79,0,0,0,0,0,0,0,0,-32317,0,0,0,3904,0,21508,0
15975,84,-8242,998,-50,41,15,-12042,7,2,-998,-296,37350,304,26,79,0,0,0,0,0,0,0,0,-32317,0,0,0,3904,0,21528,0
15985,66,-8206,1028,-45,39,21,-12044,0,-2,-998,-296,37351,303,26,79,0,0,0,0,0,0,0,0,-32317,0,0,0,3904,0,21548,0
15995,30,-8242,1034,-52,37,23,-12044,0,-1,-996,-288,37355,298,26,79,0,0,0,0,0,0,0,0,-32318,0,0,0,3905,0,21568,0
16005,80,-8202,1044,-51,45,16,-12043,-3,0,-999,-296,37348,286,26,79,0,0,0,0,0,0,0,0,-32317,0,0,0,3905,0,21588,0
16015,36,-8228,1046,-53,46,17,-12045,-9,-15,-996,-288,37350,289,26,79,0,0,0,0,0,0,0,0,-32317,0,0,0,3904,0,21608,0
16025,14,-8226,1058,-48,41,24,-12044,-7,0,-998,-304,37347,294,26,79,0,0,0,0,0,0,0,0,-32317,0,0,0,3904,0,21628,0
16035,44,-8250,1048,-51,44,22,-12043,-1,1,-995,-296,37346,300,26,79,0,0,0,0,0,0,0,0,-32316,0,0,0,3904,0,21648,0
16045,22,-8222,1034,-57,43,18,-12044,0,-2,-996,-296,37345,307,26,79,0,0,0,0,0,0,0,0,-32317,0,0,0,3905,0,21668,0
16055,38,-8212,1022,-57,45,23,-12043,1,1,-1002,-288,37344,311,26,79,0,0,0,0,0,0,0,0,-32317,0,0,0,3904,0,21688,0
16065,40,-8216,1006,-51,46,19,-12042,8,-1,-1001,-304,37344,302,26,79,0,0,0,0,0,0,0,0,-32317,0,0,0,3904,0,21708,0
16075,70,-8226,1040,-55,48,25,-12043,-7,-4,-997,-288,37344,301,26,79,0,0,0,0,0,0,0,0,-32317,0,0,0,3904,0,21728,0
16085,48,-8228,1028,-49,42,19,-12041,8,0,-995,-304,37343,305,26,79,0,0,0,0,0,0,0,0,-32317,0,0,0,3904,0,21748,0
16095,44,-8264,994,-54,48,19,-12041,0,1,-1001,-296,37336,306,26,79,0,0,0,0,0,0,0,0,-32317,0,0,0,3904,0,21768,0
16105,40,-8192,1038,-51,43,17,-12043,-6,-7,-1000,-304,37335,301,26,79,0,0,0,0,0,0,0,0,-32317,0,0,0,3905,0,21788,0
16115,26,-8248,1012,-49,37,21,-12041,6,3,-999,-288,37336,295,26,79,0,0,0,0,0,0,0,0,-32317,0,0,0,3904,0,21808,0
16125,-24,-8222,1016,-48,39,17,-12041,4,4,-996,-304,37339,292,26,79,0,0,0,0,0,0,0,0,-32317,0,0,0,3904,0,21828,0
16135,36,-8236,1042,-53,39,12,-12041,1,4,-994,-304,37339,288,26,79,0,0,0,0,0,0,0,0,-32317,0,0,0,3905,0,21848,0
16145,18,-8218,1014,-44,38,18,-12043,-11,-3,-997,-296,37336,291,26,79,0,0,0,0,0,0,0,0,-32317,0,0,0,3904,0,21868,0
16155,76,-8240,1040,-55,46,12,-12041,7,-2,-1001,-296,37335,290,26,79,0,0,0,0,0,0,0,0,-32317,0,0,0,3905,0,21888,0
16165,82,-8196,1042,-53,38,16,-12042,-1,2,-1001,-312,37336,292,26,79,0,0,0,0,0,0,0,0,-32317,0,0,0,3906,0,21908,0
16175,90,-8214,1026,-51,45,12,-12042,5,-2,-995,-288,37339,284,26,79,0,0,0,0,0,0,0,0,-32317,0,0,0,3905,0,21928,0
16185,44,-8226,1002,-55,39,12,-12041,1,5,-995,-288,37337,290,26,79,0,0,0,0,0,0,0,0,-32317,0,0,0,3905,0,21948,0
16195,22,-8212,1024,-49,42,10,-12043,-2,-2,-997,-288,37337,293,26,79,0,0,0,0,0,0,0,0,-32317,0,0,0,3904,0,21968,0
16205,54,-8234,1038,-51,41,11,-12042,6,5,-1000,-288,37338,297,26,79,0,0,0,0,0,0,0,0,-32317,0,0,0,3904,0,21988,0
16215,12,-8236,998,-52,37,12,-12042,-7,4,-999,-296,37336,293,26,79,0,0,0,0,0,0,0,0,-32317,0,0,0,3905,0,22008,0
16225,-4,-8234,1020,-47,37,11,-12041,8,2,-995,-304,37337,297,26,79,0,0,0,0,0,0,0,0,-32317,0,0,0,3904,0,22028,0
16235,76,-8216,1008,-47,39,10,-12043,-2,-2,-995,-288,37336,299,26,79,0,0,0,0,0,0,0,0,-32317,0,0,0,3905,0,22048,0
16245,8,-8202,1032,-49,36,13,-12042,0,2,-1003,-304,37334,306,26,79,0,0,0,0,0,0,0,0,-32317,0,0,0,3905,0,22068,0
16255,30,-8252,1030,-52,33,9,-12042,0,-5,-1000,-296,37336,302,26,79,0,0,0,0,0,0,0,0,-32317,0,0,0,3904,0,22088,0
16265,24,-8252,1052,-49,41,11,-12043,1,6,-998,-296,37336,303,26,79,0,0,0,0,0,0,0,0,-32317,0,0,0,3904,0,22108,0
16275,32,-8210,1048,-49,38,11,-12042,-3,1,-997,-296,37335,296,26,79,0,0,0,0,0,0,0,0,-32317,0,0,0,3905,0,22129,0
16285,34,-8228,1056,-45,37,5,-12042,-5,1,-994,-280,37339,299,26,79,0,0,0,0,0,0,0,0,-32317,0,0,0,3904,0,22149,0
16295,14,-8212,1022,-55,39,7,-12043,-4,-3,-998,-296,37338,300,26,79,0,0,0,0,0,0,0,0,-32317,0,0,0,3904,0,22169,0
16305,56,-8198,1012,-52,43,10,-12044,-4,1,-1002,-296,37337,299,26,79,0,0,0,0,0,0,0,0,-32317,0,0,0,3905,0,22189,0
16315,56,-8208,1020,-47,36,9,-12043,-5,-3,-996,-288,37334,300,26,79,0,0,0,0,0,0,0,0,-32317,0,0,0,3904,0,22209,0
16325,18,-8244,1040,-53,40,7,-12043,0,2,-998,-288,37333,295,26,79,0,0,0,0,0,0,0,0,-32317,0,0,0,3904,0,22229,0
16335,122,-8210,1008,-53,40,15,-12042,0,0,-994,-296,37333,293,26,79,0,0,0,0,0,0,0,0,-32317,0,0,0,3904,0,22249,0
16345,62,-8216,1040,-53,38,14,-12042,0,0,-1001,-296,37334,291,26,79,0,0,0,0,0,0,0,0,-32317,0,0,0,3904,0,22269,0
16355,88,-8190,1056,-58,40,13,-12041,10,-2,-1000,-304,37333,292,26,79,0,0,0,0,0,0,0,0,-32317,0,0,0,3905,0,22289,0
16365,56,-8234,1038,-57,37,18,-12042,0,0,-999,-288,37332,296,26,79,0,0,0,0,0,0,0,0,-32317,0,0,0,3904,0,22309,0
16375,26,-8198,1038,-49,45,17,-12042,7,-3,-999,-304,37331,296,26,79,0,0,0,0,0,0,0,0,-32317,0,0,0,3904,0,22329,0
16385,-24,-8234,1030,-51,44,19,-12044,-3,-2,-994,-288,37331,299,26,79,0,0,0,0,0,0,0,0,-32317,0,0,0,3905,0,22349,0
16395,22,-8234,1026,-52,41,18,-12043,0,-3,-998,-296,37332,304,26,79,0,0,0,0,0,0,0,0,-32317,0,0,0,3905,0,22369,0
16405,18,-8222,1034,-54,40,15,-12043,-1,2,-1005,-296,37332,306,26,79,0,0,0,0,0,0,0,0,-32317,0,0,0,3905,0,22389,0
16415,10,-8208,1048,-57,39,14,-12043,-1,7,-998,-296,37330,302,26,79,0,0,0,0,0,0,0,0,-32317,0,0,0,3905,0,22409,0
16425,26,-8222,1012,-55,38,9,-12044,-4,-2,-994,-296,37328,303,26,79,0,0,0,0,0,0,0,0,-32317,0,0,0,3904,0,22429,0
16435,28,-8236,1028,-53,40,16,-12043,0,3,-997,-288,37328,299,26,79,0,0,0,0,0,0,0,0,-32317,0,0,0,3904,0,22449,0
16445,62,-8198,1018,-53,38,5,-12043,-5,0,-1000,-296,37326,297,26,79,0,0,0,0,0,0,0,0,-32317,0,0,0,3905,0,22469,0
16455,90,-8238,1028,-54,39,10,-12042,7,0,-1002,-312,37327,295,26,79,0,0,0,0,0,0,0,0,-32316,0,0,0,3905,0,22489,0
16465,48,-8230,1004,-49,46,16,-12044,3,-7,-1002,-304,37329,292,26,79,0,0,0,0,0,0,0,0,-32317,0,0,0,3904,0,22509,0
16475,112,-8202,1016,-47,38,12,-12044,-3,1,-998,-296,37330,293,26,79,0,0,0,0,0,0,0,0,-32316,0,0,0,3905,0,22529,0
16485,32,-8260,1028,-49,41,19,-12044,-11,0,-994,-296,37332,291,26,79,0,0,0,0,0,0,0,0,-32317,0,0,0,3905,0,22549,0
16495,22,-8220,1042,-47,42,17,-12044,1,0,-999,-288,37336,294,26,79,0,0,0,0,0,0,0,0,-32317,0,0,0,3904,0,22569,0
16505,52,-8248,1038,-46,43,14,-12042,4,1,-1000,-304,37340,294,26,79,0,0,0,0,0,0,0,0,-32317,0,0,0,3905,0,22589,0
16515,40,-8268,1042,-50,36,14,-12043,8,12,-997,-288,37338,292,26,79,0,0,0,0,0,0,0,0,-32317,0,0,0,3905,0,22609,0
16525,46,-8214,1032,-52,33,17,-12044,-3,-2,-996,-296,37337,294,26,79,0,0,0,0,0,0,0,0,-32317,0,0,0,3904,0,22629,0
16535,52,-8218,1046,-54,40,17,-12043,1,-7,-994,-280,37332,295,26,79,0,0,0,0,0,0,0,0,-32317,0,0,0,3905,0,22649,0
16545,8,-8244,1066,-49,35,16,-12043,4,-3,-1002,-304,37335,295,26,79,0,0,0,0,0,0,0,0,-32317,0,0,0,3904,0,22669,0
16555,68,-8194,1034,-49,38,17,-12043,8,3,-998,-304,37336,295,26,79,0,0,0,0,0,0,0,0,-32317,0,0,0,3904,0,22689,0
16565,62,-8208,1026,-52,43,20,-12043,3,-3,-1001,-296,37333,301,26,79,0,0,0,0,0,0,0,0,-32317,0,0,0,3904,0,22709,0
16575,72,-8246,990,-50,39,18,-12044,0,-6,-998,-288,37332,297,26,79,0,0,0,0,0,0,0,0,-32317,0,0,0,3904,0,22729,0
16585,64,-8212,1024,-55,42,19,-12043,3,1,-995,-288,37332,299,26,79,0,0,0,0,0,0,0,0,-32317,0,0,0,3904,0,22749,0
16595,-4,-8214,1024,-47,39,21,-12043,-3,0,-996,-304,37334,293,26,79,0,0,0,0,0,0,0,0,-32317,0,0,0,3904,0,22769,0
16605,50,-8238,1030,-52,41,13,-12043,2,-5,-1000,-312,37335,305,26,79,0,0,0,0,0,0,0,0,-32317,0,0,0,3904,0,22789,0
16615,52,-8242,1042,-51,40,13,-12044,2,-3,-999,-288,37334,305,26,79,0,0,0,0,0,0,0,0,-32317,0,0,0,3904,0,22809,0
16625,-18,-8212,1032,-53,40,16,-12043,0,1,-1001,-288,37335,305,26,79,0,0,0,0,0,0,0,0,-32317,0,0,0,3904,0,22829,0
16635,64,-8216,1042,-49,34,16,-12042,11,0,-996,-288,37335,291,26,79,0,0,0,0,0,0,0,0,-32317,0,0,0,3904,0,22849,0
16645,52,-8240,1042,-54,43,14,-12044,-6,4,-1000,-304,37334,291,26,79,0,0,0,0,0,0,0,0,-32317,0,0,0,3904,0,22869,0
16655,74,-8224,1046,-55,38,16,-12045,-7,2,-1000,-304,37334,296,26,79,0,0,0,0,0,0,0,0,-32317,0,0,0,3904,0,22889,0
16665,60,-8210,1002,-51,32,11,-12044,1,3,-1002,-296,37334,299,26,79,0,0,0,0,0,0,0,0,-32317,0,0,0,3904,0,22909,0
16675,72,-8234,1018,-46,34,14,-12045,-1,0,-996,-288,37337,294,26,79,0,0,0,0,0,0,0,0,-32317,0,0,0,3905,0,22929,0
16685,56,-8220,1020,-50,40,15,-12044,2,5,-993,-288,37338,291,26,79,0,0,0,0,0,0,0,0,-32317,0,0,0,3904,0,22949,0
16695,-16,-8226,1046,-54,43,14,-12043,4,6,-997,-280,37337,289,26,79,0,0,0,0,0,0,0,0,-32317,0,0,0,3905,0,22969,0
16705,38,-8218,1014,-53,41,9,-12043,4,1,-1001,-296,37341,294,26,79,0,0,0,0,0,0,0,0,-32317,0,0,0,3904,0,22989,0
16715,78,-8222,1026,-50,41,15,-12045,-3,-8,-997,-288,37344,304,26,79,0,0,0,0,0,0,0,0,-32317,0,0,0,3903,0,23009,0
16725,64,-8218,976,-45,35,18,-12044,2,1,-996,-296,37347,304,26,79,0,0,0,0,0,0,0,0,-32316,0,0,0,3905,0,23029,0
16735,72,-8246,1004,-46,43,9,-12043,2,-2,-996,-288,37345,308,26,79,0,0,0,0,0,0,0,0,-32317,0,0,0,3904,0,23050,0
16745,12,-8196,1020,-42,33,12,-12043,-5,-3,-997,-288,37340,299,26,79,0,0,0,0,0,0,0,0,-32317,0,0,0,3904,0,23070,0
16755,14,-8222,1000,-42,32,9,-12043,7,3,-1000,-304,37341,304,26,79,0,0,0,0,0,0,0,0,-32317,0,0,0,3905,0,23090,0
16765,12,-8230,1076,-35,35,8,-12042,14,4,-1000,-288,37344,308,26,79,0,0,0,0,0,0,0,0,-32317,0,0,0,3905,0,23110,0
16775,78,-8206,1128,-44,34,5,-12044,-5,-7,-997,-288,37343,304,26,79,0,0,0,0,0,0,0,0,-32317,0,0,0,3904,0,23130,0
16785,102,-8214,1108,-48,35,7,-12043,7,4,-998,-304,37338,301,26,79,0,0,0,0,0,0,0,0,-32317,0,0,0,3905,0,23150,0
16795,40,-8220,1056,-55,37,10,-12045,-2,-1,-999,-288,37336,298,26,79,0,0,0,0,0,0,0,0,-32317,0,0,0,3904,0,23170,0
16805,74,-8206,1036,-53,40,15,-12044,6,-1,-1000,-296,37338,292,26,79,0,0,0,0,0,0,0,0,-32317,0,0,0,3905,0,23190,0
16815,26,-8206,996,-59,41,17,-12045,-4,-1,-1003,-296,37341,293,26,79,0,0,0,0,0,0,0,0,-32317,0,0,0,3904,0,23210,0
16825,56,-8226,992,-52,41,19,-12044,7,-2,-992,-288,37342,292,26,79,0,0,0,0,0,0,0,0,-32317,0,0,0,3905,0,23230,0
16835,52,-8230,1036,-53,39,20,-12045,0,-3,-995,-280,37341,298,26,79,0,0,0,0,0,0,0,0,-32316,0,0,0,3905,0,23251,0
16845,52,-8218,1000,-47,40,26,-12044,0,-2,-1000,-296,37338,302,26,79,0,0,0,0,0,0,0,0,-32317,0,0,0,3905,0,23271,0
16855,42,-8246,1044,-51,47,28,-12043,6,0,-1000,-288,37341,302,26,79,0,0,0,0,0,0,0,0,-32317,0,0,0,3905,0,23291,0
16865,8,-8224,1026,-50,41,21,-12043,4,-1,-1002,-288,37342,303,26,79,0,0,0,0,0,0,0,0,-32317,0,0,0,3905,0,23311,0
16875,20,-8210,1032,-49,39,22,-12044,0,-3,-997,-296,37340,305,26,79,0,0,0,0,0,0,0,0,-32317,0,0,0,3905,0,23331,0
16885,68,-8250,1034,-48,42,15,-12044,3,4,-995,-296,37341,307,26,79,0,0,0,0,0,0,0,0,-32317,0,0,0,3905,0,23351,0
16895,-22,-8256,1006,-44,34,14,-12045,0,-5,-998,-296,37344,306,26,79,0,0,0,0,0,0,0,0,-32317,0,0,0,3905,0,23371,0
16905,-10,-8220,1014,-47,40,11,-12044,-3,-2,-999,-288,37346,302,26,79,0,0,0,0,0,0,0,0,-32317,0,0,0,3905,0,23391,0
16915,-20,-8230,1030,-36,38,9,-12045,0,-4,-1003,-304,37346,302,26,79,0,0,0,0,0,0,0,0,-32317,0,0,0,3904,0,23411,0
16925,38,-8228,1050,-42,39,3,-12044,0,4,-999,-296,37349,292,26,79,0,0,0,0,0,0,0,0,-32317,0,0,0,3904,0,23431,0
16935,10,-8230,1052,-49,38,6,-12044,-4,0,-995,-296,37347,291,26,79,0,0,0,0,0,0,0,0,-32317,0,0,0,3904,0,23451,0
16945,40,-8236,1034,-48,36,6,-12044,5,4,-997,-296,37347,291,26,79,0,0,0,0,0,0,0,0,-32317,0,0,0,3905,0,23471,0
16955,58,-8230,1006,-51,37,6,-12046,-3,-6,-1002,-288,37341,299,26,79,0,0,0,0,0,0,0,0,-32317,0,0,0,3905,0,23491,0
16965,66,-8204,1032,-46,44,12,-12045,-3,0,-1001,-296,37340,296,26,79,0,0,0,0,0,0,0,0,-32317,0,0,0,3904,0,23511,0
16975,90,-8230,1030,-51,39,10,-12044,3,-1,-998,-288,37339,296,26,79,0,0,0,0,0,0,0,0,-32316,0,0,0,3904,0,23531,0
16985,84,-8244,1028,-44,41,16,-12045,1,4,-997,-304,37342,297,26,79,0,0,0,0,0,0,0,0,-32316,0,0,0,3905,0,23551,0
16995,56,-8228,1014,-48,39,13,-12045,-4,-1,-998,-296,37341,303,26,79,0,0,0,0,0,0,0,0,-32317,0,0,0,3904,0,23571,0
17005,58,-8228,1068,-46,44,18,-12046,-1,-6,-1001,-288,37340,308,26,79,0,0,0,0,0,0,0,0,-32317,0,0,0,3903,0,23591,0
17015,42,-8250,1050,-48,47,15,-12045,1,-2,-1003,-296,37339,316,26,79,0,0,0,0,0,0,0,0,-32316,0,0,0,3904,0,23611,0
17025,54,-8218,1076,-55,41,9,-12044,0,-1,-996,-296,37338,312,26,79,0,0,0,0,0,0,0,0,-32317,0,0,0,3904,0,23631,0
17035,64,-8220,1018,-52,41,15,-12045,-4,1,-999,-288,37345,312,26,79,0,0,0,0,0,0,0,0,-32317,0,0,0,3904,0,23651,0
17045,32,-8212,988,-47,36,13,-12044,0,5,-1000,-288,37345,304,26,79,0,0,0,0,0,0,0,0,-32317,0,0,0,3905,0,23671,0
17055,32,-8192,992,-43,39,13,-12045,1,1,-997,-288,37344,300,26,79,0,0,0,0,0,0,0,0,-32317,0,0,0,3905,0,23691,0
17065,16,-8202,1008,-43,39,12,-12045,-2,8,-1003,-304,37338,307,26,79,0,0,0,0,0,0,0,0,-32317,0,0,0,3904,0,23711,0
17075,34,-8252,1036,-43,38,7,-12046,1,2,-1000,-296,37338,304,26,79,0,0,0,0,0,0,0,0,-32317,0,0,0,3903,0,23731,0
17085,86,-8202,1056,-45,36,2,-12049,-7,-3,-996,-288,37340,304,26,79,0,0,0,0,0,0,0,0,-32317,0,0,0,3903,0,23751,0
17095,34,-8228,1088,-46,41,-1,-12050,-11,-7,-1000,-288,37340,301,26,79,0,0,0,0,0,0,0,0,-32317,0,0,0,3904,0,23771,0
17105,70,-8218,1050,-54,37,-2,-12052,3,-7,-1001,-288,37339,302,26,79,0,0,0,0,0,0,0,0,-32317,0,0,0,3904,0,23791,0
17115,36,-8230,1038,-52,45,-3,-12053,-3,8,-1001,-288,37338,296,26,79,0,0,0,0,0,0,0,0,-32317,0,0,0,3902,0,23811,0
17125,36,-8244,1034,-46,40,4,-12054,1,3,-1002,-288,37340,292,26,79,0,0,0,0,0,0,0,0,-32317,0,0,0,3904,0,23831,0
17135,90,-8202,1038,-47,35,8,-12055,-2,5,-1000,-288,37352,297,26,79,0,0,0,0,0,0,0,0,-32317,0,0,0,3904,0,23851,0
17145,56,-8220,1040,-53,38,5,-12057,-7,-4,-996,-296,37362,301,26,79,0,0,0,0,0,0,0,0,-32317,0,0,0,3903,0,23871,0
17155,80,-8220,1032,-53,39,6,-12058,-4,-6,-1001,-296,37359,303,26,79,0,0,0,0,0,0,0,0,-32317,0,0,0,3903,0,23891,0
17165,70,-8234,1006,-50,38,11,-12057,11,1,-1000,-296,37351,294,26,79,0,0,0,0,0,0,0,0,-32316,0,0,0,3902,0,23911,0
17175,118,-8220,1030,-49,36,9,-12057,0,4,-998,-296,37338,292,26,79,0,0,0,0,0,0,0,0,-32316,0,0,0,3903,0,23931,0
17185,90,-8228,1052,-49,39,11,-12057,4,3,-996,-288,37339,300,26,79,0,0,0,0,0,0,0,0,-32316,0,0,0,3903,0,23951,0
17195,60,-8196,1034,-56,43,14,-12058,-3,-2,-998,-288,37338,305,26,79,0,0,0,0,0,0,0,0,-32317,0,0,0,3903,0,23971,0
17205,44,-8226,1014,-49,39,13,-12060,-5,-4,-1001,-296,37335,310,26,79,0,0,0,0,0,0,0,0,-32317,0,0,0,3902,0,23991,0
17215,64,-8206,1024,-48,39,15,-12059,-1,-1,-999,-296,37336,309,26,79,0,0,0,0,0,0,0,0,-32317,0,0,0,3902,0,24011,0
17225,26,-8226,1058,-54,33,14,-12060,-2,-4,-998,-296,37336,307,26,79,0,0,0,0,0,0,0,0,-32317,0,0,0,3903,0,24031,0
17235,16,-8246,1080,-51,36,13,-12059,-3,0,-996,-288,37336,309,26,79,0,0,0,0,0,0,0,0,-32316,0,0,0,3902,0,24051,0
17245,46,-8228,1034,-52,38,12,-12059,-2,-1,-1001,-288,37338,300,26,79,0,0,0,0,0,0,0,0,-32317,0,0,0,3902,0,24071,0
17255,84,-8218,1050,-49,42,15,-12059,1,1,-1001,-288,37336,305,26,79,0,0,0,0,0,0,0,0,-32316,0,0,0,3902,0,24091,0
17265,50,-8214,1058,-48,44,11,-12059,0,0,-999,-296,37338,305,26,79,0,0,0,0,0,0,0,0,-32317,0,0,0,3902,0,24111,0
17275,74,-8226,1056,-51,42,17,-12060,-5,-2,-998,-296,37334,307,26,79,0,0,0,0,0,0,0,0,-32317,0,0,0,3903,0,24131,0
17285,44,-8212,1046,-55,38,11,-12060,0,3,-997,-288,37335,309,26,79,0,0,0,0,0,0,0,0,-32316,0,0,0,3902,0,24151,0
17295,18,-8234,1024,-48,38,15,-12059,-3,0,-999,-296,37332,305,26,79,0,0,0,0,0,0,0,0,-32317,0,0,0,3903,0,24171,0
17305,34,-8256,1056,-52,42,13,-12059,1,-3,-1000,-296,37332,308,26,79,0,0,0,0,0,0,0,0,-32317,0,0,0,3903,0,24191,0
17315,42,-8232,1030,-59,34,14,-12060,-1,-1,-999,-296,37333,307,26,79,0,0,0,0,0,0,0,0,-32317,0,0,0,3902,0,24211,0
17325,28,-8232,1058,-47,41,18,-12060,0,2,-997,-296,37335,310,26,79,0,0,0,0,0,0,0,0,-32317,0,0,0,3901,0,24231,0
17335,48,-8196,1044,-55,43,17,-12060,0,1,-996,-288,37335,301,26,79,0,0,0,0,0,0,0,0,-32316,0,0,0,3903,0,24251,0
17345,74,-8250,1070,-59,36,18,-12059,1,-1,-1000,-296,37337,294,26,79,0,0,0,0,0,0,0,0,-32317,0,0,0,3903,0,24271,0
17355,76,-8222,1070,-59,45,13,-12059,2,3,-1000,-296,37337,292,26,79,0,0,0,0,0,0,0,0,-32317,0,0,0,3901,0,24291,0
17365,76,-8200,1070,-60,42,19,-12059,8,1,-998,-296,37341,297,26,79,0,0,0,0,0,0,0,0,-32317,0,0,0,3902,0,24311,0
17375,86,-8248,1026,-62,44,17,-12060,-3,3,-998,-296,37341,298,26,79,0,0,0,0,0,0,0,0,-32316,0,0,0,3903,0,24331,0
17385,72,-8230,978,-52,45,26,-12060,-2,0,-995,-296,37337,295,26,79,0,0,0,0,0,0,0,0,-32317,0,0,0,3902,0,24351,0
17395,6,-8218,956,-52,41,15,-12059,-6,-3,-998,-288,37336,299,26,79,0,0,0,0,0,0,0,0,-32317,0,0,0,3902,0,24371,0
17405,54,-8224,1008,-50,37,17,-12059,0,-5,-1002,-296,37336,306,26,79,0,0,0,0,0,0,0,0,-32317,0,0,0,3903,0,24391,0
17415,-36,-8262,1050,-44,36,14,-12058,6,2,-998,-296,37336,305,26,79,0,0,0,0,0,0,0,0,-32317,0,0,0,3903,0,24411,0
17425,-34,-8214,1062,-46,35,10,-12058,0,2,-999,-296,37336,307,26,79,0,0,0,0,0,0,0,0,-32317,0,0,0,3902,0,24431,0
17435,42,-8234,1072,-50,40,6,-12059,4,1,-998,-296,37335,307,26,79,0,0,0,0,0,0,0,0,-32317,0,0,0,3902,0,24451,0
17445,46,-8218,1050,-48,36,7,-12059,2,-3,-1000,-296,37334,309,26,79,0,0,0,0,0,0,0,0,-32317,0,0,0,3902,0,24471,0
17455,66,-8214,1062,-51,34,6,-12059,4,-1,-1001,-296,37333,307,26,79,0,0,0,0,0,0,0,0,-32317,0,0,0,3902,0,24491,0
17465,110,-8226,1040,-48,36,2,-12061,-8,3,-1000,-288,37330,299,26,79,0,0,0,0,0,0,0,0,-32317,0,0,0,3902,0,24511,0
17475,88,-8198,1048,-51,39,9,-12061,5,6,-998,-296,37330,298,26,79,0,0,0,0,0,0,0,0,-32317,0,0,0,3902,0,24531,0
17485,76,-8210,1030,-53,40,10,-12061,3,8,-995,-288,37328,299,26,79,0,0,0,0,0,0,0,0,-32317,0,0,0,3902,0,24551,0
17495,58,-8236,1058,-52,37,10,-12061,4,1,-1000,-288,37331,302,26,79,0,0,0,0,0,0,0,0,-32316,0,0,0,3902,0,24571,0
17505,72,-8192,1044,-52,44,22,-12062,2,3,-1000,-304,37332,302,26,79,0,0,0,0,0,0,0,0,-32317,0,0,0,3903,0,24591,0
17515,70,-8228,1050,-52,39,21,-12061,0,0,-1000,-296,37332,306,26,79,0,0,0,0,0,0,0,0,-32316,0,0,0,3903,0,24611,0
17525,60,-8230,1052,-55,37,17,-12061,9,4,-998,-296,37332,312,26,79,0,0,0,0,0,0,0,0,-32317,0,0,0,3901,0,24631,0
17535,56,-8226,1016,-55,46,19,-12061,0,4,-998,-288,37333,309,26,79,0,0,0,0,0,0,0,0,-32316,0,0,0,3903,0,24651,0
17545,42,-8210,1016,-50,40,21,-12061,5,3,-998,-288,37335,307,26,79,0,0,0,0,0,0,0,0,-32317,0,0,0,3902,0,24671,0
17555,22,-8214,1018,-49,41,13,-12063,-6,0,-1000,-304,37343,299,26,79,0,0,0,0,0,0,0,0,-32316,0,0,0,3903,0,24691,0
17565,76,-8218,1044,-53,37,15,-12062,0,-8,-1002,-280,37343,300,26,79,0,0,0,0,0,0,0,0,-32316,0,0,0,3903,0,24711,0
17575,54,-8216,994,-52,42,20,-12062,-5,-6,-999,-296,37341,295,26,79,0,0,0,0,0,0,0,0,-32317,0,0,0,3903,0,24731,0
17585,58,-8222,1014,-45,35,12,-12063,0,8,-996,-296,37339,296,26,79,0,0,0,0,0,0,0,0,-32317,0,0,0,3902,0,24751,0
17595,30,-8240,1036,-41,39,12,-12064,-8,4,-998,-288,37335,294,26,79,0,0,0,0,0,0,0,0,-32316,0,0,0,3903,0,24771,0
17605,30,-8216,1042,-49,40,11,-12063,-3,2,-1002,-296,37336,300,26,79,0,0,0,0,0,0,0,0,-32316,0,0,0,3903,0,24791,0
17615,-12,-8200,1052,-50,36,12,-12063,-3,-3,-996,-296,37335,307,26,79,0,0,0,0,0,0,0,0,-32317,0,0,0,3903,0,24811,0
17625,56,-8222,1050,-53,39,7,-12065,-6,0,-1001,-296,37338,309,26,79,0,0,0,0,0,0,0,0,-32317,0,0,0,3902,0,24831,0
17635,142,-8210,1038,-51,38,6,-12065,-6,5,-999,-296,37339,309,26,79,0,0,0,0,0,0,0,0,-32317,0,0,0,3902,0,24851,0
17645,96,-8234,1032,-49,41,20,-12065,3,13,-999,-288,37341,307,26,79,0,0,0,0,0,0,0,0,-32316,0,0,0,3903,0,24872,0
17655,66,-8256,1024,-58,40,12,-12066,-2,1,-997,-296,37339,309,26,79,0,0,0,0,0,0,0,0,-32316,0,0,0,3902,0,24892,0
17665,42,-8180,1012,-45,37,11,-12065,-5,-1,-998,-288,37344,309,26,79,0,0,0,0,0,0,0,0,-32316,0,0,0,3903,0,24912,0
17675,18,-8228,1028,-53,41,12,-12066,-5,-4,-998,-296,37345,309,26,79,0,0,0,0,0,0,0,0,-32317,0,0,0,3903,0,24932,0
17685,56,-8224,1026,-54,36,12,-12065,-1,-1,-995,-280,37346,304,26,79,0,0,0,0,0,0,0,0,-32316,0,0,0,3902,0,24952,0
17695,62,-8238,1010,-46,42,10,-12065,8,-2,-997,-288,37340,301,26,79,0,0,0,0,0,0,0,0,-32317,0,0,0,3902,0,24972,0
17705,28,-8222,1032,-47,41,9,-12065,5,-4,-1001,-296,37339,304,26,79,0,0,0,0,0,0,0,0,-32316,0,0,0,3903,0,24992,0
17715,48,-8224,1058,-41,36,8,-12065,0,-3,-998,-296,37339,311,26,79,0,0,0,0,0,0,0,0,-32317,0,0,0,3902,0,25012,0
17725,18,-8224,1090,-48,32,10,-12067,1,-3,-997,-288,37341,306,26,79,0,0,0,0,0,0,0,0,-32317,0,0,0,3901,0,25032,0
17735,78,-8248,1076,-51,41,7,-12067,-5,-1,-998,-296,37341,300,26,79,0,0,0,0,0,0,0,0,-32317,0,0,0,3902,0,25053,0
17745,92,-8236,1046,-48,44,13,-12067,0,-2,-998,-280,37340,298,26,79,0,0,0,0,0,0,0,0,-32317,0,0,0,3902,0,25073,0
17755,92,-8236,1052,-53,41,16,-12068,4,-1,-1000,-296,37339,295,26,79,0,0,0,0,0,0,0,0,-32317,0,0,0,3901,0,25093,0
17765,78,-8226,1028,-57,40,16,-12067,0,-7,-1000,-296,37340,304,26,79,0,0,0,0,0,0,0,0,-32316,0,0,0,3902,0,25113,0
17775,34,-8232,1014,-50,45,14,-12066,2,-2,-999,-288,37348,302,26,79,0,0,0,0,0,0,0,0,-32316,0,0,0,3901,0,25133,0
17785,14,-8220,990,-46,42,12,-12067,5,0,-999,-296,37348,302,26,79,0,0,0,0,0,0,0,0,-32317,0,0,0,3901,0,25153,0
17795,60,-8192,1046,-53,38,16,-12068,-1,2,-1000,-296,37348,304,26,79,0,0,0,0,0,0,0,0,-32317,0,0,0,3902,0,25173,0
17805,24,-8222,1060,-45,38,16,-12067,0,-1,-1004,-288,37343,310,26,79,0,0,0,0,0,0,0,0,-32317,0,0,0,3900,0,25193,0
17815,62,-8210,1056,-50,44,13,-12067,2,-1,-1003,-288,37345,313,26,79,0,0,0,0,0,0,0,0,-32316,0,0,0,3900,0,25213,0
17825,50,-8212,1064,-51,38,8,-12068,-3,0,-1003,-288,37344,311,26,79,0,0,0,0,0,0,0,0,-32317,0,0,0,3901,0,25233,0
17835,92,-8252,1038,-49,41,12,-12067,4,0,-996,-296,37345,308,26,79,0,0,0,0,0,0,0,0,-32317,0,0,0,3902,0,25253,0
17845,94,-8222,1038,-58,40,14,-12067,2,3,-1001,-288,37342,312,26,79,0,0,0,0,0,0,0,0,-32317,0,0,0,3901,0,25273,0
17855,88,-8202,1054,-55,43,21,-12068,5,-3,-1003,-296,37344,310,26,79,0,0,0,0,0,0,0,0,-32317,0,0,0,3902,0,25293,0
17865,88,-8230,1010,-50,44,18,-12067,-1,-4,-1000,-288,37343,306,26,79,0,0,0,0,0,0,0,0,-32317,0,0,0,3901,0,25313,0
17875,34,-8212,1004,-56,40,16,-12067,3,-3,-998,-288,37347,305,26,79,0,0,0,0,0,0,0,0,-32316,0,0,0,3900,0,25333,0
17885,30,-8226,1022,-40,45,18,-12067,1,-3,-994,-288,37348,306,26,79,0,0,0,0,0,0,0,0,-32317,0,0,0,3900,0,25353,0
17895,46,-8240,1030,-44,42,17,-12069,0,3,-999,-288,37348,309,26,79,0,0,0,0,0,0,0,0,-32316,0,0,0,3903,0,25373,0
17905,-4,-8224,1022,-52,34,21,-12067,3,3,-1003,-288,37344,309,26,79,0,0,0,0,0,0,0,0,-32317,0,0,0,3903,0,25393,0
17915,78,-8200,1036,-40,33,14,-12067,1,-1,-1003,-280,37347,310,26,79,0,0,0,0,0,0,0,0,-32317,0,0,0,3901,0,25413,0
17925,46,-8210,1036,-48,37,12,-12069,-5,0,-1002,-296,37347,306,26,79,0,0,0,0,0,0,0,0,-32317,0,0,0,3903,0,25433,0
17935,88,-8238,1048,-51,38,8,-12068,0,2,-998,-296,37347,313,26,79,0,0,0,0,0,0,0,0,-32317,0,0,0,3901,0,25453,0
17945,48,-8224,1028,-47,35,13,-12068,1,-3,-1000,-288,37347,318,26,79,0,0,0,0,0,0,0,0,-32317,0,0,0,3902,0,25473,0
17955,18,-8254,1030,-47,38,14,-12069,-3,-3,-1001,-296,37347,324,26,79,0,0,0,0,0,0,0,0,-32317,0,0,0,3901,0,25493,0
17965,36,-8242,1068,-50,45,9,-12068,-1,3,-998,-272,37346,315,26,79,0,0,0,0,0,0,0,0,-32317,0,0,0,3903,0,25513,0
17975,68,-8202,1086,-50,35,10,-12068,-3,-2,-1000,-296,37346,302,26,79,0,0,0,0,0,0,0,0,-32317,0,0,0,3901,0,25533,0
17985,34,-8248,1040,-57,39,13,-12068,5,2,-992,-280,37345,297,26,79,0,0,0,0,0,0,0,0,-32317,0,0,0,3902,0,25553,0
17995,72,-8230,996,-56,40,16,-12068,-1,5,-998,-288,37345,301,26,79,0,0,0,0,0,0,0,0,-32317,0,0,0,3900,0,25573,0
18005,72,-8232,996,-52,42,18,-12069,0,-3,-1002,-288,37347,299,26,79,0,0,0,0,0,0,0,0,-32317,0,0,0,3903,0,25593,0
18015,116,-8230,1000,-49,45,15,-12068,-5,0,-998,-280,37346,295,26,79,0,0,0,0,0,0,0,0,-32316,0,0,0,3903,0,25613,0
18025,40,-8242,1016,-48,40,16,-12070,-10,-5,-1001,-296,37349,297,26,79,0,0,0,0,0,0,0,0,-32317,0,0,0,3903,0,25634,0
18035,-848,-8292,1084,-48,43,72,-12043,121,55,-303,0,37351,298,26,79,0,0,0,0,0,0,0,0,-32317,0,0,0,3904,0,25654,0
18045,1160,-7746,638,-46,-10,165,-11982,128,137,-232,0,37351,295,26,79,0,0,0,0,0,0,0,0,-32317,0,0,0,3909,0,25674,0
18055,250,-8436,1178,-22,-103,186,-11943,76,11,-152,0,37350,295,26,79,0,0,0,0,0,0,0,0,-32317,0,0,0,3913,0,25694,0
18065,-244,-8216,1204,-42,-83,133,-11922,24,-84,-77,0,37351,310,26,79,0,0,0,0,0,0,0,0,-32317,0,0,0,3915,0,25714,0
18075,-614,-8242,1232,-50,21,69,-11912,26,-56,-36,0,37353,320,26,79,0,0,0,0,0,0,0,0,-32317,0,0,0,3915,0,25735,0
18085,-182,-8238,1030,-60,66,23,-11903,30,-12,-53,0,37352,330,26,79,0,0,0,0,0,0,0,0,-32317,0,0,0,3917,0,25755,0
18095,296,-8254,946,-57,56,37,-11886,45,25,-82,0,37350,329,26,79,0,0,0,0,0,0,0,0,-32316,0,0,0,3918,0,25774,0
18105,386,-8250,1030,-42,0,63,-11873,20,6,-58,0,37345,320,26,79,0,0,0,0,0,0,0,0,-32317,0,0,0,3919,0,25794,0
18115,-74,-8170,1110,-54,5,63,-11873,-2,-32,-13,0,37342,315,26,79,0,0,0,0,0,0,0,0,-32316,0,0,0,3920,0,25814,0
18125,-228,-8198,1136,-60,50,27,-11868,8,-15,-13,0,37343,311,26,79,0,0,0,0,0,0,0,0,-32317,0,0,0,3921,0,25835,0
18135,-76,-8212,998,-66,54,8,-11868,5,-3,-4,0,37346,318,26,79,0,0,0,0,0,0,0,0,-32317,0,0,0,3919,0,25855,0
18145,190,-8236,890,-48,40,18,-11867,3,-1,1,0,37348,321,26,79,0,0,0,0,0,0,0,0,-32316,0,0,0,3921,0,25875,0
18155,154,-8230,932,-41,37,31,-11867,4,-2,-2,0,37343,316,26,79,0,0,0,0,0,0,0,0,-32316,0,0,0,3921,0,25895,0
18165,-40,-8244,1118,-40,38,33,-11866,3,4,-6,0,37341,310,26,79,0,0,0,0,0,0,0,0,-32317,0,0,0,3919,0,25914,0
18175,-82,-8226,1152,-50,42,25,-11866,-4,-3,-9,0,37342,306,26,79,0,0,0,0,0,0,0,0,-32317,0,0,0,3921,0,25935,0
18185,54,-8224,1086,-58,49,21,-11864,0,-8,-5,0,37350,312,26,79,0,0,0,0,0,0,0,0,-32316,0,0,0,3922,0,25955,0
18195,94,-8234,998,-57,43,24,-11863,10,0,-3,0,37348,310,26,79,0,0,0,0,0,0,0,0,-32317,0,0,0,3921,0,25975,0
18205,30,-8210,960,-52,37,30,-11862,10,2,-6,0,37345,312,26,79,0,0,0,0,0,0,0,0,-32317,0,0,0,3921,0,25995,0
18215,-14,-8226,1012,-48,39,31,-11862,5,4,-9,0,37340,310,26,79,0,0,0,0,0,0,0,0,-32317,0,0,0,3922,0,26015,0
18225,8,-8226,1030,-42,41,25,-11858,13,3,-9,0,37342,301,26,79,0,0,0,0,0,0,0,0,-32316,0,0,0,3922,0,26035,0
18235,18,-8254,1034,-48,42,21,-11859,6,-2,-7,0,37344,299,26,79,0,0,0,0,0,0,0,0,-32317,0,0,0,3921,0,26055,0
18245,40,-8240,1030,-50,39,21,-11857,3,-3,-6,0,37343,302,26,79,0,0,0,0,0,0,0,0,-32316,0,0,0,3921,0,26075,0
18255,52,-8196,1032,-43,39,19,-11855,3,1,-7,0,37341,301,26,79,0,0,0,0,0,0,0,0,-32317,0,0,0,3921,0,26095,0
18265,-14,-8238,1054,-49,39,21,-11855,3,-2,-6,0,37339,300,26,79,0,0,0,0,0,0,0,0,-32316,0,0,0,3922,0,26115,0
18275,0,-8206,1038,-46,35,17,-11853,0,2,-7,0,37341,292,26,79,0,0,0,0,0,0,0,0,-32317,0,0,0,3922,0,26135,0
18285,56,-8198,1022,-46,36,18,-11852,3,4,-9,0,37343,302,26,79,0,0,0,0,0,0,0,0,-32317,0,0,0,3922,0,26155,0
18295,38,-8250,1020,-47,40,19,-11852,1,1,-7,0,37348,298,26,79,0,0,0,0,0,0,0,0,-32317,0,0,0,3922,0,26175,0
18305,72,-8194,1068,-45,35,24,-11848,4,-1,-10,0,37344,296,26,79,0,0,0,0,0,0,0,0,-32317,0,0,0,3921,0,26195,0
18315,48,-8210,1060,-45,39,22,-11846,7,3,-14,0,37343,294,26,79,0,0,0,0,0,0,0,0,-32317,0,0,0,3923,0,26215,0
18325,36,-8226,1086,-54,38,31,-11842,9,7,-17,0,37341,299,26,79,0,0,0,0,0,0,0,0,-32317,0,0,0,3923,0,26235,0
18335,78,-8248,1030,-53,31,35,-11836,21,7,-28,0,37341,303,26,79,0,0,0,0,0,0,0,0,-32316,0,0,0,3923,0,26255,0
18345,98,-8228,1002,-46,26,48,-11829,16,6,-40,0,37340,300,26,79,0,0,0,0,0,0,0,0,-32317,0,0,0,3925,0,26275,0
18355,88,-8220,1038,-44,10,57,-11820,21,8,-42,0,37338,300,26,79,0,0,0,0,0,0,0,0,-32316,0,0,0,3925,0,26295,0
18365,-24,-8226,1050,-49,20,49,-11815,8,-4,-23,0,37338,293,26,79,0,0,0,0,0,0,0,0,-32317,0,0,0,3926,0,26315,0
18375,-104,-8216,1094,-47,32,36,-11811,6,-17,-12,0,37340,289,26,79,0,0,0,0,0,0,0,0,-32316,0,0,0,3926,0,26335,0
18385,-74,-8252,1074,-51,45,22,-11810,3,-6,-10,0,37340,281,26,79,0,0,0,0,0,0,0,0,-32316,0,0,0,3925,0,26355,0
18395,6,-8222,1050,-54,50,19,-11808,9,-1,-5,0,37341,286,26,79,0,0,0,0,0,0,0,0,-32317,0,0,0,3926,0,26375,0
18405,38,-8226,1042,-52,47,19,-11807,9,-4,-5,0,37339,291,26,79,0,0,0,0,0,0,0,0,-32316,0,0,0,3926,0,26395,0
18415,10,-8224,1036,-52,41,24,-11805,9,6,-4,0,37347,287,26,79,0,0,0,0,0,0,0,0,-32317,0,0,0,3927,0,26415,0
18425,46,-8240,1062,-52,36,23,-11805,0,5,-6,0,37357,292,26,79,0,0,0,0,0,0,0,0,-32316,0,0,0,3925,0,26435,0
18435,34,-8222,1058,-54,38,20,-11805,9,1,-4,0,37367,295,26,79,0,0,0,0,0,0,0,0,-32316,0,0,0,3926,0,26455,0
18445,24,-8224,972,-56,39,22,-11804,3,1,-3,0,37361,295,26,79,0,0,0,0,0,0,0,0,-32316,0,0,0,3926,0,26475,0
18455,2,-8240,986,-48,38,25,-11802,15,0,-2,0,37347,287,26,79,0,0,0,0,0,0,0,0,-32316,0,0,0,3926,0,26495,0
18465,-52,-8210,1048,-37,36,20,-11802,-3,-1,-5,0,37335,292,26,79,0,0,0,0,0,0,0,0,-32316,0,0,0,3926,0,26515,0
18475,-46,-8242,1060,-39,40,15,-11802,-4,0,-2,0,37337,289,26,79,0,0,0,0,0,0,0,0,-32316,0,0,0,3926,0,26535,0
18485,-2,-8216,1098,-45,41,9,-11802,-6,-3,0,0,37338,296,26,79,0,0,0,0,0,0,0,0,-32317,0,0,0,3926,0,26555,0
18495,24,-8228,1086,-47,40,7,-11801,3,-2,-2,0,37338,287,26,79,0,0,0,0,0,0,0,0,-32317,0,0,0,3927,0,26575,0
18505,44,-8234,1072,-55,39,7,-11801,6,4,0,0,37338,289,26,79,0,0,0,0,0,0,0,0,-32316,0,0,0,3927,0,26595,0
18515,44,-8212,1042,-55,41,13,-11802,-10,-3,0,0,37338,286,26,79,0,0,0,0,0,0,0,0,-32316,0,0,0,3927,0,26615,0
18525,52,-8234,1040,-50,42,19,-11802,-10,4,-1,0,37339,275,26,79,0,0,0,0,0,0,0,0,-32317,0,0,0,3928,0,26635,0
18535,52,-8222,1034,-55,43,20,-11800,-4,5,-1,0,37336,274,26,79,0,0,0,0,0,0,0,0,-32316,0,0,0,3926,0,26655,0
18545,38,-8208,1048,-51,43,21,-11801,-1,-1,-2,0,37336,274,26,79,0,0,0,0,0,0,0,0,-32316,0,0,0,3928,0,26675,0
18555,48,-8240,1082,-49,41,22,-11798,4,1,-4,0,37337,283,26,79,0,0,0,0,0,0,0,0,-32316,0,0,0,3927,0,26695,0
18565,20,-8216,1074,-54,36,26,-11798,1,-2,-4,0,37337,283,26,79,0,0,0,0,0,0,0,0,-32317,0,0,0,3927,0,26715,0
18575,16,-8242,1078,-56,40,30,-11798,-1,7,-7,0,37337,280,26,79,0,0,0,0,0,0,0,0,-32316,0,0,0,3927,0,26735,0
18585,0,-8226,1016,-58,36,23,-11796,2,3,-8,0,37340,283,26,79,0,0,0,0,0,0,0,0,-32316,0,0,0,3927,0,26760,0
18595,14,-8228,1010,-50,34,28,-11792,7,-3,-11,0,37343,285,26,79,0,0,0,0,0,0,0,0,-32317,0,0,0,3928,0,26780,0
18605,-10,-8244,1020,-52,36,22,-11791,0,-1,-13,0,37346,283,26,79,0,0,0,0,0,0,0,0,-32317,0,0,0,3927,0,26800,0
18615,10,-8192,1014,-45,31,29,-11786,16,2,-23,0,37343,277,26,79,0,0,0,0,0,0,0,0,-32316,0,0,0,3928,0,26820,0
18625,28,-8216,1022,-44,27,40,-11777,15,7,-42,0,37344,275,26,79,0,0,0,0,0,0,0,0,-32316,0,0,0,3929,0,26840,0
18635,80,-8248,1034,-42,1,59,-11761,40,22,-74,0,37344,277,26,79,0,0,0,0,0,0,0,0,-32316,0,0,0,3931,0,26860,0
18645,174,-8228,1048,-49,-15,58,-11749,22,12,-49,0,37344,273,26,79,0,0,0,0,0,0,0,0,-32316,0,0,0,3931,0,26881,0
18655,-184,-8232,1112,-47,15,40,-11750,0,-34,2,0,37344,265,26,79,0,0,0,0,0,0,0,0,-32317,0,0,0,3932,0,26901,0
18665,-206,-8218,1096,-60,52,14,-11747,1,-20,-2,0,37346,273,26,79,0,0,0,0,0,0,0,0,-32316,0,0,0,3931,0,26921,0
18675,-52,-8230,1046,-60,56,3,-11748,-4,-2,1,0,37347,268,26,79,0,0,0,0,0,0,0,0,-32316,0,0,0,3932,0,26941,0
18685,112,-8242,1012,-49,44,8,-11749,-2,0,1,0,37349,281,26,79,0,0,0,0,0,0,0,0,-32317,0,0,0,3932,0,26961,0
18695,96,-8226,1032,-55,37,16,-11748,-1,-2,0,0,37350,278,26,79,0,0,0,0,0,0,0,0,-32317,0,0,0,3931,0,26981,0
18705,-36,-8214,1056,-58,32,17,-11749,-9,-4,-1,0,37347,278,26,79,0,0,0,0,0,0,0,0,-32316,0,0,0,3931,0,27001,0
18715,-50,-8222,1060,-53,45,16,-11748,0,3,0,0,37350,275,26,79,0,0,0,0,0,0,0,0,-32316,0,0,0,3932,0,27021,0
18725,16,-8234,992,-55,39,10,-11748,-1,-2,1,0,37350,282,26,79,0,0,0,0,0,0,0,0,-32316,0,0,0,3933,0,27041,0
18735,38,-8210,972,-47,33,14,-11748,-3,2,0,0,37350,287,26,79,0,0,0,0,0,0,0,0,-32317,0,0,0,3931,0,27062,0
18745,-12,-8208,1038,-45,37,16,-11748,2,0,1,0,37341,283,26,79,0,0,0,0,0,0,0,0,-32316,0,0,0,3933,0,27082,0
18755,-46,-8228,1076,-46,36,10,-11747,7,-5,0,0,37339,276,26,79,0,0,0,0,0,0,0,0,-32316,0,0,0,3932,0,27102,0
18765,-30,-8226,1096,-49,42,6,-11748,0,4,1,0,37340,279,26,79,0,0,0,0,0,0,0,0,-32316,0,0,0,3933,0,27122,0
18775,28,-8226,1088,-54,46,5,-11747,1,-3,0,0,37345,287,26,79,0,0,0,0,0,0,0,0,-32317,0,0,0,3933,0,27142,0
18785,48,-8224,1024,-53,35,9,-11747,-9,1,1,0,37347,285,26,79,0,0,0,0,0,0,0,0,-32316,0,0,0,3933,0,27162,0
18795,46,-8236,1024,-50,37,19,-11748,-4,0,0,0,37345,286,26,79,0,0,0,0,0,0,0,0,-32316,0,0,0,3932,0,27182,0
18805,26,-8186,1030,-55,38,13,-11748,-5,2,-1,0,37344,281,26,79,0,0,0,0,0,0,0,0,-32316,0,0,0,3932,0,27202,0
18815,-4,-8256,1042,-52,35,12,-11749,-11,0,0,0,37355,276,26,79,0,0,0,0,0,0,0,0,-32317,0,0,0,3931,0,27222,0
18825,4,-8242,1020,-53,37,16,-11749,-3,1,0,0,37357,271,26,79,0,0,0,0,0,0,0,0,-32316,0,0,0,3932,0,27242,0
18835,24,-8232,1054,-45,40,12,-11748,0,3,0,0,37356,271,26,79,0,0,0,0,0,0,0,0,-32316,0,0,0,3932,0,27262,0
18845,-8,-8238,1038,-50,37,13,-11747,-6,2,1,0,37346,279,26,79,0,0,0,0,0,0,0,0,-32316,0,0,0,3931,0,27282,0
18855,10,-8220,1054,-48,36,9,-11747,1,0,0,0,37346,284,26,79,0,0,0,0,0,0,0,0,-32316,0,0,0,3931,0,27302,0
18865,-28,-8206,1054,-52,45,14,-11747,-2,-3,0,0,37346,274,26,79,0,0,0,0,0,0,0,0,-32316,0,0,0,3933,0,27322,0
18875,2,-8238,1056,-51,38,14,-11748,0,2,0,0,37347,280,26,79,0,0,0,0,0,0,0,0,-32316,0,0,0,3933,0,27342,0
18885,22,-8220,1040,-54,42,11,-11747,5,-3,0,0,37350,284,26,79,0,0,0,0,0,0,0,0,-32316,0,0,0,3933,0,27362,0
18895,30,-8214,1050,-56,41,14,-11748,-4,-1,1,0,37352,287,26,79,0,0,0,0,0,0,0,0,-32317,0,0,0,3932,0,27382,0
18905,16,-8242,1036,-54,45,18,-11750,-4,-2,1,0,37351,284,26,79,0,0,0,0,0,0,0,0,-32317,0,0,0,3933,0,27402,0
18915,8,-8222,1024,-54,40,18,-11749,-6,-5,0,0,37350,283,26,79,0,0,0,0,0,0,0,0,-32317,0,0,0,3933,0,27422,0
18925,30,-8210,1070,-58,42,22,-11747,3,-1,0,0,37356,290,26,79,0,0,0,0,0,0,0,0,-32316,0,0,0,3933,0,27442,0
18935,16,-8250,1038,-54,45,24,-11749,-7,-2,0,0,37356,293,26,79,0,0,0,0,0,0,0,0,-32316,0,0,0,3933,0,27462,0
18945,-20,-8242,1034,-55,38,16,-11749,-4,-5,0,0,37355,297,26,79,0,0,0,0,0,0,0,0,-32316,0,0,0,3932,0,27482,0
18955,20,-8228,1014,-50,41,15,-11747,-1,1,0,0,37348,284,26,79,0,0,0,0,0,0,0,0,-32316,0,0,0,3932,0,27502,0
18965,38,-8234,1036,-50,41,17,-11748,1,-2,0,0,37349,281,26,79,0,0,0,0,0,0,0,0,-32316,0,0,0,3933,0,27522,0
18975,26,-8210,1056,-55,41,18,-11747,10,1,0,0,37348,273,26,79,0,0,0,0,0,0,0,0,-32317,0,0,0,3933,0,27542,0
18985,-2,-8232,1026,-48,41,22,-11748,1,3,0,0,37347,279,26,79,0,0,0,0,0,0,0,0,-32316,0,0,0,3932,0,27562,0
18995,-24,-8212,1036,-55,39,15,-11747,1,2,0,0,37347,280,26,79,0,0,0,0,0,0,0,0,-32316,0,0,0,3933,0,27582,0
19005,-18,-8218,1062,-56,39,13,-11747,0,1,0,0,37346,277,26,79,0,0,0,0,0,0,0,0,-32318,0,0,0,3933,0,27602,0
19015,-4,-8212,1054,-57,38,14,-11747,-10,-2,2,0,37346,275,26,79,0,0,0,0,0,0,0,0,-32316,0,0,0,3932,0,27622,0
19025,14,-8222,1058,-55,45,12,-11746,10,1,0,0,37347,281,26,79,0,0,0,0,0,0,0,0,-32316,0,0,0,3932,0,27642,0
19035,4,-8208,1038,-56,46,16,-11746,0,4,0,0,37349,283,26,79,0,0,0,0,0,0,0,0,-32316,0,0,0,3932,0,27662,0
19045,-2,-8214,1040,-51,39,23,-11748,-5,-3,2,0,37348,285,26,79,0,0,0,0,0,0,0,0,-32316,0,0,0,3931,0,27682,0
19055,14,-8200,1028,-52,45,17,-11748,-10,-2,0,0,37345,285,26,79,0,0,0,0,0,0,0,0,-32316,0,0,0,3931,0,27702,0
19065,54,-8232,1036,-48,37,20,-11746,0,1,0,0,37344,287,26,79,0,0,0,0,0,0,0,0,-32316,0,0,0,3933,0,27722,0
19075,38,-8258,1054,-52,37,23,-11747,-4,-6,-1,0,37344,292,26,79,0,0,0,0,0,0,0,0,-32316,0,0,0,3932,0,27742,0
19085,-38,-8236,1044,-51,36,21,-11745,5,-1,-1,0,37344,288,26,79,0,0,0,0,0,0,0,0,-32316,0,0,0,3932,0,27762,0
19095,-92,-8246,1042,-48,36,15,-11744,11,2,0,0,37345,294,26,79,0,0,0,0,0,0,0,0,-32317,0,0,0,3931,0,27782,0
19105,-68,-8244,1030,-47,35,4,-11746,4,-2,1,0,37345,287,26,79,0,0,0,0,0,0,0,0,-32316,0,0,0,3932,0,27802,0
19115,-78,-8206,1008,-47,39,-2,-11747,-1,1,2,0,37344,288,26,79,0,0,0,0,0,0,0,0,-32317,0,0,0,3932,0,27822,0
19125,-50,-8238,1010,-42,32,-12,-11747,0,-3,2,0,37342,282,26,79,0,0,0,0,0,0,0,0,-32316,0,0,0,3931,0,27842,0
19135,-4,-8228,1006,-39,42,-10,-11747,-3,2,3,0,37350,281,26,79,0,0,0,0,0,0,0,0,-32316,0,0,0,3932,0,27862,0
19145,40,-8218,1024,-42,32,-12,-11745,12,-2,2,0,37350,286,26,79,0,0,0,0,0,0,0,0,-32317,0,0,0,3932,0,27882,0
19155,56,-8242,1056,-44,35,-12,-11747,12,4,2,0,37349,283,26,79,0,0,0,0,0,0,0,0,-32316,0,0,0,3932,0,27902,0
19165,74,-8224,1040,-40,39,-1,-11748,0,4,1,0,37340,280,26,79,0,0,0,0,0,0,0,0,-32317,0,0,0,3932,0,27922,0
19175,54,-8228,1072,-45,33,7,-11748,1,2,0,0,37340,276,26,79,0,0,0,0,0,0,0,0,-32317,0,0,0,3931,0,27942,0
19185,70,-8224,1078,-48,41,12,-11748,-7,-1,0,0,37342,278,26,79,0,0,0,0,0,0,0,0,-32316,0,0,0,3932,0,27962,0
19195,66,-8232,1100,-48,44,13,-11747,3,-2,0,0,37343,282,26,79,0,0,0,0,0,0,0,0,-32316,0,0,0,3931,0,27982,0
19205,40,-8192,1070,-55,38,18,-11748,-2,-2,0,0,37339,284,26,79,0,0,0,0,0,0,0,0,-32316,0,0,0,3931,0,28002,0
19215,78,-8254,1070,-53,40,21,-11746,7,3,0,0,37338,283,26,79,0,0,0,0,0,0,0,0,-32316,0,0,0,3931,0,28022,0
19225,48,-8232,1028,-57,41,29,-11748,2,-3,1,0,37341,279,26,79,0,0,0,0,0,0,0,0,-32316,0,0,0,3931,0,28042,0
19235,46,-8202,1030,-53,44,28,-11746,6,-1,0,0,37344,280,26,79,0,0,0,0,0,0,0,0,-32316,0,0,0,3931,0,28062,0
19245,38,-8244,1052,-51,48,33,-11748,-2,-2,0,0,37347,276,26,79,0,0,0,0,0,0,0,0,-32316,0,0,0,3932,0,28082,0
19255,16,-8218,1064,-56,49,39,-11747,-1,0,0,0,37343,274,26,79,0,0,0,0,0,0,0,0,-32316,0,0,0,3932,0,28102,0
19265,0,-8254,1062,-60,51,36,-11747,1,1,0,0,37342,274,26,79,0,0,0,0,0,0,0,0,-32316,0,0,0,3931,0,28122,0
19275,12,-8230,1076,-66,52,35,-11746,-7,-3,-1,0,37341,271,26,79,0,0,0,0,0,0,0,0,-32316,0,0,0,3932,0,28142,0
19285,-4,-8206,1042,-66,46,34,-11746,5,0,0,0,37344,276,26,79,0,0,0,0,0,0,0,0,-32316,0,0,0,3931,0,28162,0
19295,-12,-8208,1012,-63,44,31,-11744,3,-2,-5,0,37345,280,26,79,0,0,0,0,0,0,0,0,-32316,0,0,0,3933,0,28182,0
19305,-60,-8228,1038,-71,56,30,-11745,-2,5,-5,0,37344,277,26,79,0,0,0,0,0,0,0,0,-32316,0,0,0,3931,0,28202,0
19315,-14,-8232,1020,-65,48,30,-11743,6,5,-4,0,37341,270,26,79,0,0,0,0,0,0,0,0,-32316,0,0,0,3932,0,28222,0
19325,-8,-8236,998,-61,54,25,-11743,0,-5,-3,0,37344,284,26,79,0,0,0,0,0,0,0,0,-32316,0,0,0,3931,0,28242,0
19335,-38,-8240,998,-54,45,25,-11741,8,1,-1,0,37345,286,26,79,0,0,0,0,0,0,0,0,-32316,0,0,0,3932,0,28262,0
19345,-18,-8248,1002,-48,41,25,-11742,-3,4,-3,0,37341,292,26,79,0,0,0,0,0,0,0,0,-32316,0,0,0,3931,0,28282,0
19355,-34,-8202,1038,-47,37,20,-11742,-3,-3,-1,0,37338,286,26,79,0,0,0,0,0,0,0,0,-32317,0,0,0,3932,0,28302,0
19365,-14,-8206,1018,-50,33,15,-11741,6,-4,-1,0,37337,289,26,79,0,0,0,0,0,0,0,0,-32317,0,0,0,3931,0,28322,0
19375,-52,-8222,1014,-44,38,13,-11741,0,0,0,0,37335,279,26,79,0,0,0,0,0,0,0,0,-32317,0,0,0,3932,0,28342,0
19385,-48,-8216,1016,-41,35,8,-11742,0,2,0,0,37335,278,26,79,0,0,0,0,0,0,0,0,-32316,0,0,0,3932,0,28362,0
19395,-46,-8228,1042,-39,32,3,-11741,-4,1,1,0,37335,276,26,79,0,0,0,0,0,0,0,0,-32317,0,0,0,3934,0,28382,0
19405,-46,-8242,1040,-48,34,-2,-11741,-5,-7,2,0,37335,278,26,79,0,0,0,0,0,0,0,0,-32316,0,0,0,3934,0,28402,0
19415,-44,-8222,1036,-43,35,-8,-11741,-2,4,2,0,37336,285,26,79,0,0,0,0,0,0,0,0,-32316,0,0,0,3931,0,28422,0
19425,-12,-8234,1020,-38,28,-8,-11742,-1,2,2,0,37336,285,26,79,0,0,0,0,0,0,0,0,-32316,0,0,0,3933,0,28442,0
19435,6,-8240,1026,-40,33,-8,-11741,3,-3,4,0,37335,288,26,79,0,0,0,0,0,0,0,0,-32317,0,0,0,3931,0,28462,0
19445,14,-8224,1016,-38,29,-10,-11742,0,0,2,0,37338,286,26,79,0,0,0,0,0,0,0,0,-32316,0,0,0,3931,0,28482,0
19455,24,-8224,1020,-36,29,-11,-11742,6,-1,2,0,37337,284,26,79,0,0,0,0,0,0,0,0,-32316,0,0,0,3932,0,28502,0
19465,36,-8230,1040,-31,33,-8,-11744,-3,1,3,0,37337,281,26,79,0,0,0,0,0,0,0,0,-32316,0,0,0,3933,0,28522,0
19475,56,-8212,1054,-35,26,-2,-11745,-6,0,2,0,37333,278,26,79,0,0,0,0,0,0,0,0,-32317,0,0,0,3931,0,28542,0
19485,58,-8230,1050,-37,19,-1,-11743,4,1,2,0,37335,280,26,79,0,0,0,0,0,0,0,0,-32317,0,0,0,3932,0,28562,0
19495,54,-8238,1064,-33,16,4,-11744,-4,0,1,0,37334,279,26,79,0,0,0,0,0,0,0,0,-32316,0,0,0,3931,0,28582,0
19505,28,-8230,1080,-37,21,9,-11744,2,-3,1,0,37333,277,26,79,0,0,0,0,0,0,0,0,-32317,0,0,0,3931,0,28602,0
19515,30,-8236,1080,-43,25,13,-11745,-5,3,1,0,37333,285,26,79,0,0,0,0,0,0,0,0,-32317,0,0,0,3933,0,28622,0
19525,48,-8236,1108,-49,45,16,-11743,2,-1,2,0,37336,285,26,79,0,0,0,0,0,0,0,0,-32317,0,0,0,3932,0,28642,0
19535,34,-8246,1068,-50,46,20,-11744,3,3,1,0,37336,282,26,79,0,0,0,0,0,0,0,0,-32317,0,0,0,3933,0,28662,0
19545,102,-8202,1050,-57,49,26,-11744,5,5,0,0,37341,274,26,79,0,0,0,0,0,0,0,0,-32316,0,0,0,3933,0,28682,0
19555,52,-8232,1048,-52,42,25,-11743,-1,-3,0,0,37341,278,26,79,0,0,0,0,0,0,0,0,-32316,0,0,0,3933,0,28702,0
19565,40,-8226,1058,-60,44,34,-11744,-1,0,0,0,37343,276,26,79,0,0,0,0,0,0,0,0,-32317,0,0,0,3933,0,28722,0
19575,14,-8260,1044,-56,45,29,-11744,-1,-2,0,0,37341,279,26,79,0,0,0,0,0,0,0,0,-32316,0,0,0,3933,0,28742,0
19585,22,-8196,1044,-59,46,30,-11744,-1,2,0,0,37339,288,26,79,0,0,0,0,0,0,0,0,-32317,0,0,0,3934,0,28762,0
19595,4,-8246,1064,-54,44,32,-11744,-5,1,-1,0,37339,292,26,79,0,0,0,0,0,0,0,0,-32316,0,0,0,3933,0,28782,0
19605,-8,-8208,1030,-58,40,32,-11744,-4,2,0,0,37340,289,26,79,0,0,0,0,0,0,0,0,-32317,0,0,0,3933,0,28802,0
19615,-26,-8244,1024,-54,44,27,-11741,5,1,1,0,37340,273,26,79,0,0,0,0,0,0,0,0,-32317,0,0,0,3932,0,28822,0
19625,-6,-8244,1038,-56,42,30,-11741,6,-1,0,0,37339,274,26,79,0,0,0,0,0,0,0,0,-32317,0,0,0,3932,0,28842,0
19635,16,-8206,1034,-58,44,26,-11744,0,7,0,0,37339,279,26,79,0,0,0,0,0,0,0,0,-32316,0,0,0,3934,0,28862,0
19645,0,-8246,1026,-60,41,25,-11743,-5,-1,0,0,37340,286,26,79,0,0,0,0,0,0,0,0,-32316,0,0,0,3934,0,28883,0
19655,20,-8244,1054,-55,41,24,-11742,1,-1,-1,0,37348,283,26,79,0,0,0,0,0,0,0,0,-32316,0,0,0,3933,0,28903,0
19665,-30,-8222,1042,-49,40,24,-11742,1,7,0,0,37349,280,26,79,0,0,0,0,0,0,0,0,-32316,0,0,0,3933,0,28923,0
19675,-28,-8240,1026,-58,41,19,-11741,4,5,0,0,37348,274,26,79,0,0,0,0,0,0,0,0,-32316,0,0,0,3933,0,28943,0
19685,2,-8238,1054,-58,45,17,-11743,-5,3,0,0,37340,276,26,79,0,0,0,0,0,0,0,0,-32316,0,0,0,3933,0,28963,0
19695,2,-8204,1040,-57,41,16,-11743,-4,2,0,0,37351,282,26,79,0,0,0,0,0,0,0,0,-32317,0,0,0,3933,0,28983,0
19705,-22,-8242,1056,-57,42,22,-11741,8,2,0,0,37355,289,26,79,0,0,0,0,0,0,0,0,-32316,0,0,0,3933,0,29003,0
19715,10,-8228,1026,-58,42,17,-11742,0,3,0,0,37356,295,26,79,0,0,0,0,0,0,0,0,-32316,0,0,0,3934,0,29023,0
19725,4,-8210,1036,-57,44,15,-11742,-5,0,1,0,37348,297,26,79,0,0,0,0,0,0,0,0,-32317,0,0,0,3933,0,29043,0
19735,8,-8240,1016,-51,36,10,-11743,-3,-3,0,0,37344,294,26,79,0,0,0,0,0,0,0,0,-32317,0,0,0,3933,0,29063,0
19745,-4,-8232,1010,-46,33,14,-11741,3,-2,0,0,37345,290,26,79,0,0,0,0,0,0,0,0,-32316,0,0,0,3933,0,29084,0
19755,-28,-8194,1032,-43,37,5,-11743,-1,-5,1,0,37347,284,26,79,0,0,0,0,0,0,0,0,-32317,0,0,0,3933,0,29104,0
19765,14,-8224,1056,-42,31,4,-11743,-6,0,1,0,37345,281,26,79,0,0,0,0,0,0,0,0,-32317,0,0,0,3933,0,29124,0
19775,12,-8220,1074,-43,36,5,-11743,0,-5,1,0,37345,289,26,79,0,0,0,0,0,0,0,0,-32317,0,0,0,3933,0,29144,0
19785,14,-8224,1064,-46,33,6,-11742,0,1,0,0,37342,292,26,79,0,0,0,0,0,0,0,0,-32316,0,0,0,3932,0,29164,0
19795,16,-8222,1072,-50,38,12,-11742,-1,-5,0,0,37341,291,26,79,0,0,0,0,0,0,0,0,-32317,0,0,0,3932,0,29184,0
19805,12,-8236,1050,-55,39,14,-11742,-1,2,-1,0,37341,296,26,79,0,0,0,0,0,0,0,0,-32317,0,0,0,3933,0,29204,0
19815,24,-8246,1054,-54,43,14,-11743,-1,-1,0,0,37342,296,26,79,0,0,0,0,0,0,0,0,-32316,0,0,0,3933,0,29224,0
19825,36,-8238,1042,-58,37,12,-11743,-4,-1,1,0,37346,292,26,79,0,0,0,0,0,0,0,0,-32317,0,0,0,3934,0,29244,0
19835,34,-8228,1054,-52,38,18,-11743,-1,-1,1,0,37346,282,26,79,0,0,0,0,0,0,0,0,-32316,0,0,0,3933,0,29264,0
19845,30,-8250,1038,-47,39,16,-11742,-1,1,1,0,37345,281,26,79,0,0,0,0,0,0,0,0,-32316,0,0,0,3933,0,29284,0
19855,48,-8214,1048,-48,43,21,-11742,-1,1,0,0,37349,295,26,79,0,0,0,0,0,0,0,0,-32316,0,0,0,3932,0,29304,0
19865,12,-8234,1034,-50,34,15,-11743,-2,-1,0,0,37351,293,26,79,0,0,0,0,0,0,0,0,-32316,0,0,0,3932,0,29324,0
19875,2,-8224,1048,-54,32,19,-11743,-2,1,0,0,37353,288,26,79,0,0,0,0,0,0,0,0,-32316,0,0,0,3934,0,29344,0
19885,34,-8236,1068,-54,41,12,-11742,-1,0,0,0,37349,275,26,79,0,0,0,0,0,0,0,0,-32316,0,0,0,3932,0,29364,0
19895,8,-8210,1068,-54,41,12,-11743,0,3,0,0,37351,281,26,79,0,0,0,0,0,0,0,0,-32317,0,0,0,3932,0,29384,0
19905,26,-8230,1058,-53,39,18,-11743,3,-2,0,0,37352,288,26,79,0,0,0,0,0,0,0,0,-32316,0,0,0,3933,0,29404,0
19915,26,-8218,1042,-58,43,16,-11740,7,4,2,0,37354,286,26,79,0,0,0,0,0,0,0,0,-32316,0,0,0,3933,0,29424,0
19925,24,-8230,1016,-57,42,18,-11743,1,-2,0,0,37355,279,26,79,0,0,0,0,0,0,0,0,-32316,0,0,0,3932,0,29444,0
19935,30,-8240,1034,-53,40,24,-11743,0,0,0,0,37353,284,26,79,0,0,0,0,0,0,0,0,-32317,0,0,0,3933,0,29464,0
19945,28,-8252,1018,-58,40,27,-11742,3,-1,1,0,37351,288,26,79,0,0,0,0,0,0,0,0,-32316,0,0,0,3933,0,29485,0
19955,-2,-8224,1028,-53,45,22,-11742,1,0,1,0,37350,292,26,79,0,0,0,0,0,0,0,0,-32316,0,0,0,3933,0,29505,0
19965,-42,-8210,1062,-57,54,19,-11742,0,1,0,0,37350,283,26,79,0,0,0,0,0,0,0,0,-32316,0,0,0,3933,0,29525,0
19975,16,-8224,1014,-56,40,17,-11741,-1,4,0,0,37349,281,26,79,0,0,0,0,0,0,0,0,-32316,0,0,0,3932,0,29545,0
19985,14,-8226,1024,-51,40,16,-11743,-1,-3,0,0,37347,276,26,79,0,0,0,0,0,0,0,0,-32316,0,0,0,3931,0,29565,0
19995,20,-8238,1028,-53,38,16,-11744,-11,-6,0,0,37344,286,26,79,0,0,0,0,0,0,0,0,-32316,0,0,0,3932,0,29585,0
20005,26,-8212,1022,-54,39,15,-11741,5,-5,1,0,37344,289,26,79,0,0,0,0,0,0,0,0,-32318,0,0,0,3931,0,29605,0
20015,-32,-8242,1036,-46,38,14,-11742,1,2,0,0,37345,290,26,79,0,0,0,0,0,0,0,0,-32316,0,0,0,3932,0,29625,0
20025,22,-8208,1038,-50,34,12,-11741,9,-2,1,0,37344,291,26,79,0,0,0,0,0,0,0,0,-32316,0,0,0,3932,0,29645,0
20035,34,-8222,1060,-49,34,18,-11742,3,1,1,0,37345,288,26,79,0,0,0,0,0,0,0,0,-32316,0,0,0,3932,0,29666,0
20045,6,-8242,1066,-51,36,21,-11742,3,-6,1,0,37345,283,26,79,0,0,0,0,0,0,0,0,-32316,0,0,0,3933,0,29686,0
20055,26,-8234,1046,-49,40,12,-11742,-1,0,0,0,37345,280,26,79,0,0,0,0,0,0,0,0,-32316,0,0,0,3934,0,29706,0
20065,8,-8198,1048,-56,38,18,-11742,3,-1,0,0,37354,276,26,79,0,0,0,0,0,0,0,0,-32316,0,0,0,3932,0,29726,0
20075,56,-8240,1030,-53,42,19,-11742,0,1,1,0,37351,290,26,79,0,0,0,0,0,0,0,0,-32316,0,0,0,3932,0,29746,0
20085,28,-8234,1034,-53,42,22,-11742,-3,-3,0,0,37351,295,26,79,0,0,0,0,0,0,0,0,-32316,0,0,0,3932,0,29766,0
20095,16,-8204,1018,-52,35,22,-11743,-4,-8,0,0,37344,295,26,79,0,0,0,0,0,0,0,0,-32316,0,0,0,3931,0,29786,0
20105,4,-8246,1030,-47,39,18,-11742,3,2,-1,0,37345,288,26,79,0,0,0,0,0,0,0,0,-32316,0,0,0,3931,0,29806,0
20115,-32,-8216,1042,-49,39,19,-11742,5,-2,-1,0,37344,283,26,79,0,0,0,0,0,0,0,0,-32316,0,0,0,3932,0,29826,0
20125,-20,-8198,1046,-55,32,14,-11742,7,1,0,0,37342,276,26,79,0,0,0,0,0,0,0,0,-32316,0,0,0,3933,0,29847,0
20135,-8,-8252,1050,-53,40,13,-11741,5,3,0,0,37341,273,26,79,0,0,0,0,0,0,0,0,-32317,0,0,0,3933,0,29867,0
20145,-4,-8198,1046,-49,40,17,-11740,0,5,0,0,37342,278,26,79,0,0,0,0,0,0,0,0,-32316,0,0,0,3934,0,29887,0
20155,-4,-8224,1020,-49,34,15,-11741,0,-1,-1,0,37343,286,26,79,0,0,0,0,0,0,0,0,-32316,0,0,0,3933,0,29907,0
20165,8,-8224,992,-49,42,12,-11741,0,4,0,0,37349,284,26,79,0,0,0,0,0,0,0,0,-32316,0,0,0,3934,0,29927,0
20175,4,-8224,1022,-48,47,11,-11742,3,-1,1,0,37348,281,26,79,0,0,0,0,0,0,0,0,-32317,0,0,0,3931,0,29947,0
20185,34,-8210,1062,-53,42,19,-11741,8,-2,2,0,37349,280,26,79,0,0,0,0,0,0,0,0,-32316,0,0,0,3933,0,29967,0
20195,28,-8256,1064,-53,42,20,-11742,-1,5,0,0,37343,280,26,79,0,0,0,0,0,0,0,0,-32316,0,0,0,3933,0,29987,0
20205,16,-8248,1064,-54,43,18,-11742,-3,0,0,0,37341,282,26,79,0,0,0,0,0,0,0,0,-32316,0,0,0,3932,0,30007,0
20215,12,-8232,1056,-61,44,20,-11740,8,2,1,0,37339,284,26,79,0,0,0,0,0,0,0,0,-32316,0,0,0,3933,0,30027,0
20225,-18,-8246,1028,-60,47,21,-11742,-1,5,0,0,37338,286,26,79,0,0,0,0,0,0,0,0,-32316,0,0,0,3932,0,30047,0
20235,-18,-8236,1036,-55,50,18,-11741,-5,-4,0,0,37340,291,26,79,0,0,0,0,0,0,0,0,-32316,0,0,0,3931,0,30067,0
20245,16,-8220,1026,-56,48,15,-11742,-4,1,1,0,37341,290,26,79,0,0,0,0,0,0,0,0,-32316,0,0,0,3932,0,30087,0
20255,50,-8202,1026,-53,42,15,-11742,-1,-5,0,0,37341,288,26,79,0,0,0,0,0,0,0,0,-32316,0,0,0,3932,0,30107,0
20265,30,-8242,1012,-51,38,19,-11742,8,3,0,0,37343,278,26,79,0,0,0,0,0,0,0,0,-32316,0,0,0,3933,0,30127,0
20275,-32,-8238,1030,-50,35,22,-11741,-1,-5,1,0,37342,278,26,79,0,0,0,0,0,0,0,0,-32316,0,0,0,3932,0,30147,0
20285,-58,-8246,1000,-50,38,15,-11741,2,5,0,0,37342,276,26,79,0,0,0,0,0,0,0,0,-32316,0,0,0,3931,0,30167,0
20295,-48,-8242,1008,-47,40,7,-11741,-2,3,0,0,37343,281,26,79,0,0,0,0,0,0,0,0,-32317,0,0,0,3931,0,30187,0
20305,-44,-8208,1008,-45,39,0,-11741,0,0,1,0,37338,292,26,79,0,0,0,0,0,0,0,0,-32316,0,0,0,3931,0,30207,0
20315,-12,-8238,994,-43,35,-4,-11741,3,-1,1,0,37338,283,26,79,0,0,0,0,0,0,0,0,-32316,0,0,0,3932,0,30227,0
20325,0,-8230,1046,-40,31,-3,-11741,-1,3,2,0,37338,283,26,79,0,0,0,0,0,0,0,0,-32317,0,0,0,3932,0,30247,0
20335,22,-8206,1066,-41,32,-3,-11743,0,3,4,0,37340,281,26,79,0,0,0,0,0,0,0,0,-32316,0,0,0,3931,0,30267,0
20345,64,-8224,1042,-45,37,0,-11742,3,2,1,0,37339,285,26,79,0,0,0,0,0,0,0,0,-32316,0,0,0,3932,0,30287,0
20355,48,-8232,1056,-38,41,3,-11741,5,2,0,0,37336,283,26,79,0,0,0,0,0,0,0,0,-32316,0,0,0,3932,0,30307,0
20365,62,-8214,1050,-40,29,7,-11742,0,1,3,0,37335,282,26,79,0,0,0,0,0,0,0,0,-32316,0,0,0,3930,0,30327,0
20375,34,-8238,1054,-43,34,9,-11742,5,8,1,0,37342,279,26,79,0,0,0,0,0,0,0,0,-32317,0,0,0,3931,0,30348,0
20385,28,-8232,1056,-46,37,10,-11742,0,1,0,0,37344,284,26,79,0,0,0,0,0,0,0,0,-32316,0,0,0,3931,0,30368,0
20395,24,-8242,1070,-46,40,12,-11743,-4,-4,1,0,37344,285,26,79,0,0,0,0,0,0,0,0,-32316,0,0,0,3931,0,30388,0
20405,48,-8206,1058,-55,44,15,-11743,-7,0,0,0,37338,279,26,79,0,0,0,0,0,0,0,0,-32316,0,0,0,3931,0,30408,0
20415,52,-8228,1062,-55,42,19,-11742,-4,2,0,0,37336,273,26,79,0,0,0,0,0,0,0,0,-32317,0,0,0,3932,0,30428,0
20425,64,-8234,1070,-60,42,26,-11742,-1,0,0,0,37335,274,26,79,0,0,0,0,0,0,0,0,-32317,0,0,0,3932,0,30448,0
20435,60,-8228,1072,-60,44,31,-11742,-6,-1,0,0,37335,278,26,79,0,0,0,0,0,0,0,0,-32317,0,0,0,3931,0,30469,0
20445,36,-8226,1048,-62,51,37,-11742,-6,1,0,0,37335,281,26,79,0,0,0,0,0,0,0,0,-32316,0,0,0,3932,0,30489,0
20455,10,-8220,1056,-61,48,39,-11741,0,3,-2,0,37336,277,26,79,0,0,0,0,0,0,0,0,-32316,0,0,0,3931,0,30510,0
20465,34,-8206,1046,-63,45,38,-11741,2,0,-1,0,37334,278,26,79,0,0,0,0,0,0,0,0,-32316,0,0,0,3931,0,30530,0
20475,-4,-8218,1070,-64,49,43,-11739,4,0,-2,0,37335,281,26,79,0,0,0,0,0,0,0,0,-32316,0,0,0,3931,0,30550,0
20485,-16,-8236,1028,-67,54,39,-11741,-4,-1,-3,0,37342,276,26,79,0,0,0,0,0,0,0,0,-32316,0,0,0,3931,0,30570,0
20495,-62,-8192,1036,-67,64,38,-11740,-3,-2,-8,0,37344,273,26,79,0,0,0,0,0,0,0,0,-32316,0,0,0,3932,0,30590,0
20505,30,-8256,1050,-63,53,33,-11737,2,5,-7,0,37344,274,26,79,0,0,0,0,0,0,0,0,-32316,0,0,0,3931,0,30610,0
20515,0,-8246,1014,-64,37,33,-11738,-2,-4,-6,0,37341,278,26,79,0,0,0,0,0,0,0,0,-32316,0,0,0,3931,0,30630,0
20525,-104,-8222,998,-56,40,30,-11736,1,6,-5,0,37344,284,26,79,0,0,0,0,0,0,0,0,-32316,0,0,0,3932,0,30650,0
20535,-130,-8252,974,-50,36,17,-11734,0,0,-5,0,37346,284,26,79,0,0,0,0,0,0,0,0,-32316,0,0,0,3933,0,30670,0
20545,-142,-8220,974,-42,35,7,-11734,3,-5,-2,0,37342,283,26,79,0,0,0,0,0,0,0,0,-32316,0,0,0,3933,0,30691,0
20555,-116,-8186,994,-36,38,-6,-11734,-3,0,0,0,37341,282,26,79,0,0,0,0,0,0,0,0,-32316,0,0,0,3933,0,30711,0
20565,-46,-8238,1010,-33,32,-11,-11735,-5,0,2,0,37342,282,26,79,0,0,0,0,0,0,0,0,-32316,0,0,0,3932,0,30731,0
20575,-60,-8210,1036,-33,29,-15,-11734,1,-2,4,0,37342,285,26,79,0,0,0,0,0,0,0,0,-32316,0,0,0,3933,0,30751,0
20585,-8,-8206,1046,-31,28,-20,-11736,-2,0,4,0,37338,285,26,79,0,0,0,0,0,0,0,0,-32316,0,0,0,3933,0,30771,0
20595,26,-8240,1056,-32,32,-21,-11736,0,0,2,0,37340,297,26,79,0,0,0,0,0,0,0,0,-32316,0,0,0,3931,0,30791,0
20605,60,-8230,1056,-34,39,-10,-11737,-6,-1,4,0,37341,297,26,79,0,0,0,0,0,0,0,0,-32316,0,0,0,3933,0,30811,0
20615,102,-8238,1070,-36,28,-9,-11734,8,1,4,0,37344,287,26,79,0,0,0,0,0,0,0,0,-32316,0,0,0,3931,0,30831,0
20625,120,-8242,1072,-37,36,0,-11736,2,0,2,0,37341,277,26,79,0,0,0,0,0,0,0,0,-32316,0,0,0,3932,0,30851,0
20635,128,-8230,1086,-41,27,6,-11737,0,1,2,0,37340,281,26,79,0,0,0,0,0,0,0,0,-32316,0,0,0,3933,0,30871,0
20645,116,-8206,1122,-48,31,23,-11737,-7,-3,0,0,37341,285,26,79,0,0,0,0,0,0,0,0,-32316,0,0,0,3931,0,30892,0
20655,90,-8198,1104,-53,42,27,-11739,-6,2,0,0,37341,283,26,79,0,0,0,0,0,0,0,0,-32316,0,0,0,3932,0,30912,0
20665,54,-8206,1100,-65,42,32,-11737,0,-6,1,0,37340,281,26,79,0,0,0,0,0,0,0,0,-32316,0,0,0,3933,0,30932,0
20675,44,-8188,1082,-59,44,36,-11736,7,-2,0,0,37340,287,26,79,0,0,0,0,0,0,0,0,-32316,0,0,0,3932,0,30952,0
20685,12,-8210,1080,-62,38,43,-11735,8,-2,0,0,37340,292,26,79,0,0,0,0,0,0,0,0,-32316,0,0,0,3932,0,30972,0
20695,26,-8222,1050,-66,44,41,-11737,0,-2,0,0,37348,290,26,79,0,0,0,0,0,0,0,0,-32316,0,0,0,3934,0,30992,0
20705,30,-8200,1040,-65,52,42,-11737,0,-2,-2,0,37351,280,26,79,0,0,0,0,0,0,0,0,-32316,0,0,0,3932,0,31013,0
20715,-2,-8216,1046,-70,51,46,-11737,0,8,-3,0,37350,281,26,79,0,0,0,0,0,0,0,0,-32316,0,0,0,3932,0,31033,0
20725,2,-8228,1020,-68,50,43,-11736,-6,3,-2,0,37341,282,26,79,0,0,0,0,0,0,0,0,-32316,0,0,0,3932,0,31053,0
20735,-12,-8228,1026,-69,46,50,-11735,-4,-2,-2,0,37343,283,26,79,0,0,0,0,0,0,0,0,-32316,0,0,0,3933,0,31073,0
20745,-28,-8226,1026,-67,51,42,-11733,3,3,-5,0,37346,288,26,79,0,0,0,0,0,0,0,0,-32316,0,0,0,3933,0,31094,0
20755,-60,-8232,1038,-70,62,38,-11733,-5,0,-9,0,37346,285,26,79,0,0,0,0,0,0,0,0,-32316,0,0,0,3931,0,31114,0
20765,-26,-8204,988,-65,54,30,-11729,13,1,-12,0,37345,284,26,79,0,0,0,0,0,0,0,0,-32316,0,0,0,3931,0,31134,0
20775,-42,-8236,986,-57,47,33,-11727,13,0,-12,0,37344,287,26,79,0,0,0,0,0,0,0,0,-32316,0,0,0,3933,0,31154,0
20785,-72,-8250,984,-50,37,30,-11724,13,4,-14,0,37347,285,26,79,0,0,0,0,0,0,0,0,-32316,0,0,0,3933,0,31174,0
20795,-102,-8232,966,-50,30,23,-11723,0,0,-14,0,37351,287,26,79,0,0,0,0,0,0,0,0,-32316,0,0,0,3934,0,31194,0
20805,-96,-8238,990,-45,28,14,-11720,0,-2,-13,0,37350,288,26,79,0,0,0,0,0,0,0,0,-32316,0,0,0,3934,0,31214,0
20815,-86,-8236,1012,-41,35,0,-11720,2,4,-6,0,37349,291,26,79,0,0,0,0,0,0,0,0,-32316,0,0,0,3933,0,31234,0
20825,-116,-8216,1022,-37,33,-15,-11719,3,-4,2,0,37351,292,26,79,0,0,0,0,0,0,0,0,-32316,0,0,0,3933,0,31254,0
20835,-48,-8192,1032,-40,31,-19,-11720,-3,0,3,0,37348,290,26,79,0,0,0,0,0,0,0,0,-32316,0,0,0,3933,0,31274,0
20845,-4,-8228,1062,-38,30,-20,-11721,-3,-2,2,0,37346,282,26,79,0,0,0,0,0,0,0,0,-32316,0,0,0,3934,0,31294,0
20855,24,-8238,1052,-39,27,-20,-11721,0,8,4,0,37344,281,26,79,0,0,0,0,0,0,0,0,-32316,0,0,0,3933,0,31314,0
20865,52,-8206,1052,-43,28,-12,-11721,0,4,4,0,37347,282,26,79,0,0,0,0,0,0,0,0,-32316,0,0,0,3933,0,31334,0
20875,74,-8242,1028,-40,30,-15,-11721,0,-5,6,0,37350,277,26,79,0,0,0,0,0,0,0,0,-32316,0,0,0,3934,0,31354,0
20885,88,-8224,1052,-37,30,-3,-11722,-6,3,5,0,37348,284,26,79,0,0,0,0,0,0,0,0,-32316,0,0,0,3933,0,31374,0
20895,86,-8208,1074,-43,32,2,-11722,0,-1,3,0,37350,292,26,79,0,0,0,0,0,0,0,0,-32316,0,0,0,3933,0,31394,0
20905,88,-8242,1078,-42,31,11,-11724,-7,-3,3,0,37354,296,26,79,0,0,0,0,0,0,0,0,-32316,0,0,0,3932,0,31414,0
20915,52,-8218,1070,-42,31,14,-11723,-5,2,1,0,37355,289,26,79,0,0,0,0,0,0,0,0,-32316,0,0,0,3934,0,31434,0
20925,30,-8218,1074,-52,30,15,-11722,6,1,1,0,37355,281,26,79,0,0,0,0,0,0,0,0,-32317,0,0,0,3933,0,31454,0
20935,20,-8238,1106,-56,39,23,-11724,-11,1,0,0,37350,282,26,79,0,0,0,0,0,0,0,0,-32316,0,0,0,3934,0,31474,0
20945,8,-8228,1094,-66,48,22,-11722,5,-1,0,0,37350,287,26,79,0,0,0,0,0,0,0,0,-32316,0,0,0,3933,0,31494,0
20955,26,-8180,1060,-61,48,24,-11724,0,-4,-1,0,37347,289,26,79,0,0,0,0,0,0,0,0,-32316,0,0,0,3933,0,31514,0
20965,44,-8214,1042,-62,49,29,-11723,-2,2,-1,0,37346,288,26,79,0,0,0,0,0,0,0,0,-32316,0,0,0,3933,0,31534,0
20975,38,-8192,1068,-68,44,36,-11723,-9,1,-1,0,37357,286,26,79,0,0,0,0,0,0,0,0,-32316,0,0,0,3933,0,31554,0
20985,14,-8228,1054,-67,47,36,-11723,0,-4,-2,0,37368,292,26,79,0,0,0,0,0,0,0,0,-32316,0,0,0,3933,0,31574,0
20995,-8,-8248,1020,-67,53,37,-11721,7,7,-1,0,37376,291,26,79,0,0,0,0,0,0,0,0,-32316,0,0,0,3934,0,31594,0
21005,-24,-8218,1018,-64,52,37,-11720,0,4,-4,0,37374,296,26,79,0,0,0,0,0,0,0,0,-32317,0,0,0,3934,0,31614,0
21015,-28,-8224,1002,-64,50,33,-11720,8,0,-1,0,37365,296,26,79,0,0,0,0,0,0,0,0,-32316,0,0,0,3934,0,31634,0
21025,-50,-8246,1008,-66,48,31,-11721,0,-3,-2,0,37354,289,26,79,0,0,0,0,0,0,0,0,-32317,0,0,0,3934,0,31654,0
21035,-32,-8204,996,-64,44,28,-11720,3,-1,-2,0,37345,289,26,79,0,0,0,0,0,0,0,0,-32317,0,0,0,3933,0,31674,0
21045,-32,-8238,1010,-61,41,20,-11719,2,-1,-1,0,37345,288,26,79,0,0,0,0,0,0,0,0,-32316,0,0,0,3933,0,31694,0
21055,-28,-8228,992,-55,35,20,-11719,0,-2,0,0,37345,289,26,79,0,0,0,0,0,0,0,0,-32317,0,0,0,3933,0,31714,0
21065,-52,-8228,988,-54,33,15,-11719,7,-1,1,0,37345,276,26,79,0,0,0,0,0,0,0,0,-32317,0,0,0,3934,0,31734,0
21075,-34,-8214,1012,-47,40,8,-11720,-7,-2,1,0,37344,272,26,79,0,0,0,0,0,0,0,0,-32317,0,0,0,3934,0,31754,0
21085,-44,-8244,1028,-46,37,3,-11719,6,-2,1,0,37343,279,26,79,0,0,0,0,0,0,0,0,-32316,0,0,0,3934,0,31774,0
21095,-32,-8216,1030,-45,34,4,-11721,-4,-2,1,0,37342,287,26,79,0,0,0,0,0,0,0,0,-32316,0,0,0,3933,0,31794,0
21105,22,-8198,1068,-49,37,-1,-11720,0,-2,2,0,37346,285,26,79,0,0,0,0,0,0,0,0,-32316,0,0,0,3934,0,31814,0
21115,14,-8232,1036,-48,39,-1,-11721,-1,-3,1,0,37351,286,26,79,0,0,0,0,0,0,0,0,-32316,0,0,0,3934,0,31834,0
21125,32,-8232,1000,-53,39,6,-11720,1,-1,1,0,37350,287,26,79,0,0,0,0,0,0,0,0,-32317,0,0,0,3933,0,31854,0
21135,14,-8212,1040,-46,37,11,-11720,6,3,1,0,37349,290,26,79,0,0,0,0,0,0,0,0,-32316,0,0,0,3934,0,31874,0
21145,16,-8220,1008,-49,41,11,-11721,-7,0,0,0,37344,286,26,79,0,0,0,0,0,0,0,0,-32316,0,0,0,3933,0,31894,0
21155,44,-8240,1050,-42,42,10,-11721,4,-5,1,0,37347,285,26,79,0,0,0,0,0,0,0,0,-32316,0,0,0,3933,0,31914,0
21165,-6,-8200,1070,-46,37,16,-11719,2,3,0,0,37347,286,26,79,0,0,0,0,0,0,0,0,-32316,0,0,0,3933,0,31934,0
21175,36,-8236,1078,-48,43,15,-11719,18,6,1,0,37347,292,26,79,0,0,0,0,0,0,0,0,-32316,0,0,0,3934,0,31954,0
21185,20,-8202,1064,-51,43,15,-11721,-8,6,0,0,37346,289,26,79,0,0,0,0,0,0,0,0,-32316,0,0,0,3934,0,31974,0
21195,30,-8226,1052,-52,43,17,-11720,5,-3,0,0,37346,286,26,79,0,0,0,0,0,0,0,0,-32316,0,0,0,3933,0,31994,0
21205,54,-8232,1024,-52,40,21,-11720,1,2,1,0,37347,282,26,79,0,0,0,0,0,0,0,0,-32316,0,0,0,3934,0,32014,0
21215,18,-8228,1026,-56,45,21,-11720,0,1,0,0,37349,283,26,79,0,0,0,0,0,0,0,0,-32316,0,0,0,3933,0,32034,0
21225,12,-8238,996,-53,42,24,-11721,-1,0,0,0,37346,289,26,79,0,0,0,0,0,0,0,0,-32316,0,0,0,3932,0,32054,0
21235,-26,-8226,1040,-55,44,26,-11720,2,-3,-2,0,37344,291,26,79,0,0,0,0,0,0,0,0,-32316,0,0,0,3933,0,32074,0
21245,12,-8218,1080,-51,48,25,-11719,3,-6,0,0,37341,292,26,79,0,0,0,0,0,0,0,0,-32316,0,0,0,3933,0,32094,0
21255,-16,-8212,1056,-57,42,24,-11719,3,-2,0,0,37339,291,26,79,0,0,0,0,0,0,0,0,-32316,0,0,0,3934,0,32114,0
21265,6,-8194,1048,-57,45,25,-11718,0,-3,0,0,37338,286,26,79,0,0,0,0,0,0,0,0,-32316,0,0,0,3933,0,32134,0
21275,-20,-8204,1042,-58,41,16,-11720,2,1,0,0,37338,283,26,79,0,0,0,0,0,0,0,0,-32317,0,0,0,3934,0,32154,0
21285,-42,-8240,1012,-60,47,17,-11719,5,-2,0,0,37339,280,26,79,0,0,0,0,0,0,0,0,-32317,0,0,0,3933,0,32174,0
21295,-36,-8164,1012,-55,41,11,-11720,5,-4,0,0,37339,278,26,79,0,0,0,0,0,0,0,0,-32316,0,0,0,3934,0,32194,0
21305,-24,-8224,1002,-49,37,16,-11719,7,6,1,0,37337,286,26,79,0,0,0,0,0,0,0,0,-32316,0,0,0,3933,0,32214,0
21315,-10,-8232,1030,-46,40,12,-11721,-11,2,1,0,37337,290,26,79,0,0,0,0,0,0,0,0,-32316,0,0,0,3934,0,32234,0
21325,6,-8204,1040,-45,41,11,-11719,-5,3,1,0,37340,292,26,79,0,0,0,0,0,0,0,0,-32316,0,0,0,3934,0,32254,0
21335,-2,-8246,1028,-44,44,13,-11720,3,2,1,0,37341,294,26,79,0,0,0,0,0,0,0,0,-32317,0,0,0,3934,0,32275,0
21345,10,-8222,1036,-48,42,10,-11719,5,-4,2,0,37342,292,26,79,0,0,0,0,0,0,0,0,-32316,0,0,0,3934,0,32294,0
21355,10,-8206,1034,-51,33,10,-11720,1,2,1,0,37336,286,26,79,0,0,0,0,0,0,0,0,-32316,0,0,0,3934,0,32314,0
21365,42,-8218,1042,-51,38,18,-11720,-3,-1,0,0,37335,278,26,79,0,0,0,0,0,0,0,0,-32316,0,0,0,3933,0,32334,0
21375,20,-8206,1030,-45,36,15,-11720,-14,2,1,0,37336,279,26,79,0,0,0,0,0,0,0,0,-32316,0,0,0,3933,0,32355,0
21385,10,-8214,1048,-50,34,16,-11720,-1,5,0,0,37337,295,26,79,0,0,0,0,0,0,0,0,-32316,0,0,0,3933,0,32375,0
21395,8,-8246,1044,-52,40,22,-11720,-5,-1,0,0,37336,291,26,79,0,0,0,0,0,0,0,0,-32316,0,0,0,3933,0,32395,0
21405,-4,-8218,1036,-51,41,20,-11720,-1,-3,0,0,37335,282,26,79,0,0,0,0,0,0,0,0,-32316,0,0,0,3933,0,32415,0
21415,-12,-8206,1028,-52,39,16,-11719,4,5,0,0,37334,276,26,79,0,0,0,0,0,0,0,0,-32316,0,0,0,3934,0,32435,0
21425,-26,-8254,986,-49,34,12,-11720,-5,0,1,0,37335,286,26,79,0,0,0,0,0,0,0,0,-32316,0,0,0,3933,0,32455,0
21435,-20,-8250,1014,-49,39,8,-11719,1,1,0,0,37341,293,26,79,0,0,0,0,0,0,0,0,-32316,0,0,0,3933,0,32475,0
21445,-60,-8204,1000,-45,33,5,-11719,0,-1,1,0,37341,294,26,79,0,0,0,0,0,0,0,0,-32316,0,0,0,3933,0,32495,0
21455,-78,-8232,1004,-41,36,1,-11720,-5,-1,1,0,37339,300,26,79,0,0,0,0,0,0,0,0,-32317,0,0,0,3933,0,32515,0
21465,-70,-8238,990,-37,30,-6,-11720,2,-1,2,0,37334,289,26,79,0,0,0,0,0,0,0,0,-32316,0,0,0,3933,0,32535,0
21475,2,-8208,1018,-32,37,-7,-11721,-6,-2,3,0,37334,295,26,79,0,0,0,0,0,0,0,0,-32316,0,0,0,3933,0,32555,0
21485,64,-8232,1016,-42,36,-15,-11721,-2,-3,6,0,37336,285,26,79,0,0,0,0,0,0,0,0,-32316,0,0,0,3933,0,32575,0
21495,62,-8224,1044,-34,34,-7,-11723,0,0,3,0,37336,286,26,79,0,0,0,0,0,0,0,0,-32316,0,0,0,3933,0,32595,0
21505,74,-8208,1080,-34,32,4,-11721,-3,-2,3,0,37335,282,26,79,0,0,0,0,0,0,0,0,-32316,0,0,0,3933,0,32615,0
21515,52,-8232,1084,-43,32,8,-11722,6,2,2,0,37335,275,26,79,0,0,0,0,0,0,0,0,-32316,0,0,0,3934,0,32635,0
21525,54,-8234,1084,-45,37,11,-11722,8,0,1,0,37336,282,26,79,0,0,0,0,0,0,0,0,-32316,0,0,0,3931,0,32655,0
21535,58,-8230,1082,-51,43,14,-11723,5,-3,-1,0,37338,285,26,79,0,0,0,0,0,0,0,0,-32316,0,0,0,3931,0,32675,0
21545,48,-8256,1048,-49,44,19,-11723,6,-2,0,0,37341,284,26,79,0,0,0,0,0,0,0,0,-32316,0,0,0,3934,0,32695,0
21555,76,-8236,1060,-55,43,24,-11722,-2,3,-2,0,37340,283,26,79,0,0,0,0,0,0,0,0,-32316,0,0,0,3931,0,32715,0
