state_time,accelx,accely,accelz,gyrox,gyroy,gyroz,mot_ang,mot_vel,mot_acc,mot_cur,mot_volt,batt_volt,batt_curr,temperature,status_mn,status_ex,status_re,genvar_0,genvar_1,genvar_2,genvar_3,genvar_4,genvar_5,genvar_6,genvar_7,genvar_8,genvar_9,ank_ang,ank_vel,sys_time,event flags
15507,-102,-8192,834,-45,14,5,11042,-2,3,0,0,36680,76,25,144,0,0,0,0,0,0,0,0,-32294,0,0,0,4184,0,2628,0
15517,-110,-8188,860,-42,10,8,11042,-6,-5,0,0,36678,74,25,144,0,0,0,0,0,0,0,0,-32294,0,0,0,4183,0,15507,0
15527,-104,-8218,836,-42,15,9,11042,-6,3,-1,0,36675,69,25,144,0,0,0,0,0,0,0,0,-32294,0,0,0,4183,0,15507,0
15537,-102,-8196,860,-43,16,3,11043,0,-2,0,0,36678,56,25,144,0,0,0,0,0,0,0,0,-32294,0,0,0,4182,0,15507,0
15547,-126,-8220,828,-49,8,6,11043,0,1,-1,0,36681,69,25,144,0,0,0,0,0,0,0,0,-32294,0,0,0,4184,0,15507,0
15557,-98,-8194,850,-43,11,3,11043,0,2,-1,0,36676,73,25,144,0,0,0,0,0,0,0,0,-32294,0,0,0,4184,0,15507,0
15567,-90,-8196,866,-43,12,6,11044,-2,-3,0,0,36675,63,25,144,0,0,0,0,0,0,0,0,-32294,0,0,0,4182,0,15507,0
15577,-106,-8206,858,-49,10,4,11043,3,1,0,0,36681,56,25,144,0,0,0,0,0,0,0,0,-32294,0,0,0,4182,0,15507,0
15587,-110,-8178,834,-45,11,4,11044,1,-3,-2,0,36685,68,25,144,0,0,0,0,0,0,0,0,-32294,0,0,0,4183,0,15507,0
15597,-122,-8198,858,-46,11,5,11043,1,3,1,0,36681,70,25,144,0,0,0,0,0,0,0,0,-32294,0,0,0,4183,0,15507,0
15607,-98,-8200,816,-47,7,3,11043,9,0,0,0,36684,77,25,144,0,0,0,0,0,0,0,0,-32294,0,0,0,4183,0,15507,0
15617,-102,-8194,844,-51,10,-3,11043,2,-4,-1,0,36688,70,25,144,0,0,0,0,0,0,0,0,-32295,0,0,0,4182,0,15507,0
15627,-118,-8194,854,-50,10,3,11043,-1,-5,-2,0,36692,75,25,144,0,0,0,0,0,0,0,0,-32294,0,0,0,4182,0,15508,0
15637,-112,-8208,830,-47,13,0,11044,3,-3,-2,0,36682,64,25,144,0,0,0,0,0,0,0,0,-32294,0,0,0,4183,0,15517,0
15647,-78,-8194,844,-52,14,3,11043,2,-1,0,0,36677,75,25,144,0,0,0,0,0,0,0,0,-32294,0,0,0,4184,0,15528,0
15657,-90,-8202,844,-42,16,9,11043,-1,-3,0,0,36677,64,25,144,0,0,0,0,0,0,0,0,-32294,0,0,0,4184,0,15538,0
15667,-96,-8212,816,-44,14,13,11042,-6,2,-1,0,36681,72,25,144,0,0,0,0,0,0,0,0,-32294,0,0,0,4183,0,15548,0
15677,-86,-8204,848,-44,17,8,11041,-7,0,0,0,36680,80,25,144,0,0,0,0,0,0,0,0,-32294,0,0,0,4182,0,15558,0
15687,-94,-8184,840,-46,18,11,11044,6,2,0,0,36678,76,25,144,0,0,0,0,0,0,0,0,-32294,0,0,0,4184,0,15568,0
15697,-96,-8192,846,-44,11,4,11042,1,3,0,0,36678,72,25,144,0,0,0,0,0,0,0,0,-32294,0,0,0,4184,0,15578,0
15707,-132,-8212,868,-39,13,6,11043,-2,2,-2,0,36682,54,25,144,0,0,0,0,0,0,0,0,-32294,0,0,0,4185,0,15597,0
15717,-124,-8188,870,-49,13,10,11043,-4,1,-1,0,36689,59,25,144,0,0,0,0,0,0,0,0,-32294,0,0,0,4184,0,15607,0
15727,-112,-8184,858,-47,10,8,11042,-2,-4,0,0,36682,65,25,144,0,0,0,0,0,0,0,0,-32294,0,0,0,4184,0,15620,0
15737,-102,-8208,846,-44,16,9,11043,2,0,-1,0,36682,65,25,144,0,0,0,0,0,0,0,0,-32294,0,0,0,4184,0,15630,0
15747,-96,-8164,830,-44,18,7,11043,-1,4,0,0,36681,73,25,144,0,0,0,0,0,0,0,0,-32294,0,0,0,4184,0,15640,0
15757,-126,-8222,816,-43,12,3,11043,0,-4,0,0,36686,66,25,144,0,0,0,0,0,0,0,0,-32294,0,0,0,4184,0,15656,0
15767,-110,-8224,900,-45,10,5,11042,-5,1,-1,0,36682,70,25,144,0,0,0,0,0,0,0,0,-32293,0,0,0,4183,0,15671,0
15777,-108,-8164,870,-46,11,4,11042,4,-1,-1,0,36679,78,25,144,0,0,0,0,0,0,0,0,-32294,0,0,0,4182,0,15681,0
15787,-98,-8182,854,-50,10,6,11042,0,-2,-1,0,36682,63,25,144,0,0,0,0,0,0,0,0,-32294,0,0,0,4183,0,15692,0
15797,-88,-8220,850,-53,10,4,11042,-1,0,0,0,36685,64,25,144,0,0,0,0,0,0,0,0,-32293,0,0,0,4184,0,15702,0
15807,-82,-8186,886,-48,15,3,11043,0,1,1,0,36684,74,25,144,0,0,0,0,0,0,0,0,-32294,0,0,0,4184,0,15712,0
15817,-90,-8234,854,-48,10,4,11043,2,-5,0,0,36685,69,25,144,0,0,0,0,0,0,0,0,-32294,0,0,0,4185,0,15722,0
15827,-74,-8232,864,-51,5,6,11043,2,-1,-1,0,36693,61,25,144,0,0,0,0,0,0,0,0,-32294,0,0,0,4183,0,15733,0
15837,-116,-8174,838,-52,12,8,11044,0,-5,0,0,36698,45,25,144,0,0,0,0,0,0,0,0,-32294,0,0,0,4184,0,15745,0
15847,-102,-8196,840,-50,13,10,11042,-4,0,-1,0,36698,59,25,144,0,0,0,0,0,0,0,0,-32294,0,0,0,4183,0,15755,0
15857,-98,-8204,846,-50,13,12,11043,3,8,-1,0,36684,73,25,144,0,0,0,0,0,0,0,0,-32294,0,0,0,4182,0,15765,0
15867,-106,-8194,856,-51,14,12,11042,-5,0,-1,0,36685,77,25,144,0,0,0,0,0,0,0,0,-32294,0,0,0,4182,0,15775,0
15877,-86,-8178,850,-49,16,14,11042,-1,4,0,0,36701,70,25,144,0,0,0,0,0,0,0,0,-32294,0,0,0,4182,0,15788,0
15887,-106,-8200,858,-46,12,15,11045,9,-2,0,0,36719,80,25,144,0,0,0,0,0,0,0,0,-32294,0,0,0,4182,0,15798,0
15897,-104,-8208,846,-49,17,13,11044,5,-2,0,0,36715,83,25,144,0,0,0,0,0,0,0,0,-32293,0,0,0,4184,0,15808,0
15907,-96,-8194,846,-51,14,13,11043,-1,-1,0,0,36699,68,25,144,0,0,0,0,0,0,0,0,-32294,0,0,0,4183,0,15818,0
15917,-104,-8190,860,-54,16,16,11044,1,-5,0,0,36692,66,25,144,0,0,0,0,0,0,0,0,-32294,0,0,0,4184,0,15831,0
15927,-98,-8192,870,-48,17,15,11043,-2,-5,-2,0,36697,69,25,144,0,0,0,0,0,0,0,0,-32294,0,0,0,4183,0,15841,0
15937,-102,-8190,828,-50,15,12,11044,1,4,0,0,36692,70,25,144,0,0,0,0,0,0,0,0,-32294,0,0,0,4184,0,15851,0
15947,-98,-8202,836,-50,22,14,11042,-8,-2,0,0,36686,72,25,144,0,0,0,0,0,0,0,0,-32294,0,0,0,4183,0,15861,0
15957,-140,-8198,846,-55,13,12,11043,1,4,0,0,36686,53,25,144,0,0,0,0,0,0,0,0,-32294,0,0,0,4184,0,15873,0
15967,-96,-8204,850,-51,18,12,11043,0,2,-3,0,36691,58,25,144,0,0,0,0,0,0,0,0,-32294,0,0,0,4184,0,15883,0
15977,-114,-8228,842,-48,13,13,11043,0,2,0,0,36689,63,25,144,0,0,0,0,0,0,0,0,-32294,0,0,0,4184,0,15893,0
15987,-114,-8212,838,-47,17,8,11044,8,-2,0,0,36686,70,25,144,0,0,0,0,0,0,0,0,-32294,0,0,0,4185,0,15903,0
15997,-102,-8184,862,-47,15,14,11044,-1,-3,-1,0,36684,71,25,144,0,0,0,0,0,0,0,0,-32294,0,0,0,4185,0,15916,0
16007,-110,-8196,844,-50,12,16,11044,4,0,-1,0,36689,65,25,144,0,0,0,0,0,0,0,0,-32294,0,0,0,4183,0,15926,0
16017,-116,-8228,862,-48,16,18,11043,-3,0,-1,0,36692,65,25,144,0,0,0,0,0,0,0,0,-32294,0,0,0,4184,0,15936,0
16027,-120,-8212,820,-48,15,17,11043,0,-6,0,0,36688,74,25,144,0,0,0,0,0,0,0,0,-32294,0,0,0,4184,0,15946,0
16037,-124,-8214,858,-51,15,16,11043,2,0,0,0,36694,78,25,144,0,0,0,0,0,0,0,0,-32294,0,0,0,4185,0,15958,0
16047,-102,-8158,826,-47,11,16,11042,2,3,-1,0,36695,76,25,144,0,0,0,0,0,0,0,0,-32294,0,0,0,4185,0,15968,0
16057,-136,-8198,856,-45,16,10,11043,2,-5,0,0,36697,70,25,144,0,0,0,0,0,0,0,0,-32294,0,0,0,4185,0,15978,0
16067,-118,-8214,864,-46,13,12,11042,-3,2,-1,0,36681,74,25,144,0,0,0,0,0,0,0,0,-32294,0,0,0,4185,0,15988,0
16077,-136,-8186,866,-54,16,11,11043,-2,1,0,0,36678,67,25,144,0,0,0,0,0,0,0,0,-32294,0,0,0,4186,0,16000,0
16087,-120,-8180,858,-48,15,11,11043,-2,-1,0,0,36681,63,25,144,0,0,0,0,0,0,0,0,-32294,0,0,0,4185,0,16010,0
16097,-102,-8216,844,-51,15,12,11044,7,-1,-1,0,36686,68,25,144,0,0,0,0,0,0,0,0,-32294,0,0,0,4185,0,16020,0
16107,-130,-8200,822,-52,19,16,11043,5,1,0,0,36685,63,25,144,0,0,0,0,0,0,0,0,-32294,0,0,0,4185,0,16034,0
16117,-136,-8176,862,-51,11,21,11043,-1,-3,-2,0,36678,66,25,144,0,0,0,0,0,0,0,0,-32294,0,0,0,4185,0,16044,0
16127,-118,-8206,840,-50,13,16,11043,3,1,0,0,36680,49,25,144,0,0,0,0,0,0,0,0,-32293,0,0,0,4184,0,16054,0
16137,-88,-8188,850,-44,13,18,11042,-4,2,2,0,36684,54,25,144,0,0,0,0,0,0,0,0,-32294,0,0,0,4185,0,16064,0
16147,-126,-8214,852,-48,15,15,11043,-2,-5,-1,0,36693,81,25,144,0,0,0,0,0,0,0,0,-32294,0,0,0,4186,0,16077,0
16157,-96,-8198,842,-47,16,18,11043,0,0,-1,0,36689,86,25,144,0,0,0,0,0,0,0,0,-32294,0,0,0,4186,0,16087,0
16167,-134,-8216,852,-50,11,15,11043,3,3,0,0,36685,85,25,144,0,0,0,0,0,0,0,0,-32294,0,0,0,4186,0,16097,0
16177,-138,-8220,856,-49,16,19,11043,0,0,-1,0,36682,64,25,144,0,0,0,0,0,0,0,0,-32294,0,0,0,4186,0,16108,0
16187,-122,-8206,840,-50,15,9,11043,-6,-1,-1,0,36686,73,25,144,0,0,0,0,0,0,0,0,-32294,0,0,0,4186,0,16118,0
16197,-142,-8206,832,-47,13,11,11042,-8,-4,0,0,36679,76,25,144,0,0,0,0,0,0,0,0,-32294,0,0,0,4186,0,16133,0
16207,-120,-8196,836,-55,16,13,11042,-5,-4,-2,0,36675,62,25,144,0,0,0,0,0,0,0,0,-32294,0,0,0,4186,0,16143,0
16217,-114,-8180,860,-52,16,18,11043,0,4,-1,0,36678,57,25,144,0,0,0,0,0,0,0,0,-32294,0,0,0,4186,0,16153,0
16227,-136,-8234,870,-50,12,15,11044,3,-1,-1,0,36685,60,25,144,0,0,0,0,0,0,0,0,-32294,0,0,0,4186,0,16167,0
16237,-154,-8192,838,-50,12,13,11042,-3,-1,0,0,36681,65,25,144,0,0,0,0,0,0,0,0,-32294,0,0,0,4186,0,16177,0
16247,-104,-8184,850,-57,13,11,11043,9,2,0,0,36678,64,25,144,0,0,0,0,0,0,0,0,-32294,0,0,0,4186,0,16187,0
16257,-128,-8230,854,-53,15,5,11044,8,4,-1,0,36680,67,25,144,0,0,0,0,0,0,0,0,-32294,0,0,0,4186,0,16197,0
16267,-106,-8198,830,-54,10,7,11043,-4,-3,0,0,36681,66,25,144,0,0,0,0,0,0,0,0,-32294,0,0,0,4186,0,16211,0
16277,-118,-8210,826,-52,14,7,11044,3,0,0,0,36678,66,25,144,0,0,0,0,0,0,0,0,-32294,0,0,0,4186,0,16221,0
16287,-134,-8182,844,-50,11,4,11043,0,2,-1,0,36674,76,25,144,0,0,0,0,0,0,0,0,-32294,0,0,0,4186,0,16231,0
16297,-126,-8212,826,-53,7,5,11043,6,4,-1,0,36677,67,25,144,0,0,0,0,0,0,0,0,-32294,0,0,0,4186,0,16241,0
16307,-126,-8170,862,-50,13,4,11044,0,-3,-1,0,36679,64,25,144,0,0,0,0,0,0,0,0,-32293,0,0,0,4186,0,16253,0
16317,-114,-8202,848,-50,15,3,11042,1,-3,-1,0,36676,68,25,144,0,0,0,0,0,0,0,0,-32293,0,0,0,4186,0,16263,0
16327,-94,-8198,864,-49,14,2,11043,4,2,-2,0,36674,70,25,144,0,0,0,0,0,0,0,0,-32294,0,0,0,4186,0,16273,0
16337,-120,-8186,868,-54,9,7,11042,0,-1,0,0,36672,72,25,144,0,0,0,0,0,0,0,0,-32294,0,0,0,4186,0,16283,0
16347,-96,-8214,840,-51,9,6,11043,5,0,-2,0,36680,60,25,144,0,0,0,0,0,0,0,0,-32293,0,0,0,4186,0,16296,0
16357,-96,-8190,814,-41,11,10,11044,-1,1,-1,0,36680,66,25,144,0,0,0,0,0,0,0,0,-32294,0,0,0,4186,0,16306,0
16367,-118,-8196,836,-46,16,11,11044,5,-4,0,0,36675,69,25,144,0,0,0,0,0,0,0,0,-32294,0,0,0,4185,0,16316,0
16377,-118,-8224,834,-47,16,7,11043,1,2,0,0,36670,69,25,144,0,0,0,0,0,0,0,0,-32294,0,0,0,4186,0,16326,0
16387,-114,-8200,850,-46,15,3,11042,-4,-6,-1,0,36676,73,25,144,0,0,0,0,0,0,0,0,-32293,0,0,0,4186,0,16339,0
16397,-126,-8172,866,-47,11,5,11043,2,3,0,0,36680,76,25,144,0,0,0,0,0,0,0,0,-32294,0,0,0,4186,0,16349,0
16407,-138,-8210,862,-51,15,7,11043,4,-3,-1,0,36674,76,25,144,0,0,0,0,0,0,0,0,-32294,0,0,0,4186,0,16359,0
16417,-124,-8200,860,-48,10,6,11044,6,-1,0,0,36670,61,25,144,0,0,0,0,0,0,0,0,-32294,0,0,0,4186,0,16369,0
16427,-114,-8188,856,-42,14,5,11043,0,4,-2,0,36675,50,25,144,0,0,0,0,0,0,0,0,-32294,0,0,0,4186,0,16382,0
16437,-110,-8216,838,-48,11,6,11043,-5,-6,-1,0,36683,63,25,144,0,0,0,0,0,0,0,0,-32294,0,0,0,4187,0,16391,0
16447,-120,-8190,848,-50,16,-1,11042,5,4,0,0,36686,83,25,144,0,0,0,0,0,0,0,0,-32294,0,0,0,4186,0,16401,0
16457,-104,-8198,854,-48,15,3,11044,4,2,0,0,36677,87,25,144,0,0,0,0,0,0,0,0,-32293,0,0,0,4186,0,16414,0
16467,-126,-8214,832,-47,9,1,11042,-6,0,0,0,36672,69,25,144,0,0,0,0,0,0,0,0,-32294,0,0,0,4187,0,16424,0
16477,-108,-8182,868,-43,18,2,11043,3,5,-1,0,36673,66,25,144,0,0,0,0,0,0,0,0,-32294,0,0,0,4186,0,16434,0
16487,-120,-8208,840,-47,12,-2,11043,4,-1,0,0,36675,75,25,144,0,0,0,0,0,0,0,0,-32294,0,0,0,4186,0,16444,0
16497,-114,-8212,844,-50,14,3,11042,-9,-3,-1,0,36669,61,25,144,0,0,0,0,0,0,0,0,-32294,0,0,0,4186,0,16457,0
16507,-84,-8190,838,-47,13,0,11043,-3,-2,-1,0,36667,59,25,144,0,0,0,0,0,0,0,0,-32294,0,0,0,4186,0,16467,0
16517,-116,-8186,830,-51,15,6,11042,0,0,0,0,36674,54,25,144,0,0,0,0,0,0,0,0,-32294,0,0,0,4186,0,16477,0
16527,-116,-8208,846,-43,15,2,11043,0,5,0,0,36680,67,25,144,0,0,0,0,0,0,0,0,-32294,0,0,0,4186,0,16487,0
16537,-112,-8208,850,-51,15,5,11044,2,-2,-1,0,36673,71,25,144,0,0,0,0,0,0,0,0,-32294,0,0,0,4186,0,16499,0
16547,-102,-8182,832,-48,12,7,11042,-7,1,-2,0,36669,64,25,144,0,0,0,0,0,0,0,0,-32293,0,0,0,4186,0,16509,0
16557,-134,-8198,834,-47,15,8,11042,3,-3,0,0,36680,75,25,144,0,0,0,0,0,0,0,0,-32294,0,0,0,4186,0,16519,0
16567,-98,-8196,840,-48,15,5,11043,-4,2,0,0,36686,73,25,144,0,0,0,0,0,0,0,0,-32294,0,0,0,4186,0,16529,0
16577,-114,-8182,862,-49,17,4,11043,2,5,-2,0,36682,66,25,144,0,0,0,0,0,0,0,0,-32294,0,0,0,4186,0,16541,0
16587,-102,-8220,854,-49,12,8,11043,-2,0,0,0,36670,70,25,144,0,0,0,0,0,0,0,0,-32294,0,0,0,4186,0,16551,0
16597,-112,-8198,860,-45,19,6,11044,4,0,-1,0,36673,56,25,144,0,0,0,0,0,0,0,0,-32294,0,0,0,4186,0,16561,0
16607,-112,-8198,874,-49,13,10,11043,-1,1,0,0,36679,64,25,144,0,0,0,0,0,0,0,0,-32294,0,0,0,4186,0,16574,0
16617,-122,-8236,840,-47,14,10,11042,-4,1,0,0,36678,63,25,144,0,0,0,0,0,0,0,0,-32293,0,0,0,4186,0,16584,0
16627,-112,-8178,846,-50,12,6,11043,0,0,-1,0,36678,64,25,144,0,0,0,0,0,0,0,0,-32294,0,0,0,4186,0,16594,0
16637,-114,-8214,836,-44,13,5,11043,0,1,0,0,36678,59,25,144,0,0,0,0,0,0,0,0,-32294,0,0,0,4185,0,16604,0
16647,-126,-8204,844,-50,14,5,11043,7,-2,-2,0,36682,56,25,144,0,0,0,0,0,0,0,0,-32294,0,0,0,4186,0,16619,0
16657,-122,-8208,848,-42,11,3,11043,-1,0,-1,0,36687,76,25,144,0,0,0,0,0,0,0,0,-32294,0,0,0,4186,0,16629,0
16667,-132,-8186,844,-47,13,2,11043,7,0,1,0,36680,77,25,144,0,0,0,0,0,0,0,0,-32294,0,0,0,4186,0,16639,0
16677,-110,-8194,840,-39,15,1,11044,2,0,-1,0,36677,81,25,144,0,0,0,0,0,0,0,0,-32293,0,0,0,4186,0,16649,0
16687,-122,-8196,890,-42,14,3,11041,-7,-3,-1,0,36674,73,25,144,0,0,0,0,0,0,0,0,-32293,0,0,0,4186,0,16662,0
16697,-118,-8200,866,-45,11,5,11042,1,1,-2,0,36681,79,25,144,0,0,0,0,0,0,0,0,-32294,0,0,0,4186,0,16672,0
16707,-102,-8180,854,-47,5,-2,11043,1,0,-2,0,36677,87,25,144,0,0,0,0,0,0,0,0,-32294,0,0,0,4186,0,16682,0
16717,-106,-8200,862,-54,8,3,11043,-1,2,0,0,36673,58,25,144,0,0,0,0,0,0,0,0,-32294,0,0,0,4186,0,16692,0
16727,-126,-8168,842,-51,10,-3,11044,2,2,-1,0,36674,58,25,144,0,0,0,0,0,0,0,0,-32294,0,0,0,4186,0,16705,0
16737,-114,-8200,854,-51,9,-7,11043,-2,0,0,0,36681,64,25,144,0,0,0,0,0,0,0,0,-32294,0,0,0,4186,0,16715,0
16747,-102,-8220,840,-52,12,-1,11042,-4,3,0,0,36680,75,25,144,0,0,0,0,0,0,0,0,-32294,0,0,0,4186,0,16725,0
16757,-88,-8206,816,-44,12,-5,11044,5,5,0,0,36677,76,25,144,0,0,0,0,0,0,0,0,-32294,0,0,0,4186,0,16737,0
16767,-90,-8188,828,-47,13,-4,11041,-12,-3,0,0,36681,57,25,144,0,0,0,0,0,0,0,0,-32294,0,0,0,4186,0,16749,0
16777,-68,-8212,852,-47,9,4,11043,-8,2,-1,0,36690,69,25,144,0,0,0,0,0,0,0,0,-32294,0,0,0,4186,0,16759,0
16787,-98,-8212,858,-45,14,2,11044,3,-2,-1,0,36688,78,25,144,0,0,0,0,0,0,0,0,-32293,0,0,0,4186,0,16769,0
16797,-78,-8178,884,-47,13,7,11043,1,0,0,0,36678,77,25,144,0,0,0,0,0,0,0,0,-32294,0,0,0,4185,0,16782,0
16807,-102,-8206,872,-51,13,2,11043,-2,0,-1,0,36675,67,25,144,0,0,0,0,0,0,0,0,-32294,0,0,0,4186,0,16792,0
16817,-104,-8194,836,-50,12,3,11041,0,3,0,0,36681,64,25,144,0,0,0,0,0,0,0,0,-32294,0,0,0,4186,0,16802,0
16827,-138,-8218,846,-53,10,6,11044,4,-2,-1,0,36688,85,25,144,0,0,0,0,0,0,0,0,-32294,0,0,0,4186,0,16812,0
16837,-102,-8200,856,-51,13,3,11045,4,-3,-1,0,36684,86,25,144,0,0,0,0,0,0,0,0,-32294,0,0,0,4185,0,16825,0
16847,-120,-8206,844,-47,16,-1,11042,-1,0,0,0,36681,76,25,144,0,0,0,0,0,0,0,0,-32294,0,0,0,4186,0,16835,0
16857,-122,-8226,854,-50,13,0,11043,-7,1,0,0,36683,65,25,144,0,0,0,0,0,0,0,0,-32294,0,0,0,4186,0,16845,0
16867,-84,-8202,828,-51,12,2,11044,11,-1,0,0,36692,68,25,144,0,0,0,0,0,0,0,0,-32294,0,0,0,4186,0,16855,0
16877,-94,-8192,856,-47,10,1,11043,3,1,-1,0,36686,68,25,144,0,0,0,0,0,0,0,0,-32294,0,0,0,4186,0,16868,0
16887,-112,-8188,846,-52,11,-3,11042,-8,-2,0,0,36683,59,25,144,0,0,0,0,0,0,0,0,-32294,0,0,0,4185,0,16878,0
16897,-116,-8212,868,-52,8,0,11042,0,1,0,0,36681,59,25,144,0,0,0,0,0,0,0,0,-32294,0,0,0,4185,0,16888,0
16907,-110,-8182,876,-55,11,-5,11043,-1,-2,0,0,36686,66,25,144,0,0,0,0,0,0,0,0,-32294,0,0,0,4185,0,16899,0
16917,-102,-8178,850,-55,11,-4,11045,3,0,0,0,36685,64,25,144,0,0,0,0,0,0,0,0,-32294,0,0,0,4186,0,16912,0
16927,-118,-8204,876,-54,13,-5,11043,2,-4,-3,0,36682,69,25,144,0,0,0,0,0,0,0,0,-32293,0,0,0,4185,0,16922,0
16937,-108,-8216,844,-56,9,-6,11043,1,-2,-1,0,36684,55,25,144,0,0,0,0,0,0,0,0,-32294,0,0,0,4185,0,16932,0
16947,-116,-8190,828,-48,7,-6,11042,-3,-2,0,0,36689,68,25,144,0,0,0,0,0,0,0,0,-32293,0,0,0,4185,0,16944,0
16957,-120,-8216,846,-50,13,-8,11042,0,6,-1,0,36687,82,26,144,0,0,0,0,0,0,0,0,-32294,0,0,0,4185,0,16955,0
16967,-132,-8200,882,-45,13,-14,11042,-2,0,-1,0,36690,81,25,144,0,0,0,0,0,0,0,0,-32293,0,0,0,4185,0,16965,0
16977,-118,-8210,892,-50,10,-17,11043,6,-1,-2,0,36689,72,25,144,0,0,0,0,0,0,0,0,-32294,0,0,0,4184,0,16975,0
16987,-78,-8208,852,-55,13,-12,11043,-2,-2,0,0,36694,63,25,144,0,0,0,0,0,0,0,0,-32294,0,0,0,4184,0,16987,0
16997,-104,-8202,838,-57,9,-10,11043,1,0,0,0,36690,80,25,144,0,0,0,0,0,0,0,0,-32294,0,0,0,4183,0,16997,0
17007,-92,-8196,794,-56,15,-12,11044,7,2,-1,0,36684,82,25,144,0,0,0,0,0,0,0,0,-32294,0,0,0,4184,0,17007,0
17017,-94,-8236,810,-48,15,-11,11042,-3,1,0,0,36680,68,25,144,0,0,0,0,0,0,0,0,-32294,0,0,0,4184,0,17017,0
17027,-106,-8224,836,-43,14,-11,11045,1,1,-2,0,36685,63,25,144,0,0,0,0,0,0,0,0,-32295,0,0,0,4182,0,17032,0
17037,-62,-8190,838,-38,16,-7,11042,1,2,-2,0,36692,72,25,144,0,0,0,0,0,0,0,0,-32293,0,0,0,4183,0,17042,0
17047,-22,-8202,846,-41,20,1,11042,0,-2,0,0,36689,77,25,144,0,0,0,0,0,0,0,0,-32293,0,0,0,4182,0,17052,0
17057,-54,-8196,874,-42,18,8,11042,-6,1,-1,0,36683,73,25,144,0,0,0,0,0,0,0,0,-32294,0,0,0,4182,0,17062,0
17067,-78,-8194,858,-43,13,12,11044,8,-1,0,0,36693,65,25,144,0,0,0,0,0,0,0,0,-32294,0,0,0,4182,0,17075,0
17077,-118,-8208,824,-43,14,18,11043,0,-4,0,0,36695,69,25,144,0,0,0,0,0,0,0,0,-32294,0,0,0,4181,0,17085,0
17087,-116,-8188,850,-44,14,10,11042,2,-1,1,0,36692,77,25,144,0,0,0,0,0,0,0,0,-32294,0,0,0,4182,0,17095,0
17097,-98,-8182,828,-44,11,14,11045,9,3,3,0,36677,88,25,144,0,0,0,0,0,0,0,0,-32294,0,0,0,4181,0,17105,0
17107,-98,-8214,854,-42,13,5,11042,0,2,0,0,36680,73,25,144,0,0,0,0,0,0,0,0,-32294,0,0,0,4182,0,17117,0
17117,-96,-8188,884,-40,12,6,11043,0,-1,-1,0,36686,67,25,144,0,0,0,0,0,0,0,0,-32294,0,0,0,4182,0,17127,0
17127,-140,-8200,870,-45,10,6,11043,5,0,-1,0,36683,78,25,144,0,0,0,0,0,0,0,0,-32294,0,0,0,4184,0,17138,0
17137,-98,-8194,882,-41,17,7,11043,0,-3,-1,0,36680,77,25,144,0,0,0,0,0,0,0,0,-32294,0,0,0,4182,0,17149,0
17147,-110,-8194,858,-51,14,6,11043,2,-2,0,0,36679,72,25,144,0,0,0,0,0,0,0,0,-32293,0,0,0,4182,0,17162,0
17157,-76,-8196,872,-50,15,1,11041,-8,-1,-1,0,36696,50,26,144,0,0,0,0,0,0,0,0,-32294,0,0,0,4182,0,17172,0
17167,-84,-8188,862,-43,8,6,11043,0,-3,-1,0,36699,63,25,144,0,0,0,0,0,0,0,0,-32294,0,0,0,4182,0,17182,0
17177,-86,-8198,834,-50,14,5,11044,7,-3,-1,0,36695,69,25,144,0,0,0,0,0,0,0,0,-32294,0,0,0,4182,0,17193,0
17187,-104,-8216,860,-48,15,7,11043,0,-5,0,0,36682,74,25,144,0,0,0,0,0,0,0,0,-32294,0,0,0,4182,0,17205,0
17197,-100,-8196,858,-52,16,5,11043,5,4,-2,0,36685,77,25,144,0,0,0,0,0,0,0,0,-32294,0,0,0,4181,0,17215,0
17207,-96,-8198,834,-50,16,10,11042,0,-1,0,0,36684,70,25,144,0,0,0,0,0,0,0,0,-32294,0,0,0,4181,0,17225,0
17217,-94,-8224,850,-46,14,7,11043,-3,3,-1,0,36679,72,25,144,0,0,0,0,0,0,0,0,-32294,0,0,0,4182,0,17238,0
17227,-94,-8188,858,-43,11,5,11042,0,4,-3,0,36674,71,25,144,0,0,0,0,0,0,0,0,-32294,0,0,0,4184,0,17248,0
17237,-84,-8240,862,-51,17,6,11044,5,2,-2,0,36680,61,25,144,0,0,0,0,0,0,0,0,-32294,0,0,0,4183,0,17258,0
17247,-106,-8196,876,-46,11,12,11044,6,1,-1,0,36687,64,25,144,0,0,0,0,0,0,0,0,-32294,0,0,0,4183,0,17268,0
17257,-96,-8180,848,-47,13,15,11043,1,0,0,0,36685,73,25,144,0,0,0,0,0,0,0,0,-32294,0,0,0,4182,0,17282,0
17267,-88,-8178,834,-53,13,9,11044,3,-4,0,0,36675,79,25,144,0,0,0,0,0,0,0,0,-32294,0,0,0,4182,0,17293,0
17277,-114,-8188,848,-44,17,16,11043,0,0,0,0,36676,63,25,144,0,0,0,0,0,0,0,0,-32294,0,0,0,4182,0,17303,0
17287,-128,-8178,842,-51,20,12,11044,6,4,0,0,36682,58,25,144,0,0,0,0,0,0,0,0,-32293,0,0,0,4182,0,17313,0
17297,-108,-8234,848,-49,10,9,11043,-3,-1,-1,0,36683,61,25,144,0,0,0,0,0,0,0,0,-32294,0,0,0,4182,0,17326,0
17307,-110,-8180,830,-48,15,5,11043,0,3,0,0,36675,69,25,144,0,0,0,0,0,0,0,0,-32294,0,0,0,4182,0,17336,0
17317,-106,-8184,856,-55,17,10,11043,-1,-1,0,0,36668,67,25,144,0,0,0,0,0,0,0,0,-32294,0,0,0,4182,0,17346,0
17327,-118,-8234,834,-51,16,10,11044,0,1,-1,0,36673,62,26,144,0,0,0,0,0,0,0,0,-32294,0,0,0,4184,0,17356,0
17337,-108,-8194,872,-47,17,11,11043,-1,4,-1,0,36678,76,25,144,0,0,0,0,0,0,0,0,-32294,0,0,0,4182,0,17369,0
17347,-98,-8180,882,-49,11,8,11042,0,0,-1,0,36673,75,25,144,0,0,0,0,0,0,0,0,-32294,0,0,0,4181,0,17379,0
17357,-112,-8220,842,-52,19,7,11043,0,1,-1,0,36668,61,26,144,0,0,0,0,0,0,0,0,-32294,0,0,0,4184,0,17389,0
17367,-104,-8186,846,-47,13,14,11043,1,0,0,0,36672,60,25,144,0,0,0,0,0,0,0,0,-32294,0,0,0,4183,0,17400,0
17377,-102,-8196,830,-44,14,9,11043,5,1,-2,0,36677,63,25,144,0,0,0,0,0,0,0,0,-32294,0,0,0,4182,0,17412,0
17387,-98,-8202,828,-44,16,9,11042,-6,2,-1,0,36680,69,25,144,0,0,0,0,0,0,0,0,-32294,0,0,0,4184,0,17422,0
17397,-116,-8194,854,-50,16,7,11043,1,0,-1,0,36674,77,25,144,0,0,0,0,0,0,0,0,-32294,0,0,0,4182,0,17432,0
17407,-114,-8208,834,-50,15,10,11043,0,3,-1,0,36677,65,25,144,0,0,0,0,0,0,0,0,-32294,0,0,0,4182,0,17444,0
17417,-78,-8192,850,-44,15,4,11043,-3,1,0,0,36677,67,25,144,0,0,0,0,0,0,0,0,-32294,0,0,0,4182,0,17457,0
17427,-120,-8206,842,-43,13,3,11043,1,-4,-1,0,36678,65,25,144,0,0,0,0,0,0,0,0,-32294,0,0,0,4181,0,17467,0
17437,-114,-8182,836,-49,14,12,11043,0,1,-1,0,36675,70,25,144,0,0,0,0,0,0,0,0,-32294,0,0,0,4182,0,17477,0
17447,-102,-8210,842,-45,16,11,11043,7,0,0,0,36673,60,25,144,0,0,0,0,0,0,0,0,-32294,0,0,0,4181,0,17490,0
17457,-100,-8206,834,-50,11,12,11044,1,2,0,0,36675,59,25,144,0,0,0,0,0,0,0,0,-32293,0,0,0,4181,0,17500,0
17467,-92,-8156,852,-40,12,11,11043,3,-2,-1,0,36677,75,25,144,0,0,0,0,0,0,0,0,-32294,0,0,0,4181,0,17510,0
17477,-94,-8192,834,-46,10,5,11043,3,-6,-2,0,36671,79,25,144,0,0,0,0,0,0,0,0,-32294,0,0,0,4182,0,17520,0
17487,-120,-8214,852,-46,16,8,11044,8,-2,0,0,36671,82,25,144,0,0,0,0,0,0,0,0,-32294,0,0,0,4182,0,17533,0
17497,-118,-8216,850,-42,11,7,11043,-8,2,0,0,36676,74,25,144,0,0,0,0,0,0,0,0,-32294,0,0,0,4183,0,17543,0
17507,-98,-8194,850,-47,11,6,11042,0,3,0,0,36679,69,25,144,0,0,0,0,0,0,0,0,-32294,0,0,0,4181,0,17553,0
17517,-98,-8206,862,-48,13,5,11043,1,-3,-1,0,36674,72,25,144,0,0,0,0,0,0,0,0,-32294,0,0,0,4183,0,17563,0
17527,-98,-8208,852,-47,15,12,11044,4,-5,-1,0,36668,58,25,144,0,0,0,0,0,0,0,0,-32294,0,0,0,4182,0,17575,0
17537,-128,-8222,882,-48,16,5,11043,-1,3,0,0,36671,57,25,144,0,0,0,0,0,0,0,0,-32294,0,0,0,4183,0,17585,0
17547,-86,-8182,846,-42,15,7,11042,1,2,0,0,36674,55,26,144,0,0,0,0,0,0,0,0,-32294,0,0,0,4182,0,17595,0
17557,-116,-8202,846,-48,13,6,11041,-7,0,0,0,36674,56,25,144,0,0,0,0,0,0,0,0,-32294,0,0,0,4182,0,17608,0
17567,-128,-8214,850,-51,10,3,11043,5,1,-1,0,36671,60,25,144,0,0,0,0,0,0,0,0,-32294,0,0,0,4182,0,17618,0
17577,-112,-8200,858,-50,17,5,11043,1,-5,-1,0,36675,49,25,144,0,0,0,0,0,0,0,0,-32294,0,0,0,4182,0,17628,0
17587,-122,-8200,854,-48,11,1,11044,2,-1,0,0,36681,58,25,144,0,0,0,0,0,0,0,0,-32293,0,0,0,4181,0,17638,0
17597,-68,-8200,846,-48,15,3,11043,0,2,0,0,36683,71,25,144,0,0,0,0,0,0,0,0,-32294,0,0,0,4182,0,17650,0
17607,-82,-8222,858,-47,14,9,11043,-3,-2,0,0,36679,76,25,144,0,0,0,0,0,0,0,0,-32293,0,0,0,4182,0,17660,0
17617,-112,-8224,848,-51,12,7,11043,4,1,-2,0,36677,67,25,144,0,0,0,0,0,0,0,0,-32294,0,0,0,4182,0,17670,0
17627,-100,-8170,832,-45,15,5,11043,0,2,-1,0,36679,64,25,144,0,0,0,0,0,0,0,0,-32294,0,0,0,4182,0,17683,0
17637,-94,-8208,832,-42,14,5,11041,-9,0,0,0,36683,68,25,144,0,0,0,0,0,0,0,0,-32294,0,0,0,4181,0,17695,0
17647,-96,-8216,848,-43,14,6,11044,11,-2,-1,0,36676,74,25,144,0,0,0,0,0,0,0,0,-32293,0,0,0,4182,0,17706,0
17657,-72,-8194,850,-45,11,11,11042,-7,4,-1,0,36672,63,25,144,0,0,0,0,0,0,0,0,-32294,0,0,0,4181,0,17716,0
17667,-118,-8202,848,-45,14,8,11043,-5,0,0,0,36676,63,25,144,0,0,0,0,0,0,0,0,-32294,0,0,0,4184,0,17727,0
17677,-136,-8188,848,-47,15,6,11043,0,2,-2,0,36681,64,25,144,0,0,0,0,0,0,0,0,-32293,0,0,0,4182,0,17737,0
17687,-110,-8206,830,-42,11,3,11044,0,-2,-1,0,36674,68,25,144,0,0,0,0,0,0,0,0,-32293,0,0,0,4182,0,17747,0
17697,-94,-8240,860,-45,13,4,11042,-5,0,0,0,36672,68,25,144,0,0,0,0,0,0,0,0,-32293,0,0,0,4184,0,17757,0
17707,-100,-8196,876,-48,12,0,11043,-5,-3,-2,0,36679,67,25,144,0,0,0,0,0,0,0,0,-32294,0,0,0,4181,0,17767,0
17717,-108,-8202,888,-47,8,0,11043,-1,2,0,0,36684,71,25,144,0,0,0,0,0,0,0,0,-32294,0,0,0,4182,0,17777,0
17727,-100,-8220,904,-53,13,-3,11043,1,-1,-2,0,36678,64,25,144,0,0,0,0,0,0,0,0,-32294,0,0,0,4182,0,17787,0
17737,-76,-8198,826,-53,11,5,11042,-5,-3,0,0,36674,71,25,144,0,0,0,0,0,0,0,0,-32294,0,0,0,4182,0,17797,0
17747,-80,-8192,790,-52,12,0,11044,5,-3,0,0,36677,56,26,144,0,0,0,0,0,0,0,0,-32294,0,0,0,4182,0,17807,0
17757,-78,-8222,812,-47,13,4,11043,1,1,-1,0,36683,63,25,144,0,0,0,0,0,0,0,0,-32293,0,0,0,4182,0,17817,0
17767,-96,-8204,834,-46,17,6,11042,1,-2,-1,0,36680,69,26,144,0,0,0,0,0,0,0,0,-32294,0,0,0,4181,0,17827,0
17777,-86,-8208,862,-41,11,6,11043,-2,-1,-1,0,36677,71,25,144,0,0,0,0,0,0,0,0,-32294,0,0,0,4182,0,17837,0
17787,-94,-8200,878,-43,13,1,11043,-3,-1,0,0,36677,74,25,144,0,0,0,0,0,0,0,0,-32294,0,0,0,4182,0,17847,0
17797,-114,-8196,874,-42,10,8,11043,3,0,0,0,36683,60,26,144,0,0,0,0,0,0,0,0,-32293,0,0,0,4181,0,17857,0
17807,-108,-8208,878,-43,12,7,11043,-2,6,-3,0,36689,68,25,144,0,0,0,0,0,0,0,0,-32294,0,0,0,4183,0,17867,0
17817,-104,-8204,862,-44,12,6,11043,3,0,-1,0,36681,66,25,144,0,0,0,0,0,0,0,0,-32294,0,0,0,4182,0,17876,0
17827,-108,-8202,872,-47,16,7,11043,1,-2,-2,0,36682,64,25,144,0,0,0,0,0,0,0,0,-32294,0,0,0,4183,0,17887,0
17837,-78,-8200,854,-43,12,9,11042,-3,-4,0,0,36685,67,25,144,0,0,0,0,0,0,0,0,-32294,0,0,0,4182,0,17897,0
17847,-100,-8212,832,-51,11,7,11043,-8,-3,0,0,36692,76,25,144,0,0,0,0,0,0,0,0,-32294,0,0,0,4182,0,17907,0
17857,-108,-8216,854,-52,15,6,11044,2,1,-2,0,36686,82,25,144,0,0,0,0,0,0,0,0,-32294,0,0,0,4184,0,17917,0
17867,-116,-8206,862,-54,12,9,11043,-4,0,0,0,36680,73,25,144,0,0,0,0,0,0,0,0,-32293,0,0,0,4183,0,17927,0
17877,-112,-8204,850,-49,11,8,11043,-2,1,-2,0,36684,60,25,144,0,0,0,0,0,0,0,0,-32294,0,0,0,4183,0,17937,0
17887,-134,-8208,836,-49,14,6,11042,-3,3,0,0,36685,68,25,144,0,0,0,0,0,0,0,0,-32294,0,0,0,4182,0,17947,0
17897,-102,-8196,836,-44,13,7,11044,-3,-1,0,0,36683,74,25,144,0,0,0,0,0,0,0,0,-32293,0,0,0,4183,0,17957,0
17907,-82,-8196,862,-45,13,8,11042,-2,-1,-1,0,36679,82,25,144,0,0,0,0,0,0,0,0,-32294,0,0,0,4182,0,17967,0
17917,-84,-8206,862,-47,12,10,11043,5,-4,-1,0,36685,78,26,144,0,0,0,0,0,0,0,0,-32294,0,0,0,4182,0,17977,0
17927,-82,-8220,884,-53,15,12,11043,0,-1,-1,0,36692,73,25,144,0,0,0,0,0,0,0,0,-32294,0,0,0,4182,0,17987,0
17937,-94,-8208,876,-52,12,8,11043,-5,3,-1,0,36692,80,26,144,0,0,0,0,0,0,0,0,-32294,0,0,0,4183,0,17997,0
17947,-98,-8214,854,-50,16,11,11043,5,1,-1,0,36682,62,25,144,0,0,0,0,0,0,0,0,-32294,0,0,0,4182,0,18007,0
17957,-100,-8194,852,-49,9,8,11042,0,1,0,0,36679,61,25,144,0,0,0,0,0,0,0,0,-32293,0,0,0,4182,0,18017,0
17967,-122,-8170,856,-47,11,5,11044,0,-3,0,0,36686,61,26,144,0,0,0,0,0,0,0,0,-32294,0,0,0,4182,0,18027,0
17977,-106,-8246,838,-48,18,11,11043,1,-5,-2,0,36692,71,25,144,0,0,0,0,0,0,0,0,-32293,0,0,0,4181,0,18037,0
17987,-92,-8222,860,-45,21,9,11043,1,-1,0,0,36686,79,25,144,0,0,0,0,0,0,0,0,-32294,0,0,0,4182,0,18047,0
17997,-84,-8200,854,-43,13,7,11043,6,-4,0,0,36682,63,25,144,0,0,0,0,0,0,0,0,-32294,0,0,0,4184,0,18057,0
18007,-116,-8220,868,-43,12,11,11044,-1,1,-3,0,36685,70,25,144,0,0,0,0,0,0,0,0,-32294,0,0,0,4182,0,18067,0
18017,-98,-8190,846,-47,15,6,11042,-2,2,0,0,36695,65,25,144,0,0,0,0,0,0,0,0,-32294,0,0,0,4181,0,18077,0
18027,-84,-8180,858,-49,12,4,11042,-3,0,-1,0,36692,63,25,144,0,0,0,0,0,0,0,0,-32295,0,0,0,4182,0,18087,0
18037,-92,-8228,850,-50,9,10,11043,3,2,-1,0,36690,71,25,144,0,0,0,0,0,0,0,0,-32294,0,0,0,4182,0,18097,0
18047,-86,-8204,864,-51,12,8,11043,7,1,0,0,36692,64,25,144,0,0,0,0,0,0,0,0,-32294,0,0,0,4184,0,18107,0
18057,-90,-8178,864,-44,14,6,11044,2,1,-2,0,36691,69,25,144,0,0,0,0,0,0,0,0,-32294,0,0,0,4183,0,18117,0
18067,-128,-8202,852,-49,15,7,11042,-1,0,0,0,36686,65,25,144,0,0,0,0,0,0,0,0,-32294,0,0,0,4183,0,18127,0
18077,-118,-8192,854,-51,12,8,11043,0,-3,0,0,36681,70,25,144,0,0,0,0,0,0,0,0,-32294,0,0,0,4182,0,18137,0
18087,-98,-8204,862,-48,9,5,11043,4,-1,-1,0,36678,66,25,144,0,0,0,0,0,0,0,0,-32294,0,0,0,4182,0,18147,0
18097,-110,-8224,852,-48,20,2,11042,0,-3,0,0,36684,63,25,144,0,0,0,0,0,0,0,0,-32294,0,0,0,4184,0,18157,0
18107,-104,-8190,862,-47,18,2,11043,3,0,-2,0,36684,72,26,144,0,0,0,0,0,0,0,0,-32294,0,0,0,4182,0,18167,0
18117,-90,-8194,838,-46,12,7,11043,3,-8,0,0,36681,70,25,144,0,0,0,0,0,0,0,0,-32294,0,0,0,4182,0,18177,0
18127,-78,-8210,858,-46,13,6,11043,-4,4,-2,0,36681,74,25,144,0,0,0,0,0,0,0,0,-32294,0,0,0,4183,0,18187,0
18137,-114,-8196,846,-52,18,5,11042,-5,-2,-2,0,36683,64,25,144,0,0,0,0,0,0,0,0,-32294,0,0,0,4182,0,18197,0
18147,-112,-8180,852,-48,17,6,11043,1,-5,1,0,36686,73,25,144,0,0,0,0,0,0,0,0,-32294,0,0,0,4183,0,18207,0
18157,-106,-8228,874,-52,12,10,11043,3,-3,-1,0,36677,78,25,144,0,0,0,0,0,0,0,0,-32294,0,0,0,4182,0,18217,0
18167,-106,-8184,880,-48,16,6,11044,3,-1,0,0,36677,57,26,144,0,0,0,0,0,0,0,0,-32294,0,0,0,4182,0,18227,0
18177,-104,-8192,858,-49,10,5,11042,-2,1,0,0,36681,58,25,144,0,0,0,0,0,0,0,0,-32294,0,0,0,4182,0,18238,0
18187,-100,-8210,834,-47,15,9,11043,0,-2,-3,0,36685,61,26,144,0,0,0,0,0,0,0,0,-32293,0,0,0,4182,0,18248,0
18197,-118,-8216,850,-47,19,5,11044,2,-6,-1,0,36681,64,25,144,0,0,0,0,0,0,0,0,-32293,0,0,0,4183,0,18258,0
18207,-86,-8194,846,-47,12,7,11044,6,2,-2,0,36675,66,25,144,0,0,0,0,0,0,0,0,-32294,0,0,0,4183,0,18267,0
18217,-116,-8212,850,-47,12,12,11043,1,5,-1,0,36678,45,25,144,0,0,0,0,0,0,0,0,-32294,0,0,0,4183,0,18277,0
18227,-108,-8176,848,-49,13,4,11043,0,-1,-1,0,36684,53,25,144,0,0,0,0,0,0,0,0,-32294,0,0,0,4182,0,18288,0
18237,-106,-8194,830,-49,5,12,11043,-2,-5,-1,0,36688,64,25,144,0,0,0,0,0,0,0,0,-32293,0,0,0,4182,0,18298,0
18247,-116,-8224,854,-49,13,9,11043,0,0,0,0,36682,73,25,144,0,0,0,0,0,0,0,0,-32293,0,0,0,4183,0,18308,0
18257,-106,-8180,840,-52,12,12,11043,-1,0,0,0,36678,66,25,144,0,0,0,0,0,0,0,0,-32293,0,0,0,4182,0,18318,0
18267,-90,-8198,846,-49,11,4,11042,0,2,0,0,36680,66,25,144,0,0,0,0,0,0,0,0,-32293,0,0,0,4182,0,18328,0
18277,-110,-8200,852,-55,14,8,11043,0,1,-2,0,36680,84,25,144,0,0,0,0,0,0,0,0,-32294,0,0,0,4183,0,18338,0
18287,-94,-8180,854,-52,20,5,11043,1,5,0,0,36675,77,25,144,0,0,0,0,0,0,0,0,-32294,0,0,0,4182,0,18348,0
18297,-92,-8200,846,-49,11,3,11041,-8,0,0,0,36672,66,25,144,0,0,0,0,0,0,0,0,-32294,0,0,0,4184,0,18358,0
18307,-80,-8220,862,-47,15,12,11044,-2,2,-1,0,36675,61,25,144,0,0,0,0,0,0,0,0,-32294,0,0,0,4182,0,18368,0
18317,-86,-8210,854,-52,14,8,11043,-3,0,-2,0,36677,68,25,144,0,0,0,0,0,0,0,0,-32294,0,0,0,4182,0,18378,0
18327,-90,-8212,846,-44,16,9,11043,-2,4,-1,0,36669,74,25,144,0,0,0,0,0,0,0,0,-32293,0,0,0,4182,0,18390,0
18337,-142,-8206,840,-45,12,11,11043,1,-1,-3,0,36673,62,26,144,0,0,0,0,0,0,0,0,-32294,0,0,0,4182,0,18400,0
18347,-92,-8222,858,-41,17,14,11043,2,5,0,0,36678,58,25,144,0,0,0,0,0,0,0,0,-32294,0,0,0,4183,0,18410,0
18357,-106,-8188,856,-47,13,6,11042,-10,-3,0,0,36684,55,26,144,0,0,0,0,0,0,0,0,-32293,0,0,0,4182,0,18420,0
18367,-114,-8216,862,-47,12,8,11043,0,1,-1,0,36676,54,25,144,0,0,0,0,0,0,0,0,-32293,0,0,0,4184,0,18430,0
18377,-98,-8214,880,-50,17,10,11044,9,0,0,0,36671,64,25,144,0,0,0,0,0,0,0,0,-32294,0,0,0,4182,0,18440,0
18387,-104,-8206,874,-51,15,11,11043,0,-1,-2,0,36672,53,25,144,0,0,0,0,0,0,0,0,-32293,0,0,0,4182,0,18450,0
18397,-112,-8186,852,-47,12,2,11043,2,1,-1,0,36677,59,25,144,0,0,0,0,0,0,0,0,-32294,0,0,0,4182,0,18460,0
18407,-94,-8184,860,-48,14,3,11044,0,0,0,0,36675,69,25,144,0,0,0,0,0,0,0,0,-32294,0,0,0,4184,0,18470,0
18417,-114,-8190,840,-50,13,-3,11043,-2,0,0,0,36672,71,25,144,0,0,0,0,0,0,0,0,-32294,0,0,0,4182,0,18480,0
18427,-104,-8170,842,-48,12,4,11043,-3,1,-2,0,36673,74,25,144,0,0,0,0,0,0,0,0,-32294,0,0,0,4184,0,18490,0
18437,-74,-8220,842,-48,11,5,11042,-9,2,-1,0,36691,59,25,144,0,0,0,0,0,0,0,0,-32293,0,0,0,4182,0,18500,0
18447,-104,-8236,864,-49,10,0,11042,-9,1,-1,0,36706,80,25,144,0,0,0,0,0,0,0,0,-32294,0,0,0,4182,0,18510,0
18457,-98,-8208,854,-50,16,5,11043,3,1,0,0,36701,79,25,144,0,0,0,0,0,0,0,0,-32294,0,0,0,4183,0,18520,0
18467,-82,-8204,858,-47,12,2,11043,-4,2,0,0,36685,71,25,144,0,0,0,0,0,0,0,0,-32294,0,0,0,4182,0,18530,0
18477,-92,-8204,862,-54,17,8,11043,-4,-1,-2,0,36677,57,25,144,0,0,0,0,0,0,0,0,-32294,0,0,0,4183,0,18541,0
18487,-94,-8222,852,-50,15,10,11042,0,-3,-1,0,36677,64,25,144,0,0,0,0,0,0,0,0,-32294,0,0,0,4182,0,18551,0
18497,-96,-8212,872,-50,11,0,11043,0,2,0,0,36672,69,25,144,0,0,0,0,0,0,0,0,-32294,0,0,0,4182,0,18561,0
18507,-108,-8204,828,-46,10,4,11043,4,2,0,0,36666,66,25,144,0,0,0,0,0,0,0,0,-32294,0,0,0,4184,0,18571,0
18517,-110,-8206,836,-44,12,11,11043,-3,1,0,0,36671,57,25,144,0,0,0,0,0,0,0,0,-32294,0,0,0,4182,0,18581,0
18527,-92,-8232,828,-48,20,7,11043,12,1,-1,0,36676,65,25,144,0,0,0,0,0,0,0,0,-32293,0,0,0,4182,0,18591,0
18537,-110,-8208,858,-48,20,13,11042,-3,-2,-2,0,36675,68,25,144,0,0,0,0,0,0,0,0,-32294,0,0,0,4182,0,18601,0
18547,-88,-8170,852,-47,15,10,11043,-3,3,0,0,36677,72,25,144,0,0,0,0,0,0,0,0,-32294,0,0,0,4182,0,18611,0
18557,-120,-8192,838,-43,12,7,11043,1,4,1,0,36677,52,26,144,0,0,0,0,0,0,0,0,-32294,0,0,0,4183,0,18621,0
18567,-134,-8192,836,-47,11,8,11042,-1,-1,-1,0,36683,55,25,144,0,0,0,0,0,0,0,0,-32294,0,0,0,4181,0,18631,0
18577,-98,-8182,826,-41,15,10,11043,0,-1,-2,0,36677,71,26,144,0,0,0,0,0,0,0,0,-32293,0,0,0,4182,0,18641,0
18587,-94,-8208,850,-39,11,10,11044,4,1,-1,0,36673,77,25,144,0,0,0,0,0,0,0,0,-32294,0,0,0,4184,0,18651,0
18597,-108,-8192,852,-39,15,16,11042,-2,-1,0,0,36670,70,25,144,0,0,0,0,0,0,0,0,-32294,0,0,0,4182,0,18661,0
18607,-106,-8202,840,-42,12,17,11044,8,0,-1,0,36676,54,26,144,0,0,0,0,0,0,0,0,-32294,0,0,0,4184,0,18671,0
18617,-116,-8184,876,-41,14,10,11043,0,-1,-1,0,36681,66,25,144,0,0,0,0,0,0,0,0,-32294,0,0,0,4184,0,18681,0
18627,-106,-8196,868,-47,11,10,11043,0,3,-1,0,36676,62,25,144,0,0,0,0,0,0,0,0,-32293,0,0,0,4183,0,18691,0
18637,-128,-8214,870,-42,16,13,11043,2,4,-2,0,36675,57,25,144,0,0,0,0,0,0,0,0,-32294,0,0,0,4183,0,18701,0
18647,-116,-8226,850,-50,14,7,11043,-4,-2,0,0,36680,70,25,144,0,0,0,0,0,0,0,0,-32293,0,0,0,4185,0,18711,0
18657,-132,-8196,868,-50,14,15,11043,0,4,-1,0,36689,72,25,144,0,0,0,0,0,0,0,0,-32294,0,0,0,4184,0,18721,0
18667,-110,-8192,860,-49,12,9,11044,1,-4,-2,0,36685,78,25,144,0,0,0,0,0,0,0,0,-32294,0,0,0,4184,0,18731,0
18677,-104,-8210,870,-50,17,10,11043,-1,2,0,0,36680,69,25,144,0,0,0,0,0,0,0,0,-32294,0,0,0,4183,0,18741,0
18687,-118,-8188,846,-46,10,5,11042,-5,-2,0,0,36675,66,25,144,0,0,0,0,0,0,0,0,-32294,0,0,0,4184,0,18751,0
18697,-140,-8168,852,-49,14,8,11043,-4,-1,-1,0,36679,62,25,144,0,0,0,0,0,0,0,0,-32294,0,0,0,4184,0,18761,0
18707,-108,-8204,870,-52,11,10,11042,-3,0,-1,0,36679,67,25,144,0,0,0,0,0,0,0,0,-32294,0,0,0,4184,0,18771,0
18717,-116,-8168,866,-51,15,7,11043,4,0,-1,0,36674,73,25,144,0,0,0,0,0,0,0,0,-32294,0,0,0,4184,0,18781,0
18727,-118,-8182,864,-55,16,7,11042,1,-3,-2,0,36672,63,26,144,0,0,0,0,0,0,0,0,-32294,0,0,0,4184,0,18791,0
18737,-102,-8226,876,-49,14,14,11043,-1,-2,-2,0,36677,60,25,144,0,0,0,0,0,0,0,0,-32294,0,0,0,4184,0,18801,0
18747,-116,-8208,848,-55,13,6,11042,-3,-4,-1,0,36679,74,26,144,0,0,0,0,0,0,0,0,-32294,0,0,0,4185,0,18811,0
18757,-110,-8186,828,-51,13,10,11044,7,2,1,0,36685,86,25,144,0,0,0,0,0,0,0,0,-32293,0,0,0,4184,0,18821,0
18767,-104,-8194,842,-52,13,7,11043,-2,0,-1,0,36681,81,25,144,0,0,0,0,0,0,0,0,-32294,0,0,0,4184,0,18831,0
18777,-108,-8194,854,-51,15,7,11043,3,1,0,0,36685,66,26,144,0,0,0,0,0,0,0,0,-32294,0,0,0,4184,0,18841,0
18787,-120,-8186,852,-52,16,6,11043,0,1,0,0,36683,72,25,144,0,0,0,0,0,0,0,0,-32293,0,0,0,4182,0,18851,0
18797,-100,-8230,862,-51,9,6,11042,-8,-3,0,0,36679,77,25,144,0,0,0,0,0,0,0,0,-32294,0,0,0,4184,0,18861,0
18807,-104,-8180,842,-50,15,0,11043,1,1,0,0,36677,61,26,144,0,0,0,0,0,0,0,0,-32293,0,0,0,4184,0,18871,0
18817,-100,-8160,880,-53,20,3,11044,3,2,-2,0,36679,63,25,144,0,0,0,0,0,0,0,0,-32294,0,0,0,4185,0,18881,0
18827,-100,-8192,860,-53,13,5,11043,-1,1,0,0,36684,62,25,144,0,0,0,0,0,0,0,0,-32294,0,0,0,4184,0,18892,0
18837,-114,-8194,870,-56,16,7,11043,0,3,0,0,36686,64,25,144,0,0,0,0,0,0,0,0,-32294,0,0,0,4183,0,18902,0
18847,-132,-8184,876,-56,12,1,11044,0,-7,-1,0,36682,70,25,144,0,0,0,0,0,0,0,0,-32294,0,0,0,4182,0,18912,0
18857,-94,-8206,838,-54,14,3,11043,0,-3,1,0,36690,61,25,144,0,0,0,0,0,0,0,0,-32294,0,0,0,4184,0,18922,0
18867,-80,-8212,856,-54,7,0,11045,1,-2,-1,0,36692,64,25,144,0,0,0,0,0,0,0,0,-32294,0,0,0,4182,0,18932,0
18877,-136,-8216,864,-53,14,3,11042,-2,-2,-1,0,36690,68,25,144,0,0,0,0,0,0,0,0,-32294,0,0,0,4184,0,18942,0
18887,-96,-8210,852,-54,10,3,11044,7,2,-1,0,36682,67,25,144,0,0,0,0,0,0,0,0,-32294,0,0,0,4184,0,18952,0
18897,-98,-8188,840,-52,10,3,11043,-9,-3,-2,0,36680,67,25,144,0,0,0,0,0,0,0,0,-32294,0,0,0,4184,0,18962,0
18907,-106,-8196,826,-54,14,7,11042,0,1,-1,0,36685,65,25,144,0,0,0,0,0,0,0,0,-32294,0,0,0,4183,0,18972,0
18917,-90,-8202,850,-54,13,4,11044,6,-2,-2,0,36689,77,26,144,0,0,0,0,0,0,0,0,-32294,0,0,0,4184,0,18982,0
18927,-120,-8214,862,-51,10,9,11043,1,-3,-2,0,36685,79,25,144,0,0,0,0,0,0,0,0,-32294,0,0,0,4184,0,18992,0
18937,-110,-8198,864,-51,14,5,11043,4,1,-1,0,36681,80,25,144,0,0,0,0,0,0,0,0,-32294,0,0,0,4184,0,19002,0
18947,-148,-8180,858,-57,14,4,11043,0,-2,0,0,36683,73,26,144,0,0,0,0,0,0,0,0,-32294,0,0,0,4183,0,19012,0
18957,-114,-8234,836,-59,10,4,11043,5,4,2,0,36692,70,25,144,0,0,0,0,0,0,0,0,-32294,0,0,0,4184,0,19022,0
18967,-90,-8196,852,-51,18,3,11044,-1,-2,-2,0,36687,72,25,144,0,0,0,0,0,0,0,0,-32294,0,0,0,4183,0,19032,0
18977,-98,-8198,840,-50,13,9,11044,0,1,-1,0,36686,60,26,144,0,0,0,0,0,0,0,0,-32294,0,0,0,4184,0,19042,0
18987,-108,-8236,856,-48,15,6,11043,7,2,-1,0,36688,63,25,144,0,0,0,0,0,0,0,0,-32294,0,0,0,4182,0,19052,0
18997,-110,-8180,862,-55,15,14,11043,2,3,-1,0,36688,60,26,144,0,0,0,0,0,0,0,0,-32294,0,0,0,4184,0,19062,0
19007,-96,-8198,816,-47,15,13,11043,4,-1,-1,0,36685,69,25,144,0,0,0,0,0,0,0,0,-32294,0,0,0,4184,0,19072,0
19017,-112,-8208,828,-46,11,11,11043,-5,-3,0,0,36680,71,25,144,0,0,0,0,0,0,0,0,-32294,0,0,0,4184,0,19082,0
19027,-108,-8168,848,-44,15,10,11042,-1,1,-2,0,36684,57,25,144,0,0,0,0,0,0,0,0,-32294,0,0,0,4185,0,19092,0
19037,-118,-8202,850,-47,15,12,11042,0,-1,0,0,36692,58,25,144,0,0,0,0,0,0,0,0,-32294,0,0,0,4185,0,19102,0
19047,-96,-8218,856,-46,13,5,11044,0,-1,0,0,36691,71,25,144,0,0,0,0,0,0,0,0,-32294,0,0,0,4185,0,19112,0
19057,-86,-8204,842,-51,15,14,11042,2,-1,0,0,36687,80,25,144,0,0,0,0,0,0,0,0,-32294,0,0,0,4184,0,19122,0
19067,-108,-8174,886,-47,14,14,11043,1,0,0,0,36688,79,25,144,0,0,0,0,0,0,0,0,-32294,0,0,0,4184,0,19132,0
19077,-126,-8168,878,-44,9,10,11042,-3,-5,-1,0,36692,77,25,144,0,0,0,0,0,0,0,0,-32294,0,0,0,4185,0,19142,0
19087,-142,-8206,856,-48,18,5,11043,-3,-4,0,0,36694,85,25,144,0,0,0,0,0,0,0,0,-32294,0,0,0,4184,0,19152,0
19097,-124,-8202,848,-54,11,2,11042,0,-2,-1,0,36679,83,25,144,0,0,0,0,0,0,0,0,-32293,0,0,0,4185,0,19162,0
19107,-132,-8212,832,-48,16,7,11043,0,-1,1,0,36676,67,25,144,0,0,0,0,0,0,0,0,-32293,0,0,0,4184,0,19172,0
19117,-112,-8228,864,-45,11,6,11043,0,2,-1,0,36681,64,26,144,0,0,0,0,0,0,0,0,-32294,0,0,0,4184,0,19182,0
19127,-126,-8200,870,-50,13,1,11044,5,-4,0,0,36686,65,25,144,0,0,0,0,0,0,0,0,-32294,0,0,0,4185,0,19192,0
19137,-110,-8198,854,-46,17,5,11042,0,3,-1,0,36678,67,25,144,0,0,0,0,0,0,0,0,-32294,0,0,0,4185,0,19202,0
19147,-78,-8194,878,-52,14,5,11044,2,5,0,0,36670,69,26,144,0,0,0,0,0,0,0,0,-32294,0,0,0,4185,0,19212,0
19157,-92,-8200,856,-45,8,6,11042,-7,1,-1,0,36676,69,25,144,0,0,0,0,0,0,0,0,-32294,0,0,0,4183,0,19222,0
19167,-94,-8196,850,-55,12,2,11042,-2,1,-1,0,36681,67,25,144,0,0,0,0,0,0,0,0,-32294,0,0,0,4185,0,19232,0
19177,-118,-8202,848,-56,9,4,11043,-4,-1,-2,0,36684,69,25,144,0,0,0,0,0,0,0,0,-32294,0,0,0,4184,0,19242,0
19187,-122,-8214,842,-49,14,5,11043,-2,-2,0,0,36675,83,25,144,0,0,0,0,0,0,0,0,-32294,0,0,0,4185,0,19252,0
19197,-90,-8216,850,-48,15,11,11044,0,-4,-2,0,36679,76,26,144,0,0,0,0,0,0,0,0,-32293,0,0,0,4184,0,19262,0
19207,-76,-8212,826,-50,13,8,11044,-1,2,-2,0,36677,77,25,144,0,0,0,0,0,0,0,0,-32293,0,0,0,4183,0,19272,0
19217,-86,-8182,842,-50,16,7,11044,1,0,0,0,36679,70,26,144,0,0,0,0,0,0,0,0,-32294,0,0,0,4183,0,19282,0
19227,-96,-8238,828,-47,16,7,11043,2,0,-1,0,36675,75,25,144,0,0,0,0,0,0,0,0,-32294,0,0,0,4183,0,19292,0
19237,-112,-8202,852,-43,17,10,11043,-1,0,-1,0,36674,69,25,144,0,0,0,0,0,0,0,0,-32293,0,0,0,4183,0,19302,0
19247,-120,-8188,870,-50,19,9,11043,0,-2,-1,0,36682,61,26,144,0,0,0,0,0,0,0,0,-32293,0,0,0,4183,0,19312,0
19257,-96,-8228,862,-45,17,6,11044,5,2,-1,0,36684,63,25,144,0,0,0,0,0,0,0,0,-32293,0,0,0,4183,0,19322,0
19267,-104,-8210,860,-47,9,4,11044,8,1,-1,0,36675,65,25,144,0,0,0,0,0,0,0,0,-32293,0,0,0,4184,0,19332,0
19277,-110,-8182,864,-50,14,7,11043,-2,-1,0,0,36672,61,25,144,0,0,0,0,0,0,0,0,-32294,0,0,0,4184,0,19342,0
19287,-116,-8172,816,-44,14,7,11043,-1,6,-1,0,36675,66,25,144,0,0,0,0,0,0,0,0,-32294,0,0,0,4184,0,19352,0
19297,-116,-8188,838,-44,15,10,11043,6,-2,0,0,36682,68,25,144,0,0,0,0,0,0,0,0,-32294,0,0,0,4185,0,19362,0
19307,-146,-8194,838,-49,15,8,11042,-1,0,0,0,36675,69,25,144,0,0,0,0,0,0,0,0,-32294,0,0,0,4183,0,19372,0
19317,-108,-8204,850,-46,15,7,11042,-4,-2,0,0,36671,60,26,144,0,0,0,0,0,0,0,0,-32294,0,0,0,4184,0,19382,0
19327,-122,-8212,846,-44,14,3,11043,1,2,0,0,36672,54,25,144,0,0,0,0,0,0,0,0,-32293,0,0,0,4184,0,19393,0
19337,-124,-8188,862,-43,14,3,11043,0,-3,0,0,36674,67,25,144,0,0,0,0,0,0,0,0,-32294,0,0,0,4185,0,19403,0
19347,-98,-8212,864,-41,12,10,11044,-1,-7,-1,0,36674,77,25,144,0,0,0,0,0,0,0,0,-32293,0,0,0,4182,0,19413,0
19357,-88,-8208,842,-45,9,11,11043,1,4,0,0,36667,79,25,144,0,0,0,0,0,0,0,0,-32294,0,0,0,4185,0,19423,0
19367,-82,-8198,854,-46,22,8,11043,2,-1,0,0,36670,63,26,144,0,0,0,0,0,0,0,0,-32294,0,0,0,4184,0,19433,0
19377,-106,-8202,866,-42,16,10,11043,0,5,-2,0,36673,64,25,144,0,0,0,0,0,0,0,0,-32294,0,0,0,4184,0,19443,0
19387,-120,-8200,848,-46,17,11,11044,5,-2,-1,0,36674,72,26,144,0,0,0,0,0,0,0,0,-32294,0,0,0,4185,0,19453,0
19397,-136,-8218,846,-43,11,11,11042,0,6,0,0,36669,66,25,144,0,0,0,0,0,0,0,0,-32294,0,0,0,4183,0,19463,0
19407,-136,-8188,858,-41,17,4,11043,2,0,-1,0,36665,57,25,144,0,0,0,0,0,0,0,0,-32294,0,0,0,4184,0,19473,0
19417,-80,-8192,836,-43,13,8,11043,-2,-7,0,0,36671,50,26,144,0,0,0,0,0,0,0,0,-32293,0,0,0,4184,0,19483,0
19427,-104,-8204,864,-43,14,6,11043,-1,2,-2,0,36676,58,25,144,0,0,0,0,0,0,0,0,-32294,0,0,0,4184,0,19493,0
19437,-104,-8180,866,-45,14,10,11043,0,-3,-1,0,36671,64,25,144,0,0,0,0,0,0,0,0,-32294,0,0,0,4184,0,19503,0
19447,-116,-8236,874,-47,8,8,11042,0,-1,0,0,36671,49,26,144,0,0,0,0,0,0,0,0,-32293,0,0,0,4184,0,19513,0
19457,-106,-8216,844,-46,16,7,11044,9,2,1,0,36672,68,25,144,0,0,0,0,0,0,0,0,-32293,0,0,0,4184,0,19523,0
19467,-126,-8162,842,-49,16,9,11044,7,5,0,0,36675,70,25,144,0,0,0,0,0,0,0,0,-32293,0,0,0,4184,0,19541,0
19477,-118,-8198,864,-44,15,10,11044,15,2,-1,0,36671,73,25,144,0,0,0,0,0,0,0,0,-32293,0,0,0,4185,0,19561,0
19487,-112,-8196,858,-44,13,6,11044,4,1,1,0,36669,69,25,144,0,0,0,0,0,0,0,0,-32294,0,0,0,4185,0,19581,0
19497,-148,-8176,852,-49,16,9,11042,-2,3,0,0,36677,66,25,144,0,0,0,0,0,0,0,0,-32293,0,0,0,4185,0,19601,0
19507,-110,-8204,844,-49,13,8,11043,2,4,-2,0,36680,67,25,144,0,0,0,0,0,0,0,0,-32294,0,0,0,4184,0,19622,0
19517,-104,-8210,866,-51,11,1,11043,-3,-6,0,0,36678,63,25,144,0,0,0,0,0,0,0,0,-32293,0,0,0,4184,0,19642,0
19527,-114,-8192,878,-51,12,4,11044,5,1,-2,0,36668,72,25,144,0,0,0,0,0,0,0,0,-32294,0,0,0,4184,0,19662,0
19537,-112,-8214,852,-50,10,3,11043,1,2,0,0,36668,66,25,144,0,0,0,0,0,0,0,0,-32293,0,0,0,4185,0,19683,0
19547,-110,-8220,838,-54,11,5,11043,-6,4,0,0,36674,63,25,144,0,0,0,0,0,0,0,0,-32294,0,0,0,4185,0,19703,0
19557,-116,-8188,848,-51,11,-2,11043,-7,-2,0,0,36673,72,26,144,0,0,0,0,0,0,0,0,-32294,0,0,0,4184,0,19723,0
19567,-98,-8226,842,-49,10,-3,11043,4,1,0,0,36671,68,25,144,0,0,0,0,0,0,0,0,-32294,0,0,0,4184,0,19743,0
19577,-98,-8168,840,-48,19,4,11043,2,-1,-1,0,36668,72,25,144,0,0,0,0,0,0,0,0,-32294,0,0,0,4184,0,19766,0
19587,-106,-8208,862,-45,11,-1,11042,0,5,-1,0,36673,60,26,144,0,0,0,0,0,0,0,0,-32294,0,0,0,4182,0,19786,0
19597,-80,-8222,868,-52,10,-1,11043,1,-3,0,0,36683,68,25,144,0,0,0,0,0,0,0,0,-32294,0,0,0,4184,0,19806,0
19607,-90,-8214,876,-50,16,3,11043,-1,1,0,0,36676,71,25,144,0,0,0,0,0,0,0,0,-32294,0,0,0,4184,0,19826,0
19617,-114,-8192,864,-50,14,8,11042,-3,2,0,0,36677,54,26,144,0,0,0,0,0,0,0,0,-32294,0,0,0,4184,0,19846,0
19627,-106,-8232,874,-51,12,6,11042,0,-1,-3,0,36676,54,25,144,0,0,0,0,0,0,0,0,-32294,0,0,0,4184,0,19866,0
19637,-108,-8188,844,-47,13,8,11043,0,-1,0,0,36681,56,26,144,0,0,0,0,0,0,0,0,-32294,0,0,0,4185,0,19886,0
19647,-100,-8178,830,-54,12,6,11043,3,-1,0,0,36675,64,25,144,0,0,0,0,0,0,0,0,-32294,0,0,0,4183,0,19906,0
19657,-110,-8228,852,-50,14,6,11044,4,0,0,0,36666,66,25,144,0,0,0,0,0,0,0,0,-32294,0,0,0,4185,0,19926,0
19667,-88,-8190,858,-53,10,11,11042,-10,0,0,0,36669,59,26,144,0,0,0,0,0,0,0,0,-32294,0,0,0,4184,0,19946,0
19677,-112,-8198,848,-43,15,8,11042,1,0,-1,0,36677,68,25,144,0,0,0,0,0,0,0,0,-32294,0,0,0,4184,0,19966,0
19687,-100,-8200,844,-45,12,8,11044,5,-3,-2,0,36678,80,25,144,0,0,0,0,0,0,0,0,-32294,0,0,0,4185,0,19986,0
19697,-104,-8220,840,-47,14,10,11042,-6,1,0,0,36674,80,25,144,0,0,0,0,0,0,0,0,-32293,0,0,0,4184,0,20006,0
19707,-108,-8168,848,-48,17,9,11043,-4,1,-1,0,36676,67,25,144,0,0,0,0,0,0,0,0,-32294,0,0,0,4184,0,20026,0
19717,-116,-8228,846,-44,18,9,11042,-1,-4,-1,0,36695,65,25,144,0,0,0,0,0,0,0,0,-32294,0,0,0,4184,0,20046,0
19727,-106,-8192,886,-46,13,11,11043,3,4,-1,0,36694,77,25,144,0,0,0,0,0,0,0,0,-32294,0,0,0,4184,0,20066,0
19737,-88,-8206,870,-49,18,15,11043,-4,0,-2,0,36687,77,25,144,0,0,0,0,0,0,0,0,-32294,0,0,0,4184,0,20086,0
19747,-120,-8198,874,-49,18,6,11044,8,0,0,0,36673,72,25,144,0,0,0,0,0,0,0,0,-32293,0,0,0,4183,0,20106,0
19757,-132,-8170,850,-47,15,7,11043,-2,1,0,0,36677,68,26,144,0,0,0,0,0,0,0,0,-32294,0,0,0,4184,0,20126,0
19767,-150,-8196,860,-51,13,5,11042,-6,-4,-1,0,36681,70,25,144,0,0,0,0,0,0,0,0,-32294,0,0,0,4182,0,20146,0
19777,-120,-8210,842,-48,13,1,11042,0,-3,-3,0,36672,72,25,144,0,0,0,0,0,0,0,0,-32294,0,0,0,4184,0,20166,0
19787,-126,-8188,846,-44,9,1,11043,-5,1,0,0,36671,61,26,144,0,0,0,0,0,0,0,0,-32294,0,0,0,4184,0,20186,0
19797,-130,-8230,844,-47,14,6,11042,1,-5,0,0,36681,61,25,144,0,0,0,0,0,0,0,0,-32294,0,0,0,4183,0,20206,0
19807,-74,-8208,886,-46,15,-2,11044,8,3,0,0,36686,64,26,144,0,0,0,0,0,0,0,0,-32294,0,0,0,4184,0,20226,0
19817,-88,-8188,878,-54,15,7,11043,1,-1,0,0,36682,66,25,144,0,0,0,0,0,0,0,0,-32293,0,0,0,4185,0,20246,0
19827,-116,-8196,880,-52,11,8,11042,-4,0,-3,0,36674,64,25,144,0,0,0,0,0,0,0,0,-32293,0,0,0,4183,0,20266,0
19837,-88,-8168,836,-55,11,4,11043,1,-2,-2,0,36681,51,26,144,0,0,0,0,0,0,0,0,-32294,0,0,0,4184,0,20287,0
19847,-102,-8224,852,-53,10,10,11044,0,0,0,0,36689,66,25,144,0,0,0,0,0,0,0,0,-32294,0,0,0,4184,0,20307,0
19857,-112,-8190,854,-53,13,8,11043,2,-1,-1,0,36685,86,26,144,0,0,0,0,0,0,0,0,-32294,0,0,0,4184,0,20327,0
19867,-106,-8188,844,-52,16,12,11043,1,1,0,0,36678,91,25,144,0,0,0,0,0,0,0,0,-32294,0,0,0,4184,0,20346,0
19877,-100,-8204,844,-52,12,8,11043,3,2,-1,0,36676,87,25,144,0,0,0,0,0,0,0,0,-32294,0,0,0,4184,0,20366,0
19887,-126,-8226,850,-53,10,11,11042,-2,5,0,0,36683,71,25,144,0,0,0,0,0,0,0,0,-32294,0,0,0,4184,0,20386,0
19897,-86,-8186,858,-54,14,8,11043,0,-2,2,0,36692,74,25,144,0,0,0,0,0,0,0,0,-32293,0,0,0,4183,0,20406,0
19907,-120,-8214,828,-51,16,9,11042,0,1,0,0,36684,73,25,144,0,0,0,0,0,0,0,0,-32294,0,0,0,4183,0,20426,0
19917,-84,-8192,854,-48,10,8,11043,0,1,0,0,36680,63,25,144,0,0,0,0,0,0,0,0,-32293,0,0,0,4184,0,20446,0
19927,-94,-8216,832,-46,14,11,11043,5,0,-2,0,36684,57,26,144,0,0,0,0,0,0,0,0,-32294,0,0,0,4183,0,20466,0
19937,-120,-8212,852,-52,14,5,11041,-8,2,0,0,36686,69,25,144,0,0,0,0,0,0,0,0,-32294,0,0,0,4185,0,20486,0
19947,-88,-8214,854,-53,11,7,11042,-5,-2,0,0,36681,73,25,144,0,0,0,0,0,0,0,0,-32294,0,0,0,4184,0,20506,0
19957,-98,-8178,858,-51,10,8,11043,-2,-4,0,0,36674,70,26,144,0,0,0,0,0,0,0,0,-32294,0,0,0,4184,0,20526,0
19967,-108,-8228,838,-54,11,9,11043,2,1,0,0,36678,64,25,144,0,0,0,0,0,0,0,0,-32294,0,0,0,4184,0,20546,0
19977,-106,-8182,834,-54,13,8,11042,-2,10,-4,0,36687,75,25,144,0,0,0,0,0,0,0,0,-32294,0,0,0,4183,0,20566,0
19987,-138,-8226,834,-55,11,9,11042,-5,3,-2,0,36685,75,25,144,0,0,0,0,0,0,0,0,-32294,0,0,0,4184,0,20586,0
19997,-112,-8202,862,-50,18,8,11042,-2,-2,-3,0,36677,80,25,144,0,0,0,0,0,0,0,0,-32294,0,0,0,4184,0,20606,0
20007,-116,-8202,846,-50,15,7,11043,0,-1,-1,0,36682,66,26,144,0,0,0,0,0,0,0,0,-32294,0,0,0,4185,0,20626,0
20017,-126,-8186,842,-45,15,8,11044,4,1,0,0,36690,69,25,144,0,0,0,0,0,0,0,0,-32294,0,0,0,4184,0,20646,0
20027,-108,-8180,844,-51,12,9,11042,3,2,1,0,36691,79,26,144,0,0,0,0,0,0,0,0,-32294,0,0,0,4185,0,20666,0
20037,-120,-8188,876,-47,20,6,11043,0,-1,-1,0,36687,84,25,144,0,0,0,0,0,0,0,0,-32293,0,0,0,4182,0,20683,0
20047,-638,-8210,844,-51,17,13,11103,241,105,895,1072,36679,75,25,144,0,0,0,0,0,0,0,0,-32293,0,0,0,4183,0,20703,0
20057,50,-8222,832,-49,26,-17,11347,648,477,958,2176,36678,70,26,144,0,0,0,0,0,0,0,0,-32294,0,0,0,4184,0,20723,0
20067,-16,-8230,842,-55,19,1,11776,1067,700,1028,3064,36668,106,25,144,0,0,0,0,0,0,0,0,-32293,0,0,0,4184,0,20743,0
20077,-68,-8216,848,-57,23,11,12387,1461,712,1047,3968,36649,130,25,144,0,0,0,0,0,0,0,0,-32293,0,0,0,4184,0,20763,0
20087,-32,-8180,904,-49,19,15,13159,1792,653,1011,4720,36633,154,25,144,0,0,0,0,0,0,0,0,-32293,0,0,0,4184,0,20783,0
20097,-182,-8222,812,-70,31,10,14067,2079,576,994,5448,36623,182,25,144,0,0,0,0,0,0,0,0,-32293,0,0,0,4184,0,20803,0
20107,-136,-8190,934,-42,32,5,15120,2414,531,1025,6208,36616,206,25,144,0,0,0,0,0,0,0,0,-32294,0,0,0,4184,0,20823,0
20117,-36,-8212,794,-53,30,5,16338,2792,590,1039,6880,36605,233,25,144,0,0,0,0,0,0,0,0,-32294,0,0,0,4183,0,20843,0
20127,-30,-8258,824,-46,-7,9,17669,2954,551,1001,7344,36586,260,25,144,0,0,0,0,0,0,0,0,-32294,0,0,0,4185,0,20863,0
20137,-242,-8170,802,-35,-23,17,19040,3065,278,919,7928,36576,270,25,144,0,0,0,0,0,0,0,0,-32294,0,0,0,4184,0,20886,0
20147,-198,-8198,902,-42,2,4,20556,3467,347,1047,8792,36560,293,25,144,0,0,0,0,0,0,0,0,-32293,0,0,0,4184,0,20903,0
20157,-48,-8214,674,-49,14,4,22228,3734,606,1011,9376,36549,309,25,144,0,0,0,0,0,0,0,0,-32293,0,0,0,4184,0,20923,0
20167,-350,-8224,732,-42,-21,19,24038,4126,540,1021,10224,36531,334,25,144,0,0,0,0,0,0,0,0,-32294,0,0,0,4184,0,20943,0
20177,-116,-8308,848,28,25,15,26015,4366,607,1033,10680,36515,350,26,144,0,0,0,0,0,0,0,0,-32293,0,0,0,4183,0,20963,0
20187,-12348,-9646,938,-417,-102,828,27955,4139,268,1211,9272,36508,363,25,144,0,0,0,0,0,0,0,0,-32294,0,0,0,4222,9,20983,0
20197,32511,-9490,1464,-373,-1738,3640,29315,2258,-1123,1366,3504,36487,408,26,144,0,0,0,0,0,0,0,0,-32295,0,0,0,4343,10,21003,0
20207,7124,-6882,996,-253,-1870,2387,29467,-449,-3519,639,-584,36509,341,25,144,0,0,0,0,0,0,0,0,-32294,0,0,0,4370,0,21023,0
20217,-27406,-8272,-1812,-126,537,-455,28913,-1345,-3787,634,-1192,36558,228,25,144,0,0,0,0,0,0,0,0,-32293,0,0,0,4332,-4,21043,0
20227,-17640,-6986,-2846,179,2264,-1592,28453,-779,-1146,1041,168,36625,76,26,144,0,0,0,0,0,0,0,0,-32294,0,0,0,4296,-3,21063,0
20237,834,-8432,1766,604,2136,-1379,28373,-1,975,1190,320,36662,36,25,144,0,0,0,0,0,0,0,0,-32294,0,0,0,4277,-1,21083,0
20247,16278,-3310,1668,76,1099,-820,28352,-109,873,1052,128,36654,42,25,144,0,0,0,0,0,0,0,0,-32294,0,0,0,4272,0,21103,0
20257,7984,-8308,850,96,-809,208,28231,-292,-117,975,72,36653,38,26,144,0,0,0,0,0,0,0,0,-32294,0,0,0,4264,-1,21123,0
20267,-1620,-9132,774,194,-783,625,28174,-13,-96,966,408,36659,48,25,144,0,0,0,0,0,0,0,0,-32294,0,0,0,4263,0,21143,0
20277,-4686,-8556,516,139,-157,545,28281,313,459,872,1112,36664,56,25,144,0,0,0,0,0,0,0,0,-32294,0,0,0,4273,0,21163,0
20287,-3134,-8382,1416,103,103,348,28466,407,470,1020,1104,36656,74,25,144,0,0,0,0,0,0,0,0,-32294,0,0,0,4287,1,21183,0
20297,1776,-8594,2370,1,34,211,28587,178,25,1107,368,36644,97,25,144,0,0,0,0,0,0,0,0,-32293,0,0,0,4296,0,21203,0
20307,1082,-8282,2662,-116,-66,131,28566,-113,-406,1024,184,36649,88,25,144,0,0,0,0,0,0,0,0,-32293,0,0,0,4296,0,21223,0
20317,-2444,-8102,1956,-288,-34,68,28529,-46,-320,980,296,36663,85,25,144,0,0,0,0,0,0,0,0,-32293,0,0,0,4294,0,21243,0
20327,-2230,-8120,870,-337,15,2,28544,48,89,1000,328,36667,79,25,144,0,0,0,0,0,0,0,0,-32294,0,0,0,4295,0,21263,0
20337,-968,-8056,-228,-246,20,-186,28539,-31,62,1017,256,36663,82,25,144,0,0,0,0,0,0,0,0,-32294,0,0,0,4295,0,21283,0
20347,-802,-7870,-378,-157,16,-228,28521,-29,-74,993,280,36660,81,25,144,0,0,0,0,0,0,0,0,-32294,0,0,0,4293,0,21303,0
20357,-90,-8252,136,-41,-35,-200,28516,-15,-1,1004,280,36664,77,25,144,0,0,0,0,0,0,0,0,-32293,0,0,0,4293,0,21323,0
20367,150,-8182,624,-10,-56,-187,28499,-44,-2,1009,216,36664,90,26,144,0,0,0,0,0,0,0,0,-32294,0,0,0,4291,0,21343,0
20377,-242,-8274,1200,-22,-8,-229,28457,-118,-63,1010,160,36658,92,25,144,0,0,0,0,0,0,0,0,-32294,0,0,0,4287,0,21363,0
20387,-612,-8230,1392,-57,37,-231,28407,-106,-63,999,184,36654,86,25,144,0,0,0,0,0,0,0,0,-32294,0,0,0,4283,0,21383,0
20397,-184,-8102,1378,-104,82,-242,28359,-98,-13,1005,184,36660,64,26,144,0,0,0,0,0,0,0,0,-32294,0,0,0,4280,0,21403,0
20407,-132,-8220,1070,-135,80,-261,28301,-122,-11,988,184,36666,52,25,144,0,0,0,0,0,0,0,0,-32294,0,0,0,4276,0,21423,0
20417,76,-8142,616,-154,45,-152,28267,-64,22,987,248,36661,43,25,144,0,0,0,0,0,0,0,0,-32294,0,0,0,4272,0,21443,0
20427,204,-8200,582,-117,0,-48,28259,3,103,983,320,36662,39,26,144,0,0,0,0,0,0,0,0,-32294,0,0,0,4270,0,21463,0
20437,150,-8198,530,-64,-38,2,28261,-7,74,1008,288,36666,51,25,144,0,0,0,0,0,0,0,0,-32294,0,0,0,4271,0,21483,0
20447,-462,-8166,598,-42,-16,13,28261,12,-1,993,320,36671,58,26,144,0,0,0,0,0,0,0,0,-32294,0,0,0,4270,0,21503,0
20457,-528,-8262,874,-28,12,-20,28262,2,0,1004,280,36667,64,25,144,0,0,0,0,0,0,0,0,-32294,0,0,0,4270,0,21523,0
20467,-370,-8110,1022,-40,21,-34,28261,2,0,995,296,36660,64,25,144,0,0,0,0,0,0,0,0,-32294,0,0,0,4270,0,21543,0
20477,-46,-8188,1054,-61,11,-23,28260,3,0,1000,296,36661,51,26,144,0,0,0,0,0,0,0,0,-32294,0,0,0,4271,0,21563,0
20487,-164,-8200,1024,-80,8,-3,28260,3,-2,997,304,36665,55,25,144,0,0,0,0,0,0,0,0,-32294,0,0,0,4270,0,21583,0
20497,-194,-8176,828,-87,16,-1,28259,3,5,999,304,36663,69,25,144,0,0,0,0,0,0,0,0,-32294,0,0,0,4270,0,21603,0
20507,-204,-8132,726,-72,19,9,28258,3,-4,1002,288,36660,79,25,144,0,0,0,0,0,0,0,0,-32294,0,0,0,4270,0,21623,0
20517,-162,-8272,674,-57,20,31,28259,3,-1,995,304,36659,75,25,144,0,0,0,0,0,0,0,0,-32294,0,0,0,4270,0,21643,0
20527,-198,-8164,782,-51,13,36,28258,-6,1,996,312,36671,63,25,144,0,0,0,0,0,0,0,0,-32294,0,0,0,4269,0,21663,0
20537,-368,-8196,874,-50,17,26,28259,1,3,1000,312,36674,70,25,144,0,0,0,0,0,0,0,0,-32294,0,0,0,4270,0,21683,0
20547,-418,-8260,896,-59,13,23,28261,3,-5,999,312,36669,69,25,144,0,0,0,0,0,0,0,0,-32294,0,0,0,4269,0,21703,0
20557,-360,-8164,854,-50,22,6,28260,7,1,999,312,36664,62,25,144,0,0,0,0,0,0,0,0,-32294,0,0,0,4270,0,21723,0
20567,-270,-8154,804,-48,18,-12,28258,-6,5,1002,288,36663,64,26,144,0,0,0,0,0,0,0,0,-32294,0,0,0,4270,0,21743,0
20577,-140,-8284,820,-48,15,6,28258,-9,3,994,312,36667,62,25,144,0,0,0,0,0,0,0,0,-32294,0,0,0,4270,0,21763,0
20587,-220,-8174,854,-48,19,17,28260,0,8,1000,312,36662,67,25,144,0,0,0,0,0,0,0,0,-32294,0,0,0,4270,0,21784,0
20597,-202,-8184,862,-46,8,22,28260,1,0,1000,312,36659,56,26,144,0,0,0,0,0,0,0,0,-32294,0,0,0,4271,0,21803,0
20607,-242,-8194,878,-45,14,26,28260,-3,1,998,312,36663,62,25,144,0,0,0,0,0,0,0,0,-32294,0,0,0,4270,0,21823,0
20617,-304,-8202,896,-53,23,27,28261,0,3,994,312,36670,65,26,144,0,0,0,0,0,0,0,0,-32294,0,0,0,4270,0,21843,0
20627,-296,-8156,848,-54,21,23,28261,-4,1,999,312,36669,67,25,144,0,0,0,0,0,0,0,0,-32294,0,0,0,4270,0,21863,0
20637,-318,-8242,824,-52,13,28,28261,1,2,1001,304,36673,71,25,144,0,0,0,0,0,0,0,0,-32294,0,0,0,4270,0,21883,0
20647,-304,-8178,812,-42,15,24,28263,2,-4,998,312,36675,61,26,144,0,0,0,0,0,0,0,0,-32294,0,0,0,4271,0,21903,0
20657,-234,-8184,810,-37,20,18,28263,1,1,999,312,36678,75,25,144,0,0,0,0,0,0,0,0,-32294,0,0,0,4270,0,21923,0
20667,-234,-8230,820,-40,23,23,28263,0,1,1001,296,36670,79,25,144,0,0,0,0,0,0,0,0,-32293,0,0,0,4271,0,21943,0
20677,-216,-8172,874,-36,21,39,28263,-1,-2,996,304,36668,81,25,144,0,0,0,0,0,0,0,0,-32294,0,0,0,4271,0,21964,0
20687,-228,-8182,878,-39,24,32,28264,4,1,999,312,36664,73,25,144,0,0,0,0,0,0,0,0,-32294,0,0,0,4271,0,21984,0
20697,-276,-8194,878,-44,21,39,28266,8,-2,1002,296,36670,63,26,144,0,0,0,0,0,0,0,0,-32294,0,0,0,4270,0,22004,0
20707,-290,-8238,894,-34,27,39,28264,-5,3,996,288,36671,65,25,144,0,0,0,0,0,0,0,0,-32294,0,0,0,4272,0,22024,0
20717,-330,-8182,852,-37,22,37,28266,4,0,996,296,36668,68,25,144,0,0,0,0,0,0,0,0,-32294,0,0,0,4271,0,22044,0
20727,-286,-8192,832,-35,32,33,28268,3,6,1001,296,36668,64,25,144,0,0,0,0,0,0,0,0,-32294,0,0,0,4272,0,22064,0
20737,-316,-8208,842,-33,17,41,28268,3,-4,998,296,36679,72,25,144,0,0,0,0,0,0,0,0,-32294,0,0,0,4272,0,22085,0
20747,-326,-8180,852,-35,25,35,28270,5,-2,998,304,36682,65,25,144,0,0,0,0,0,0,0,0,-32294,0,0,0,4272,0,22104,0
20757,-316,-8130,864,-37,20,33,28271,0,1,998,304,36680,67,25,144,0,0,0,0,0,0,0,0,-32294,0,0,0,4271,0,22124,0
20767,-310,-8218,882,-40,25,26,28272,1,-1,995,320,36671,53,26,144,0,0,0,0,0,0,0,0,-32294,0,0,0,4272,0,22144,0
20777,-294,-8192,882,-43,24,27,28273,5,3,1001,320,36674,50,25,144,0,0,0,0,0,0,0,0,-32294,0,0,0,4272,0,22164,0
20787,-382,-8176,878,-40,17,29,28274,4,-4,998,312,36675,60,25,144,0,0,0,0,0,0,0,0,-32294,0,0,0,4272,0,22185,0
20797,-382,-8210,862,-49,21,28,28276,0,-4,1000,304,36672,66,25,144,0,0,0,0,0,0,0,0,-32294,0,0,0,4272,0,22204,0
20807,-356,-8196,872,-47,17,28,28278,4,2,998,312,36668,70,25,144,0,0,0,0,0,0,0,0,-32294,0,0,0,4272,0,22224,0
20817,-318,-8186,842,-48,17,17,28278,1,-1,1002,296,36672,64,26,144,0,0,0,0,0,0,0,0,-32294,0,0,0,4272,0,22244,0
20827,-286,-8220,886,-50,16,20,28280,0,3,999,288,36677,65,25,144,0,0,0,0,0,0,0,0,-32294,0,0,0,4273,0,22264,0
20837,-306,-8174,854,-50,21,12,28281,0,-6,1001,296,36677,72,26,144,0,0,0,0,0,0,0,0,-32294,0,0,0,4273,0,22285,0
20847,-324,-8178,874,-49,14,11,28283,9,4,1002,288,36678,65,25,144,0,0,0,0,0,0,0,0,-32294,0,0,0,4272,0,22304,0
20857,-302,-8222,860,-48,16,10,28283,1,-1,999,288,36675,55,25,144,0,0,0,0,0,0,0,0,-32294,0,0,0,4273,0,22324,0
20867,-360,-8170,866,-52,11,12,28283,0,2,998,288,36680,42,26,144,0,0,0,0,0,0,0,0,-32294,0,0,0,4272,0,22344,0
20877,-334,-8164,850,-51,10,4,28284,9,3,997,280,36677,60,25,144,0,0,0,0,0,0,0,0,-32294,0,0,0,4272,0,22364,0
20887,-328,-8228,866,-47,11,3,28284,-2,-5,999,288,36669,57,25,144,0,0,0,0,0,0,0,0,-32294,0,0,0,4272,0,22385,0
20897,-316,-8212,850,-53,17,4,28284,0,0,1002,280,36670,45,26,144,0,0,0,0,0,0,0,0,-32294,0,0,0,4272,0,22404,0
20907,-298,-8202,866,-47,15,1,28284,3,-5,996,288,36675,53,25,144,0,0,0,0,0,0,0,0,-32294,0,0,0,4273,0,22424,0
20917,-264,-8168,876,-49,15,6,28283,0,-3,996,280,36678,54,25,144,0,0,0,0,0,0,0,0,-32294,0,0,0,4272,0,22444,0
20927,-292,-8204,866,-43,14,10,28284,1,-6,995,280,36674,62,25,144,0,0,0,0,0,0,0,0,-32294,0,0,0,4273,0,22464,0
20937,-262,-8200,866,-55,21,7,28284,2,-3,997,296,36672,63,25,144,0,0,0,0,0,0,0,0,-32294,0,0,0,4272,0,22485,0
20947,-240,-8186,860,-53,20,10,28284,3,8,1001,288,36681,49,25,144,0,0,0,0,0,0,0,0,-32294,0,0,0,4272,0,22504,0
20957,-312,-8208,884,-51,19,11,28283,0,1,998,288,36685,49,26,144,0,0,0,0,0,0,0,0,-32294,0,0,0,4273,0,22524,0
20967,-354,-8182,854,-49,16,14,28284,0,-1,997,288,36684,49,25,144,0,0,0,0,0,0,0,0,-32294,0,0,0,4273,0,22544,0
20977,-344,-8214,850,-48,17,3,28283,0,3,1000,280,36679,61,25,144,0,0,0,0,0,0,0,0,-32294,0,0,0,4272,0,22564,0
20987,-288,-8196,828,-41,13,15,28284,0,-1,1000,296,36677,54,26,144,0,0,0,0,0,0,0,0,-32294,0,0,0,4273,0,22585,0
20997,-336,-8202,880,-43,16,8,28285,2,0,998,272,36692,60,25,144,0,0,0,0,0,0,0,0,-32294,0,0,0,4273,0,22604,0
21007,-288,-8204,854,-42,7,10,28286,6,-4,994,280,36704,69,26,144,0,0,0,0,0,0,0,0,-32294,0,0,0,4273,0,22624,0
21017,-300,-8218,872,-45,13,7,28284,-3,-2,995,288,36702,64,25,144,0,0,0,0,0,0,0,0,-32294,0,0,0,4273,0,22644,0
21027,-340,-8182,878,-49,10,5,28287,-2,0,996,280,36687,62,25,144,0,0,0,0,0,0,0,0,-32294,0,0,0,4273,0,22664,0
21037,-298,-8180,872,-56,15,3,28287,3,-1,997,280,36682,45,26,144,0,0,0,0,0,0,0,0,-32295,0,0,0,4273,0,22685,0
21047,-290,-8200,838,-46,12,0,28286,0,-1,1004,288,36682,53,25,144,0,0,0,0,0,0,0,0,-32294,0,0,0,4273,0,22704,0
21057,-290,-8208,902,-51,14,3,28287,0,1,999,272,36682,68,25,144,0,0,0,0,0,0,0,0,-32294,0,0,0,4274,0,22724,0
21067,-320,-8178,850,-52,10,3,28287,4,-5,996,280,36679,66,26,144,0,0,0,0,0,0,0,0,-32294,0,0,0,4273,0,22744,0
21077,-300,-8200,852,-48,8,3,28286,-2,-3,991,280,36681,68,25,144,0,0,0,0,0,0,0,0,-32294,0,0,0,4274,0,22764,0
21087,-302,-8176,862,-49,11,3,28286,-1,-3,997,280,36678,69,26,144,0,0,0,0,0,0,0,0,-32294,0,0,0,4274,0,22784,0
21097,-326,-8218,862,-43,11,3,28287,2,1,1000,280,36674,59,25,144,0,0,0,0,0,0,0,0,-32294,0,0,0,4273,0,22804,0
21107,-292,-8182,856,-50,12,7,28287,2,-2,997,280,36667,61,25,144,0,0,0,0,0,0,0,0,-32294,0,0,0,4273,0,22824,0
21117,-302,-8184,830,-45,10,8,28286,0,-5,999,288,36672,44,26,144,0,0,0,0,0,0,0,0,-32294,0,0,0,4273,0,22844,0
21127,-250,-8188,862,-49,13,8,28286,-2,-1,998,288,36677,58,25,144,0,0,0,0,0,0,0,0,-32294,0,0,0,4273,0,22864,0
21137,-284,-8174,852,-49,8,7,28285,-2,0,998,280,36675,64,26,144,0,0,0,0,0,0,0,0,-32294,0,0,0,4273,0,22884,0
21147,-324,-8198,874,-44,12,12,28286,0,0,1002,272,36668,67,26,144,0,0,0,0,0,0,0,0,-32294,0,0,0,4274,0,22904,0
21157,-300,-8180,872,-47,19,5,28287,0,-2,994,272,36666,61,26,144,0,0,0,0,0,0,0,0,-32294,0,0,0,4272,0,22924,0
21167,-336,-8188,830,-50,16,5,28286,-2,-3,997,296,36682,57,25,144,0,0,0,0,0,0,0,0,-32294,0,0,0,4274,0,22944,0
21177,-322,-8188,864,-48,14,7,28288,9,-2,995,272,36684,69,26,144,0,0,0,0,0,0,0,0,-32294,0,0,0,4273,0,22964,0
21187,-288,-8158,894,-51,14,9,28286,-6,1,995,272,36677,63,25,144,0,0,0,0,0,0,0,0,-32294,0,0,0,4273,0,22984,0
21197,-338,-8170,900,-52,14,8,28288,5,-1,998,288,36665,58,25,144,0,0,0,0,0,0,0,0,-32294,0,0,0,4272,0,23004,0
21207,-288,-8226,868,-50,18,6,28287,0,-2,996,272,36668,50,26,144,0,0,0,0,0,0,0,0,-32294,0,0,0,4272,0,23024,0
21217,-350,-8162,870,-49,8,2,28286,0,0,998,280,36672,58,25,144,0,0,0,0,0,0,0,0,-32294,0,0,0,4274,0,23044,0
21227,-326,-8192,860,-48,15,-1,28286,-2,2,994,272,36667,61,25,144,0,0,0,0,0,0,0,0,-32294,0,0,0,4273,0,23064,0
21237,-290,-8204,868,-50,10,1,28286,0,0,999,288,36665,47,26,144,0,0,0,0,0,0,0,0,-32294,0,0,0,4273,0,23084,0
21247,-324,-8168,848,-44,12,4,28286,-5,-2,998,264,36672,50,25,144,0,0,0,0,0,0,0,0,-32294,0,0,0,4272,0,23104,0
21257,-268,-8188,854,-44,3,-1,28285,-6,-2,993,280,36676,49,26,144,0,0,0,0,0,0,0,0,-32294,0,0,0,4273,0,23124,0
21267,-318,-8190,858,-48,14,-2,28286,-1,2,998,288,36681,53,25,144,0,0,0,0,0,0,0,0,-32294,0,0,0,4272,0,23144,0
21277,-306,-8194,878,-50,11,5,28286,8,3,998,280,36672,53,25,144,0,0,0,0,0,0,0,0,-32294,0,0,0,4273,0,23164,0
21287,-298,-8222,848,-54,11,2,28285,-4,-2,994,280,36672,38,26,144,0,0,0,0,0,0,0,0,-32295,0,0,0,4274,0,23184,0
21297,-294,-8188,874,-51,15,0,28286,-3,-3,999,296,36668,54,25,144,0,0,0,0,0,0,0,0,-32294,0,0,0,4272,0,23204,0
21307,-278,-8156,852,-52,14,7,28285,-6,-3,998,280,36669,63,26,144,0,0,0,0,0,0,0,0,-32294,0,0,0,4274,0,23224,0
21317,-268,-8224,854,-52,12,1,28286,-1,0,998,288,36667,66,25,144,0,0,0,0,0,0,0,0,-32294,0,0,0,4273,0,23244,0
21327,-280,-8202,852,-52,10,5,28287,5,4,999,272,36666,61,25,144,0,0,0,0,0,0,0,0,-32294,0,0,0,4273,0,23264,0
21337,-318,-8198,842,-51,16,11,28286,0,3,998,280,36669,48,25,144,0,0,0,0,0,0,0,0,-32294,0,0,0,4273,0,23285,0
21347,-294,-8190,826,-43,13,11,28286,5,2,997,288,36668,59,25,144,0,0,0,0,0,0,0,0,-32294,0,0,0,4272,0,23304,0
21357,-300,-8214,842,-37,19,9,28285,-5,3,1000,272,36665,59,25,144,0,0,0,0,0,0,0,0,-32294,0,0,0,4274,0,23324,0
21367,-312,-8178,874,-42,12,7,28285,-6,2,1000,280,36670,55,25,144,0,0,0,0,0,0,0,0,-32294,0,0,0,4272,0,23344,0
21377,-298,-8198,882,-40,11,13,28287,5,5,998,280,36676,47,25,144,0,0,0,0,0,0,0,0,-32294,0,0,0,4273,0,23364,0
21387,-268,-8172,868,-41,11,14,28286,1,4,997,288,36678,50,25,144,0,0,0,0,0,0,0,0,-32294,0,0,0,4273,0,23384,0
21397,-276,-8214,880,-46,14,15,28286,0,1,1006,296,36672,56,25,144,0,0,0,0,0,0,0,0,-32294,0,0,0,4273,0,23404,0
21407,-288,-8222,866,-47,13,9,28285,-7,2,999,280,36662,52,26,144,0,0,0,0,0,0,0,0,-32294,0,0,0,4273,0,23424,0
21417,-308,-8168,844,-49,18,12,28285,-1,4,1000,280,36667,45,25,144,0,0,0,0,0,0,0,0,-32294,0,0,0,4272,0,23444,0
21427,-292,-8206,858,-47,16,11,28287,0,2,995,280,36672,54,26,144,0,0,0,0,0,0,0,0,-32294,0,0,0,4274,0,23464,0
21437,-308,-8196,882,-46,16,15,28286,-3,3,994,296,36668,55,25,144,0,0,0,0,0,0,0,0,-32294,0,0,0,4272,0,23484,0
21447,-306,-8208,854,-46,17,10,28287,2,2,1002,280,36662,68,25,144,0,0,0,0,0,0,0,0,-32294,0,0,0,4274,0,23504,0
21457,-290,-8172,874,-40,16,12,28286,-5,3,1001,272,36664,46,26,144,0,0,0,0,0,0,0,0,-32294,0,0,0,4272,0,23524,0
21467,-318,-8210,882,-40,11,7,28287,2,3,995,288,36665,58,25,144,0,0,0,0,0,0,0,0,-32294,0,0,0,4272,0,23544,0
21477,-336,-8176,852,-40,13,9,28287,-5,4,999,264,36666,69,26,144,0,0,0,0,0,0,0,0,-32294,0,0,0,4274,0,23564,0
21487,-310,-8172,844,-44,9,4,28287,2,-1,998,280,36660,72,25,144,0,0,0,0,0,0,0,0,-32294,0,0,0,4272,0,23584,0
21497,-290,-8198,836,-52,16,11,28286,-5,0,1000,288,36661,61,25,144,0,0,0,0,0,0,0,0,-32294,0,0,0,4273,0,23604,0
21507,-324,-8190,862,-38,18,16,28285,-11,-3,998,272,36665,51,26,144,0,0,0,0,0,0,0,0,-32294,0,0,0,4273,0,23624,0
21517,-286,-8180,854,-49,12,11,28286,1,0,1001,288,36669,56,25,144,0,0,0,0,0,0,0,0,-32294,0,0,0,4273,0,23644,0
21527,-292,-8180,856,-50,16,10,28287,3,-1,995,280,36662,57,25,144,0,0,0,0,0,0,0,0,-32294,0,0,0,4274,0,23664,0
21537,-286,-8188,876,-42,13,13,28288,4,1,1000,288,36661,46,25,144,0,0,0,0,0,0,0,0,-32294,0,0,0,4273,0,23684,0
21547,-334,-8174,882,-49,18,15,28289,4,6,1002,280,36668,53,25,144,0,0,0,0,0,0,0,0,-32294,0,0,0,4273,0,23704,0
21557,-304,-8200,866,-45,19,17,28290,4,1,995,272,36672,51,25,144,0,0,0,0,0,0,0,0,-32294,0,0,0,4274,0,23724,0
21567,-298,-8212,872,-48,16,17,28289,0,2,999,280,36667,61,25,144,0,0,0,0,0,0,0,0,-32294,0,0,0,4273,0,23744,0
21577,-286,-8216,870,-47,16,18,28294,15,7,995,272,36661,55,26,144,0,0,0,0,0,0,0,0,-32294,0,0,0,4274,0,23764,0
21587,-274,-8186,858,-41,14,15,28294,8,2,995,280,36672,53,26,144,0,0,0,0,0,0,0,0,-32294,0,0,0,4273,0,23784,0
21597,-292,-8194,874,-50,6,24,28298,8,2,1000,304,36677,62,26,144,0,0,0,0,0,0,0,0,-32294,0,0,0,4273,0,23804,0
21607,-344,-8208,856,-45,9,24,28303,7,3,1000,296,36675,63,25,144,0,0,0,0,0,0,0,0,-32294,0,0,0,4276,0,23824,0
21617,-266,-8186,866,-49,7,33,28309,15,13,997,288,36660,67,25,144,0,0,0,0,0,0,0,0,-32294,0,0,0,4275,0,23844,0
21627,-290,-8212,868,-51,5,29,28314,7,0,998,264,36662,49,26,144,0,0,0,0,0,0,0,0,-32294,0,0,0,4275,0,23864,0
21637,-388,-8192,848,-48,8,22,28314,-1,-6,1003,256,36670,41,25,144,0,0,0,0,0,0,0,0,-32294,0,0,0,4275,0,23884,0
21647,-442,-8194,844,-45,17,11,28314,-7,-12,1002,272,36671,41,26,144,0,0,0,0,0,0,0,0,-32294,0,0,0,4275,0,23904,0
21657,-292,-8186,862,-53,17,3,28315,-7,-3,1001,256,36667,42,25,144,0,0,0,0,0,0,0,0,-32294,0,0,0,4276,0,23924,0
21667,-232,-8196,892,-50,15,8,28315,-1,-1,998,256,36665,38,25,144,0,0,0,0,0,0,0,0,-32294,0,0,0,4276,0,23945,0
21677,-314,-8208,866,-56,15,12,28315,-2,-3,998,264,36669,27,26,144,0,0,0,0,0,0,0,0,-32294,0,0,0,4276,0,23965,0
21687,-328,-8214,872,-56,19,12,28316,0,-1,999,256,36679,48,25,144,0,0,0,0,0,0,0,0,-32294,0,0,0,4276,0,23985,0
21697,-344,-8168,880,-54,18,8,28316,4,-1,999,264,36670,48,25,144,0,0,0,0,0,0,0,0,-32294,0,0,0,4276,0,24005,0
21707,-318,-8186,884,-58,20,0,28316,-4,-4,996,248,36666,34,26,144,0,0,0,0,0,0,0,0,-32294,0,0,0,4275,0,24025,0
21717,-314,-8206,888,-53,16,11,28316,-1,-2,996,256,36668,38,25,144,0,0,0,0,0,0,0,0,-32294,0,0,0,4276,0,24045,0
21727,-266,-8194,882,-57,17,8,28317,2,-2,998,256,36674,45,26,144,0,0,0,0,0,0,0,0,-32294,0,0,0,4275,0,24065,0
21737,-292,-8204,858,-48,15,6,28317,4,-7,996,264,36670,58,25,144,0,0,0,0,0,0,0,0,-32294,0,0,0,4276,0,24085,0
21747,-326,-8232,864,-47,15,7,28317,-9,2,1000,256,36663,58,25,144,0,0,0,0,0,0,0,0,-32294,0,0,0,4276,0,24105,0
21757,-290,-8188,862,-49,17,10,28318,-1,-1,998,256,36666,50,25,144,0,0,0,0,0,0,0,0,-32294,0,0,0,4276,0,24125,0
21767,-350,-8178,848,-52,8,8,28318,-2,-2,998,280,36675,52,26,144,0,0,0,0,0,0,0,0,-32294,0,0,0,4276,0,24145,0
21777,-326,-8208,872,-60,14,13,28317,-8,-5,997,264,36675,49,25,144,0,0,0,0,0,0,0,0,-32294,0,0,0,4276,0,24165,0
21787,-366,-8176,852,-58,7,14,28319,3,3,999,256,36666,51,25,144,0,0,0,0,0,0,0,0,-32294,0,0,0,4277,0,24185,0
21797,-342,-8192,856,-53,16,12,28318,0,-1,1000,272,36668,49,26,144,0,0,0,0,0,0,0,0,-32294,0,0,0,4276,0,24205,0
21807,-316,-8198,856,-54,15,7,28320,6,-3,1000,264,36676,47,25,144,0,0,0,0,0,0,0,0,-32294,0,0,0,4276,0,24225,0
21817,-328,-8202,868,-55,15,10,28320,0,-1,997,280,36680,65,26,144,0,0,0,0,0,0,0,0,-32294,0,0,0,4275,0,24245,0
21827,-298,-8190,868,-57,10,13,28320,1,2,1000,288,36670,61,25,144,0,0,0,0,0,0,0,0,-32295,0,0,0,4276,0,24265,0
21837,-366,-8248,882,-47,16,7,28321,7,2,1000,272,36666,55,25,144,0,0,0,0,0,0,0,0,-32294,0,0,0,4277,0,24285,0
21847,-332,-8190,838,-53,17,5,28320,1,2,1002,288,36673,42,26,144,0,0,0,0,0,0,0,0,-32294,0,0,0,4277,0,24305,0
21857,-280,-8170,858,-51,12,2,28320,1,-2,998,256,36681,46,25,144,0,0,0,0,0,0,0,0,-32294,0,0,0,4276,0,24325,0
21867,-300,-8208,842,-52,15,9,28320,2,4,1000,288,36676,58,25,144,0,0,0,0,0,0,0,0,-32294,0,0,0,4278,0,24345,0
21877,-312,-8190,862,-52,14,9,28321,4,-2,997,272,36670,52,26,144,0,0,0,0,0,0,0,0,-32294,0,0,0,4276,0,24366,0
21887,-314,-8186,864,-47,14,9,28320,1,3,996,272,36671,56,25,144,0,0,0,0,0,0,0,0,-32294,0,0,0,4277,0,24385,0
21897,-310,-8180,834,-53,14,8,28320,-5,2,1003,272,36678,53,26,144,0,0,0,0,0,0,0,0,-32294,0,0,0,4276,0,24405,0
21907,-340,-8176,836,-49,11,11,28321,6,-3,997,264,36684,57,25,144,0,0,0,0,0,0,0,0,-32294,0,0,0,4277,0,24425,0
21917,-298,-8186,860,-54,17,12,28321,-1,-4,996,296,36678,56,25,144,0,0,0,0,0,0,0,0,-32294,0,0,0,4278,0,24445,0
21927,-270,-8176,874,-53,15,9,28322,3,-1,1000,288,36681,36,26,144,0,0,0,0,0,0,0,0,-32294,0,0,0,4276,0,24465,0
21937,-342,-8204,878,-49,14,12,28321,2,2,1002,280,36677,33,25,144,0,0,0,0,0,0,0,0,-32294,0,0,0,4277,0,24485,0
21947,-342,-8192,894,-53,14,17,28322,4,0,1000,288,36676,57,26,144,0,0,0,0,0,0,0,0,-32294,0,0,0,4278,0,24505,0
21957,-324,-8212,860,-51,16,9,28321,-5,0,1001,280,36673,70,26,144,0,0,0,0,0,0,0,0,-32294,0,0,0,4276,0,24525,0
21967,-346,-8182,848,-55,14,7,28322,3,-2,1001,288,36672,62,26,144,0,0,0,0,0,0,0,0,-32294,0,0,0,4277,0,24545,0
21977,-328,-8182,850,-48,14,8,28323,3,5,1000,280,36678,53,25,144,0,0,0,0,0,0,0,0,-32294,0,0,0,4277,0,24566,0
21987,-262,-8198,870,-43,14,2,28322,1,1,1001,280,36681,59,26,144,0,0,0,0,0,0,0,0,-32294,0,0,0,4277,0,24585,0
21997,-250,-8166,856,-51,16,0,28324,8,0,1000,272,36673,56,25,144,0,0,0,0,0,0,0,0,-32294,0,0,0,4277,0,24606,0
22007,-320,-8182,896,-48,12,10,28322,-5,2,1001,264,36677,42,25,144,0,0,0,0,0,0,0,0,-32294,0,0,0,4276,0,24625,0
22017,-270,-8196,868,-49,11,4,28324,12,0,996,288,36678,42,26,144,0,0,0,0,0,0,0,0,-32294,0,0,0,4277,0,24645,0
22027,-338,-8210,868,-51,12,9,28323,1,1,999,296,36683,42,25,144,0,0,0,0,0,0,0,0,-32294,0,0,0,4276,0,24666,0
22037,-310,-8200,860,-64,14,4,28324,9,0,999,280,36677,42,25,144,0,0,0,0,0,0,0,0,-32295,0,0,0,4277,0,24686,0
22047,-270,-8190,860,-53,10,7,28322,3,5,1004,288,36673,32,26,144,0,0,0,0,0,0,0,0,-32294,0,0,0,4277,0,24706,0
22057,-290,-8196,836,-59,19,15,28323,1,-1,999,280,36677,38,25,144,0,0,0,0,0,0,0,0,-32294,0,0,0,4276,0,24726,0
22067,-294,-8184,842,-56,15,16,28322,-5,0,998,280,36683,46,26,144,0,0,0,0,0,0,0,0,-32294,0,0,0,4277,0,24745,0
22077,-306,-8180,842,-48,17,19,28325,14,3,998,288,36677,51,25,144,0,0,0,0,0,0,0,0,-32294,0,0,0,4276,0,24766,0
22087,-302,-8186,860,-47,17,15,28324,0,1,1001,280,36671,59,25,144,0,0,0,0,0,0,0,0,-32294,0,0,0,4278,0,24786,0
22097,-292,-8200,840,-47,11,16,28324,0,-3,997,280,36672,50,26,144,0,0,0,0,0,0,0,0,-32294,0,0,0,4278,0,24806,0
22107,-334,-8198,848,-49,17,14,28326,4,-4,997,272,36679,60,25,144,0,0,0,0,0,0,0,0,-32294,0,0,0,4278,0,24826,0
22117,-340,-8204,888,-44,15,14,28324,-3,3,998,272,36681,63,26,144,0,0,0,0,0,0,0,0,-32294,0,0,0,4278,0,24845,0
22127,-316,-8224,850,-46,12,16,28326,-6,0,1000,296,36679,61,25,144,0,0,0,0,0,0,0,0,-32294,0,0,0,4276,0,24866,0
22137,-290,-8166,856,-48,16,18,28327,0,-2,1005,272,36677,61,25,144,0,0,0,0,0,0,0,0,-32294,0,0,0,4276,0,24886,0
22147,-302,-8190,856,-52,11,13,28326,-2,1,1002,296,36673,51,26,144,0,0,0,0,0,0,0,0,-32294,0,0,0,4276,0,24906,0
22157,-346,-8198,854,-50,14,19,28329,6,-1,997,272,36673,47,26,144,0,0,0,0,0,0,0,0,-32294,0,0,0,4278,0,24925,0
22167,-336,-8186,840,-48,14,11,28328,0,3,1000,264,36666,46,25,144,0,0,0,0,0,0,0,0,-32294,0,0,0,4278,0,24945,0
22177,-372,-8202,844,-45,15,8,28328,2,0,999,272,36667,46,25,144,0,0,0,0,0,0,0,0,-32294,0,0,0,4278,0,24966,0
22187,-338,-8182,850,-41,16,6,28329,1,2,1002,248,36671,51,25,144,0,0,0,0,0,0,0,0,-32294,0,0,0,4277,0,24986,0
22197,-312,-8176,876,-33,10,11,28329,5,3,998,256,36673,55,25,144,0,0,0,0,0,0,0,0,-32294,0,0,0,4278,0,25005,0
22207,-338,-8194,872,-43,14,2,28328,0,-5,997,264,36665,58,25,144,0,0,0,0,0,0,0,0,-32294,0,0,0,4278,0,25026,0
22217,-370,-8226,866,-34,8,2,28329,-3,3,994,272,36665,49,26,144,0,0,0,0,0,0,0,0,-32294,0,0,0,4278,0,25045,0
22227,-364,-8166,882,-43,10,-1,28327,-6,7,1002,272,36669,47,25,144,0,0,0,0,0,0,0,0,-32294,0,0,0,4278,0,25066,0
22237,-384,-8212,840,-41,10,-7,28328,-1,2,996,264,36674,50,26,144,0,0,0,0,0,0,0,0,-32294,0,0,0,4277,0,25086,0
22247,-358,-8190,866,-41,-1,-8,28328,-2,2,1004,272,36670,53,25,144,0,0,0,0,0,0,0,0,-32294,0,0,0,4277,0,25106,0
22257,-370,-8150,872,-44,9,-11,28328,-5,-5,996,272,36664,55,25,144,0,0,0,0,0,0,0,0,-32294,0,0,0,4277,0,25126,0
22267,-324,-8236,882,-48,4,-17,28329,3,1,998,264,36671,49,26,144,0,0,0,0,0,0,0,0,-32294,0,0,0,4277,0,25145,0
22277,-264,-8178,906,-53,8,-14,28328,-2,0,1002,280,36687,58,25,144,0,0,0,0,0,0,0,0,-32293,0,0,0,4276,0,25166,0
22287,-296,-8184,916,-52,6,-16,28327,2,2,1000,272,36682,66,26,144,0,0,0,0,0,0,0,0,-32294,0,0,0,4277,0,25186,0
22297,-274,-8230,864,-62,5,-15,28327,9,2,1006,264,36675,58,25,144,0,0,0,0,0,0,0,0,-32294,0,0,0,4278,0,25206,0
22307,-322,-8208,870,-55,7,-17,28325,-3,1,991,264,36661,49,25,144,0,0,0,0,0,0,0,0,-32294,0,0,0,4277,0,25226,0
22317,-262,-8182,866,-56,9,-9,28326,3,1,995,280,36667,41,26,144,0,0,0,0,0,0,0,0,-32294,0,0,0,4277,0,25246,0
22327,-272,-8218,856,-59,13,-3,28326,-1,-3,999,288,36674,53,25,144,0,0,0,0,0,0,0,0,-32294,0,0,0,4277,0,25266,0
22337,-244,-8182,882,-51,12,6,28326,5,-1,1003,272,36668,52,25,144,0,0,0,0,0,0,0,0,-32294,0,0,0,4277,0,25286,0
22347,-224,-8180,884,-55,20,11,28325,0,2,1001,264,36663,39,26,144,0,0,0,0,0,0,0,0,-32294,0,0,0,4278,0,25306,0
22357,-238,-8206,846,-49,18,23,28326,0,0,994,280,36669,47,26,144,0,0,0,0,0,0,0,0,-32294,0,0,0,4276,0,25326,0
22367,-214,-8182,830,-50,25,28,28327,2,1,1001,280,36670,50,26,144,0,0,0,0,0,0,0,0,-32294,0,0,0,4275,0,25346,0
22377,-280,-8176,816,-52,26,35,28326,0,2,996,272,36666,54,26,144,0,0,0,0,0,0,0,0,-32294,0,0,0,4277,0,25366,0
22387,-284,-8216,822,-43,26,39,28328,8,-1,1002,272,36661,56,26,144,0,0,0,0,0,0,0,0,-32294,0,0,0,4277,0,25386,0
22397,-342,-8176,824,-45,28,40,28328,-4,0,1000,280,36663,55,25,144,0,0,0,0,0,0,0,0,-32294,0,0,0,4276,0,25406,0
22407,-366,-8192,826,-39,26,37,28327,-1,-5,996,280,36664,56,26,144,0,0,0,0,0,0,0,0,-32294,0,0,0,4278,0,25426,0
22417,-354,-8190,850,-31,22,42,28328,-3,2,999,256,36663,50,25,144,0,0,0,0,0,0,0,0,-32294,0,0,0,4276,0,25446,0
22427,-334,-8190,868,-34,27,38,28329,-1,3,994,280,36656,58,25,144,0,0,0,0,0,0,0,0,-32294,0,0,0,4278,0,25466,0
22437,-352,-8164,834,-34,21,37,28331,2,1,1002,264,36663,51,26,144,0,0,0,0,0,0,0,0,-32294,0,0,0,4277,0,25486,0
22447,-398,-8178,858,-34,10,29,28333,0,3,999,272,36671,61,25,144,0,0,0,0,0,0,0,0,-32294,0,0,0,4278,0,25506,0
22457,-546,-8156,880,-30,10,5,28335,7,0,997,280,36674,64,26,144,0,0,0,0,0,0,0,0,-32294,0,0,0,4277,0,25526,0
22467,-488,-8180,880,-34,14,-1,28334,3,-3,1001,256,36671,58,25,144,0,0,0,0,0,0,0,0,-32294,0,0,0,4278,0,25547,0
22477,-336,-8182,926,-36,10,-16,28333,-5,2,998,264,36659,49,25,144,0,0,0,0,0,0,0,0,-32294,0,0,0,4277,0,25567,0
22487,-240,-8212,936,-45,8,-18,28332,-3,-1,998,248,36660,38,26,144,0,0,0,0,0,0,0,0,-32294,0,0,0,4277,0,25587,0
22497,-256,-8208,940,-53,0,-15,28333,1,3,1007,264,36663,50,25,144,0,0,0,0,0,0,0,0,-32294,0,0,0,4277,0,25607,0
22507,-336,-8198,934,-55,-2,-15,28333,-1,-5,998,256,36658,54,25,144,0,0,0,0,0,0,0,0,-32294,0,0,0,4278,0,25627,0
22517,-340,-8206,904,-64,6,-10,28333,1,-6,995,248,36657,44,26,144,0,0,0,0,0,0,0,0,-32294,0,0,0,4277,0,25647,0
22527,-250,-8182,836,-63,10,-7,28332,-5,1,999,264,36662,46,25,144,0,0,0,0,0,0,0,0,-32294,0,0,0,4278,0,25667,0
22537,-250,-8194,816,-63,8,-6,28332,3,0,1000,256,36668,50,26,144,0,0,0,0,0,0,0,0,-32294,0,0,0,4277,0,25687,0
22547,-266,-8234,820,-61,9,8,28332,0,1,999,272,36667,56,25,144,0,0,0,0,0,0,0,0,-32294,0,0,0,4277,0,25707,0
22557,-248,-8186,808,-49,18,9,28331,4,6,997,264,36663,52,25,144,0,0,0,0,0,0,0,0,-32294,0,0,0,4277,0,25727,0
22567,-234,-8194,802,-51,19,18,28332,-3,1,995,248,36667,37,26,144,0,0,0,0,0,0,0,0,-32294,0,0,0,4277,0,25747,0
22577,-254,-8208,844,-40,23,20,28332,1,5,997,264,36669,41,25,144,0,0,0,0,0,0,0,0,-32294,0,0,0,4277,0,25767,0
22587,-190,-8196,848,-49,23,31,28333,5,4,998,248,36667,49,26,144,0,0,0,0,0,0,0,0,-32294,0,0,0,4277,0,25787,0
22597,-280,-8196,832,-43,23,33,28333,0,-1,1001,256,36662,54,26,144,0,0,0,0,0,0,0,0,-32294,0,0,0,4277,0,25808,0
22607,-414,-8190,870,-43,24,36,28333,-3,-6,995,264,36661,46,26,144,0,0,0,0,0,0,0,0,-32294,0,0,0,4277,0,25828,0
22617,-366,-8190,862,-47,28,36,28334,2,2,997,272,36667,48,25,144,0,0,0,0,0,0,0,0,-32294,0,0,0,4277,0,25848,0
22627,-392,-8152,834,-38,26,33,28336,6,3,995,280,36666,66,26,144,0,0,0,0,0,0,0,0,-32293,0,0,0,4277,0,25868,0
22637,-390,-8214,834,-44,25,32,28338,5,5,999,272,36661,63,25,144,0,0,0,0,0,0,0,0,-32293,0,0,0,4277,0,25888,0
22647,-374,-8182,848,-40,17,29,28339,-3,2,1000,296,36666,60,25,144,0,0,0,0,0,0,0,0,-32293,0,0,0,4278,0,25908,0
22657,-446,-8204,906,-42,18,14,28340,4,-5,998,288,36674,47,26,144,0,0,0,0,0,0,0,0,-32294,0,0,0,4278,0,25928,0
22667,-418,-8180,888,-49,22,9,28340,0,2,1000,272,36675,58,25,144,0,0,0,0,0,0,0,0,-32294,0,0,0,4278,0,25948,0
22677,-358,-8184,890,-47,18,-1,28340,-1,2,997,272,36663,60,25,144,0,0,0,0,0,0,0,0,-32294,0,0,0,4278,0,25969,0
22687,-342,-8194,932,-50,18,0,28340,0,-4,1000,280,36663,55,26,144,0,0,0,0,0,0,0,0,-32294,0,0,0,4278,0,25989,0
22697,-340,-8186,874,-46,8,-2,28339,-2,-12,999,280,36668,53,25,144,0,0,0,0,0,0,0,0,-32294,0,0,0,4277,0,26009,0
22707,-406,-8170,890,-49,12,0,28340,0,1,998,288,36672,53,26,144,0,0,0,0,0,0,0,0,-32294,0,0,0,4278,0,26029,0
22717,-362,-8184,872,-46,6,-7,28339,-5,-5,1001,272,36668,53,25,144,0,0,0,0,0,0,0,0,-32294,0,0,0,4277,0,26049,0
22727,-336,-8186,816,-44,7,-8,28339,-4,-3,993,280,36664,63,25,144,0,0,0,0,0,0,0,0,-32294,0,0,0,4277,0,26069,0
22737,-318,-8196,848,-44,5,-13,28339,1,-1,1000,280,36669,45,26,144,0,0,0,0,0,0,0,0,-32293,0,0,0,4277,0,26089,0
22747,-342,-8176,874,-44,5,-10,28339,1,5,1001,280,36670,49,25,144,0,0,0,0,0,0,0,0,-32293,0,0,0,4278,0,26109,0
22757,-304,-8212,880,-48,4,-6,28338,-2,1,999,288,36672,59,26,144,0,0,0,0,0,0,0,0,-32294,0,0,0,4278,0,26129,0
22767,-328,-8206,874,-50,14,-8,28339,3,2,998,272,36671,67,26,144,0,0,0,0,0,0,0,0,-32294,0,0,0,4278,0,26149,0
22777,-270,-8162,886,-53,15,-2,28337,-6,2,1000,264,36672,71,26,144,0,0,0,0,0,0,0,0,-32294,0,0,0,4278,0,26169,0
22787,-278,-8192,876,-54,12,-3,28337,-1,0,999,280,36673,54,25,144,0,0,0,0,0,0,0,0,-32294,0,0,0,4277,0,26189,0
22797,-218,-8210,854,-53,18,4,28338,-2,0,1005,280,36672,60,26,144,0,0,0,0,0,0,0,0,-32294,0,0,0,4277,0,26209,0
22807,-310,-8178,858,-54,14,9,28338,1,1,998,288,36667,58,25,144,0,0,0,0,0,0,0,0,-32294,0,0,0,4277,0,26229,0
22817,-272,-8184,838,-46,14,13,28337,-2,0,997,272,36667,50,25,144,0,0,0,0,0,0,0,0,-32294,0,0,0,4277,0,26249,0
22827,-312,-8192,826,-48,17,18,28338,2,4,994,272,36670,42,26,144,0,0,0,0,0,0,0,0,-32294,0,0,0,4277,0,26270,0
22837,-332,-8170,862,-40,21,24,28337,-6,-2,1000,280,36674,46,25,144,0,0,0,0,0,0,0,0,-32294,0,0,0,4277,0,26290,0
22847,-284,-8196,844,-44,20,20,28339,-2,5,997,272,36668,55,25,144,0,0,0,0,0,0,0,0,-32294,0,0,0,4277,0,26310,0
22857,-336,-8180,878,-41,19,21,28338,0,-1,994,280,36672,50,26,144,0,0,0,0,0,0,0,0,-32294,0,0,0,4278,0,26330,0
22867,-348,-8204,866,-43,16,18,28339,5,6,997,272,36679,55,25,144,0,0,0,0,0,0,0,0,-32294,0,0,0,4279,0,26350,0
22877,-350,-8192,898,-51,16,24,28338,0,-1,999,288,36685,65,26,144,0,0,0,0,0,0,0,0,-32294,0,0,0,4278,0,26370,0
22887,-320,-8216,838,-45,15,21,28338,0,1,999,288,36676,58,25,144,0,0,0,0,0,0,0,0,-32294,0,0,0,4277,0,26390,0
22897,-340,-8202,858,-52,18,14,28339,-3,2,1001,264,36668,62,25,144,0,0,0,0,0,0,0,0,-32294,0,0,0,4277,0,26410,0
22907,-402,-8168,834,-47,6,17,28341,7,-5,994,280,36672,48,26,144,0,0,0,0,0,0,0,0,-32294,0,0,0,4277,0,26430,0
22917,-418,-8172,850,-47,14,2,28340,4,-4,1000,288,36679,66,25,144,0,0,0,0,0,0,0,0,-32294,0,0,0,4277,0,26450,0
22927,-346,-8190,868,-51,14,-4,28339,0,-5,998,272,36677,75,26,144,0,0,0,0,0,0,0,0,-32294,0,0,0,4278,0,26470,0
22937,-402,-8212,892,-44,10,-4,28339,-9,1,1002,280,36673,68,25,144,0,0,0,0,0,0,0,0,-32294,0,0,0,4278,0,26490,0
22947,-354,-8182,888,-52,7,-8,28340,2,2,999,280,36671,51,25,144,0,0,0,0,0,0,0,0,-32294,0,0,0,4278,0,26510,0
22957,-390,-8198,874,-48,2,-8,28338,-1,2,1000,280,36679,36,26,144,0,0,0,0,0,0,0,0,-32293,0,0,0,4278,0,26530,0
22967,-330,-8182,878,-49,10,-13,28338,-3,-5,1000,280,36681,50,26,144,0,0,0,0,0,0,0,0,-32294,0,0,0,4277,0,26550,0
22977,-332,-8224,874,-51,3,-18,28338,0,0,995,280,36674,56,26,144,0,0,0,0,0,0,0,0,-32294,0,0,0,4277,0,26570,0
22987,-306,-8188,838,-47,7,-8,28338,0,-4,998,280,36672,51,26,144,0,0,0,0,0,0,0,0,-32294,0,0,0,4278,0,26590,0
22997,-308,-8186,842,-49,9,-9,28337,-1,2,1000,264,36675,53,26,144,0,0,0,0,0,0,0,0,-32294,0,0,0,4278,0,26611,0
23007,-320,-8202,862,-43,6,-5,28338,-1,-3,996,280,36679,50,25,144,0,0,0,0,0,0,0,0,-32294,0,0,0,4277,0,26631,0
23017,-280,-8180,880,-48,12,1,28336,0,4,997,264,36674,60,25,144,0,0,0,0,0,0,0,0,-32294,0,0,0,4277,0,26651,0
23027,-302,-8178,842,-48,10,6,28338,3,1,996,288,36670,57,26,144,0,0,0,0,0,0,0,0,-32293,0,0,0,4277,0,26671,0
23037,-326,-8210,878,-47,10,8,28337,3,-1,999,264,36674,55,25,144,0,0,0,0,0,0,0,0,-32295,0,0,0,4278,0,26691,0
23047,962,-8242,870,-42,33,-66,28307,-129,-51,311,0,36674,51,26,144,0,0,0,0,0,0,0,0,-32293,0,0,0,4276,0,26712,0
23057,-1722,-8102,752,-37,122,-167,28240,-141,-156,249,0,36677,46,25,144,0,0,0,0,0,0,0,0,-32294,0,0,0,4271,0,26732,0
23067,-834,-8278,890,-25,197,-224,28189,-112,-33,192,0,36678,56,25,144,0,0,0,0,0,0,0,0,-32293,0,0,0,4267,0,26752,0
23077,-22,-8196,860,-23,239,-226,28148,-89,52,165,0,36685,56,26,144,0,0,0,0,0,0,0,0,-32293,0,0,0,4260,0,26773,0
23087,-148,-8206,862,-18,207,-181,28117,-52,33,133,0,36688,58,25,144,0,0,0,0,0,0,0,0,-32294,0,0,0,4256,0,26793,0
23097,656,-8254,1060,-48,-26,-45,28105,-27,59,46,0,36685,65,26,144,0,0,0,0,0,0,0,0,-32293,0,0,0,4256,0,26813,0
23107,194,-8208,990,-66,-64,6,28095,-36,43,48,0,36674,54,25,144,0,0,0,0,0,0,0,0,-32293,0,0,0,4254,0,26833,0
23117,-580,-8168,900,-73,-33,-2,28085,-29,-6,58,0,36671,44,25,144,0,0,0,0,0,0,0,0,-32294,0,0,0,4255,0,26853,0
23127,-698,-8196,846,-71,25,-26,28075,-16,-4,46,0,36674,26,26,144,0,0,0,0,0,0,0,0,-32293,0,0,0,4254,0,26873,0
23137,-328,-8172,802,-62,43,-47,28070,-9,10,24,0,36680,50,25,144,0,0,0,0,0,0,0,0,-32294,0,0,0,4254,0,26893,0
23147,-22,-8198,802,-62,25,-30,28066,-7,10,22,0,36674,58,25,144,0,0,0,0,0,0,0,0,-32294,0,0,0,4253,0,26913,0
23157,-60,-8172,812,-54,-5,-1,28062,-8,0,15,0,36668,44,26,144,0,0,0,0,0,0,0,0,-32293,0,0,0,4253,0,26934,0
23167,-306,-8184,782,-48,-12,1,28062,-6,5,8,0,36671,39,25,144,0,0,0,0,0,0,0,0,-32293,0,0,0,4253,0,26954,0
23177,-386,-8192,842,-43,8,-10,28061,-2,5,8,0,36684,47,26,144,0,0,0,0,0,0,0,0,-32294,0,0,0,4253,0,26974,0
23187,-324,-8206,864,-43,25,-15,28059,-8,-4,11,0,36682,52,25,144,0,0,0,0,0,0,0,0,-32293,0,0,0,4252,0,26994,0
23197,-220,-8202,922,-50,12,-16,28058,0,-2,15,0,36675,52,25,144,0,0,0,0,0,0,0,0,-32293,0,0,0,4253,0,27014,0
23207,-184,-8190,948,-47,5,-3,28054,-12,-4,13,0,36675,39,26,144,0,0,0,0,0,0,0,0,-32293,0,0,0,4252,0,27034,0
23217,-294,-8206,888,-58,-4,1,28054,-3,3,14,0,36674,50,26,144,0,0,0,0,0,0,0,0,-32293,0,0,0,4252,0,27054,0
23227,-314,-8188,838,-62,6,-6,28050,-14,2,12,0,36673,60,25,144,0,0,0,0,0,0,0,0,-32293,0,0,0,4252,0,27074,0
23237,-320,-8174,822,-56,12,-13,28049,-5,2,15,0,36666,63,25,144,0,0,0,0,0,0,0,0,-32293,0,0,0,4251,0,27094,0
23247,-278,-8214,814,-50,15,-10,28045,-10,-3,24,0,36666,39,26,144,0,0,0,0,0,0,0,0,-32293,0,0,0,4251,0,27114,0
23257,-256,-8196,836,-48,14,-21,28036,-22,-11,37,0,36674,39,25,144,0,0,0,0,0,0,0,0,-32293,0,0,0,4251,0,27134,0
23267,-262,-8214,888,-50,19,-42,28022,-42,-20,67,0,36676,51,26,144,0,0,0,0,0,0,0,0,-32294,0,0,0,4249,0,27154,0
23277,-494,-8166,860,-47,65,-65,28005,-39,-20,84,0,36677,60,25,144,0,0,0,0,0,0,0,0,-32293,0,0,0,4249,0,27174,0
23287,-350,-8196,890,-44,73,-49,27998,-1,11,32,0,36679,66,25,144,0,0,0,0,0,0,0,0,-32293,0,0,0,4248,0,27194,0
23297,30,-8174,906,-48,21,-21,27996,-4,34,14,0,36681,58,26,144,0,0,0,0,0,0,0,0,-32294,0,0,0,4247,0,27214,0
23307,18,-8192,908,-50,-4,-1,27994,-1,15,15,0,36680,58,25,144,0,0,0,0,0,0,0,0,-32293,0,0,0,4246,0,27234,0
23317,-288,-8200,876,-57,-1,16,27993,4,4,7,0,36666,67,25,144,0,0,0,0,0,0,0,0,-32293,0,0,0,4246,0,27254,0
23327,-390,-8186,842,-53,14,12,27993,0,3,5,0,36665,59,26,144,0,0,0,0,0,0,0,0,-32293,0,0,0,4246,0,27274,0
23337,-326,-8200,834,-47,16,-2,27993,3,-1,6,0,36668,67,25,144,0,0,0,0,0,0,0,0,-32293,0,0,0,4246,0,27294,0
23347,-228,-8204,860,-53,13,-7,27993,1,-5,8,0,36671,70,26,144,0,0,0,0,0,0,0,0,-32293,0,0,0,4246,0,27314,0
23357,-242,-8202,872,-52,8,0,27989,-7,-1,9,0,36667,74,25,144,0,0,0,0,0,0,0,0,-32294,0,0,0,4248,0,27334,0
23367,-284,-8200,852,-53,8,-2,27990,-3,3,10,0,36662,79,25,144,0,0,0,0,0,0,0,0,-32294,0,0,0,4246,0,27354,0
23377,-294,-8176,838,-48,14,-7,27988,-4,2,11,0,36666,60,26,144,0,0,0,0,0,0,0,0,-32293,0,0,0,4248,0,27374,0
23387,-260,-8192,874,-46,15,-6,27986,-4,0,12,0,36671,57,25,144,0,0,0,0,0,0,0,0,-32293,0,0,0,4247,0,27394,0
23397,-220,-8172,880,-46,8,-6,27987,4,-6,13,0,36671,71,25,144,0,0,0,0,0,0,0,0,-32293,0,0,0,4246,0,27414,0
23407,-234,-8182,866,-44,7,-1,27983,0,-5,13,0,36668,82,25,144,0,0,0,0,0,0,0,0,-32294,0,0,0,4246,0,27434,0
23417,-258,-8188,864,-44,10,0,27981,-1,1,15,0,36667,81,26,144,0,0,0,0,0,0,0,0,-32293,0,0,0,4246,0,27454,0
23427,-266,-8184,844,-51,14,-2,27978,-3,-5,18,0,36668,72,25,144,0,0,0,0,0,0,0,0,-32294,0,0,0,4245,0,27474,0
23437,-274,-8220,844,-55,14,-6,27975,-4,-1,20,0,36667,81,26,144,0,0,0,0,0,0,0,0,-32293,0,0,0,4246,0,27494,0
23447,-228,-8184,840,-50,14,-10,27971,-11,-6,30,0,36660,77,25,144,0,0,0,0,0,0,0,0,-32293,0,0,0,4245,0,27514,0
23457,-306,-8168,850,-43,24,-17,27963,-24,-8,38,0,36660,72,25,144,0,0,0,0,0,0,0,0,-32293,0,0,0,4244,0,27534,0
23467,-328,-8200,860,-42,38,-28,27953,-24,-10,52,0,36666,73,26,144,0,0,0,0,0,0,0,0,-32293,0,0,0,4244,0,27554,0
23477,-342,-8188,894,-50,49,-31,27944,-26,-5,47,0,36671,83,25,144,0,0,0,0,0,0,0,0,-32293,0,0,0,4244,0,27574,0
23487,-206,-8188,876,-51,38,-21,27941,-2,16,18,0,36664,82,25,144,0,0,0,0,0,0,0,0,-32293,0,0,0,4243,0,27594,0
23497,-88,-8192,868,-54,11,-6,27940,-4,15,9,0,36665,66,26,144,0,0,0,0,0,0,0,0,-32293,0,0,0,4243,0,27614,0
23507,-164,-8210,854,-54,7,12,27940,-3,8,8,0,36670,66,25,144,0,0,0,0,0,0,0,0,-32293,0,0,0,4243,0,27634,0
23517,-294,-8200,870,-53,14,10,27938,3,3,4,0,36677,66,26,144,0,0,0,0,0,0,0,0,-32294,0,0,0,4243,0,27654,0
23527,-320,-8224,836,-52,10,4,27939,0,3,5,0,36669,77,25,144,0,0,0,0,0,0,0,0,-32293,0,0,0,4243,0,27674,0
23537,-248,-8192,874,-52,15,7,27938,-1,-2,6,0,36662,77,25,144,0,0,0,0,0,0,0,0,-32294,0,0,0,4242,0,27694,0
23547,-212,-8170,868,-48,8,7,27938,2,2,7,0,36668,68,26,144,0,0,0,0,0,0,0,0,-32294,0,0,0,4243,0,27714,0
23557,-230,-8200,846,-46,16,7,27938,-1,-4,2,0,36685,78,25,144,0,0,0,0,0,0,0,0,-32294,0,0,0,4243,0,27734,0
23567,-270,-8196,844,-48,18,12,27938,-2,-2,4,0,36698,94,26,144,0,0,0,0,0,0,0,0,-32293,0,0,0,4244,0,27754,0
23577,-260,-8188,860,-48,14,4,27937,-1,0,5,0,36696,105,25,144,0,0,0,0,0,0,0,0,-32293,0,0,0,4244,0,27779,0
23587,-214,-8214,866,-52,17,3,27938,-1,-2,2,0,36680,93,25,144,0,0,0,0,0,0,0,0,-32293,0,0,0,4243,0,27799,0
23597,-232,-8214,858,-43,10,14,27938,4,2,4,0,36677,83,26,144,0,0,0,0,0,0,0,0,-32293,0,0,0,4243,0,27819,0
23607,-238,-8192,852,-49,10,16,27938,-3,4,4,0,36681,78,26,144,0,0,0,0,0,0,0,0,-32294,0,0,0,4243,0,27839,0
23617,-256,-8198,864,-52,14,14,27938,-1,2,3,0,36674,76,25,144,0,0,0,0,0,0,0,0,-32293,0,0,0,4243,0,27860,0
23627,-296,-8202,868,-51,18,7,27938,2,-3,5,0,36671,74,25,144,0,0,0,0,0,0,0,0,-32293,0,0,0,4243,0,27880,0
23637,-266,-8182,854,-46,14,4,27939,-1,2,5,0,36668,75,26,144,0,0,0,0,0,0,0,0,-32294,0,0,0,4244,0,27900,0
23647,-262,-8176,858,-42,16,7,27939,1,3,4,0,36675,77,25,144,0,0,0,0,0,0,0,0,-32293,0,0,0,4243,0,27920,0
23657,-260,-8220,838,-46,16,7,27939,0,4,4,0,36673,83,25,144,0,0,0,0,0,0,0,0,-32293,0,0,0,4243,0,27940,0
23667,-274,-8182,872,-46,15,7,27938,1,0,4,0,36670,78,26,144,0,0,0,0,0,0,0,0,-32293,0,0,0,4243,0,27960,0
23677,-256,-8192,886,-48,15,9,27940,5,1,5,0,36674,82,25,144,0,0,0,0,0,0,0,0,-32293,0,0,0,4244,0,27980,0
23687,-250,-8202,884,-50,10,9,27937,-2,1,2,0,36677,84,26,144,0,0,0,0,0,0,0,0,-32294,0,0,0,4243,0,28000,0
23697,-260,-8176,888,-51,12,12,27938,-3,-1,6,0,36675,88,25,144,0,0,0,0,0,0,0,0,-32293,0,0,0,4243,0,28021,0
23707,-272,-8180,876,-56,13,9,27939,1,1,4,0,36671,88,25,144,0,0,0,0,0,0,0,0,-32294,0,0,0,4243,0,28041,0
23717,-274,-8188,870,-55,18,6,27939,3,1,3,0,36673,78,26,144,0,0,0,0,0,0,0,0,-32293,0,0,0,4243,0,28061,0
23727,-272,-8186,832,-54,11,7,27938,3,0,5,0,36680,83,25,144,0,0,0,0,0,0,0,0,-32293,0,0,0,4243,0,28081,0
23737,-264,-8186,858,-50,14,6,27939,-4,1,3,0,36676,93,26,144,0,0,0,0,0,0,0,0,-32294,0,0,0,4243,0,28101,0
23747,-264,-8188,858,-48,13,12,27939,3,0,4,0,36671,92,25,144,0,0,0,0,0,0,0,0,-32293,0,0,0,4243,0,28121,0
23757,-252,-8186,828,-49,13,6,27938,-5,-3,3,0,36667,80,25,144,0,0,0,0,0,0,0,0,-32294,0,0,0,4243,0,28141,0
23767,-242,-8184,840,-48,19,6,27938,0,-1,4,0,36672,70,26,144,0,0,0,0,0,0,0,0,-32293,0,0,0,4243,0,28161,0
23777,-246,-8180,856,-55,13,10,27938,-1,2,7,0,36677,84,25,144,0,0,0,0,0,0,0,0,-32294,0,0,0,4244,0,28181,0
23787,-244,-8212,864,-50,14,10,27937,-7,-6,2,0,36672,88,25,144,0,0,0,0,0,0,0,0,-32293,0,0,0,4243,0,28201,0
23797,-240,-8210,852,-48,16,7,27938,-2,-4,1,0,36668,80,26,144,0,0,0,0,0,0,0,0,-32294,0,0,0,4243,0,28221,0
23807,-254,-8218,864,-48,17,20,27938,-1,-2,2,0,36681,85,26,144,0,0,0,0,0,0,0,0,-32293,0,0,0,4243,0,28241,0
23817,-232,-8210,846,-48,14,17,27939,0,3,2,0,36689,84,25,144,0,0,0,0,0,0,0,0,-32293,0,0,0,4243,0,28261,0
23827,-242,-8176,854,-48,21,13,27938,-3,0,4,0,36686,91,25,144,0,0,0,0,0,0,0,0,-32293,0,0,0,4243,0,28282,0
23837,-276,-8220,840,-49,15,13,27939,5,-1,2,0,36672,92,26,144,0,0,0,0,0,0,0,0,-32293,0,0,0,4243,0,28302,0
23847,-228,-8152,852,-46,13,16,27939,7,2,5,0,36674,88,26,144,0,0,0,0,0,0,0,0,-32293,0,0,0,4243,0,28322,0
23857,-242,-8200,860,-47,15,8,27939,0,-3,3,0,36680,87,26,144,0,0,0,0,0,0,0,0,-32293,0,0,0,4244,0,28342,0
23867,-260,-8218,858,-45,18,11,27938,-5,-3,3,0,36681,84,25,144,0,0,0,0,0,0,0,0,-32293,0,0,0,4243,0,28362,0
23877,-262,-8192,846,-45,20,10,27938,0,2,5,0,36677,96,25,144,0,0,0,0,0,0,0,0,-32293,0,0,0,4243,0,28382,0
23887,-248,-8208,852,-41,16,12,27940,3,4,2,0,36676,91,26,144,0,0,0,0,0,0,0,0,-32293,0,0,0,4244,0,28402,0
23897,-264,-8214,862,-45,16,11,27939,-2,3,3,0,36679,92,25,144,0,0,0,0,0,0,0,0,-32293,0,0,0,4244,0,28422,0
23907,-268,-8164,850,-44,13,9,27939,0,-5,7,0,36685,92,26,144,0,0,0,0,0,0,0,0,-32293,0,0,0,4243,0,28442,0
23917,-272,-8210,864,-40,11,8,27939,-4,1,2,0,36684,81,25,144,0,0,0,0,0,0,0,0,-32294,0,0,0,4243,0,28462,0
23927,-256,-8180,850,-43,8,7,27939,2,0,5,0,36683,85,25,144,0,0,0,0,0,0,0,0,-32293,0,0,0,4244,0,28482,0
23937,-260,-8188,854,-47,17,12,27940,5,-1,2,0,36684,70,26,144,0,0,0,0,0,0,0,0,-32293,0,0,0,4243,0,28502,0
23947,-262,-8184,858,-43,9,12,27939,2,0,5,0,36682,85,25,144,0,0,0,0,0,0,0,0,-32293,0,0,0,4244,0,28522,0
23957,-240,-8204,864,-48,14,12,27939,-3,1,4,0,36677,87,25,144,0,0,0,0,0,0,0,0,-32293,0,0,0,4244,0,28542,0
23967,-292,-8182,872,-48,17,8,27939,-2,-2,3,0,36677,80,26,144,0,0,0,0,0,0,0,0,-32293,0,0,0,4243,0,28562,0
23977,-272,-8196,858,-42,13,15,27940,9,-4,5,0,36680,85,25,144,0,0,0,0,0,0,0,0,-32294,0,0,0,4243,0,28582,0
23987,-266,-8194,870,-44,12,5,27939,-3,1,4,0,36684,90,26,144,0,0,0,0,0,0,0,0,-32293,0,0,0,4244,0,28602,0
23997,-244,-8176,854,-44,18,0,27939,0,0,4,0,36680,88,26,144,0,0,0,0,0,0,0,0,-32293,0,0,0,4243,0,28622,0
24007,-242,-8172,836,-47,9,7,27940,5,-2,4,0,36673,87,26,144,0,0,0,0,0,0,0,0,-32293,0,0,0,4244,0,28642,0
24017,-262,-8214,846,-48,15,8,27940,4,3,2,0,36680,80,26,144,0,0,0,0,0,0,0,0,-32293,0,0,0,4244,0,28662,0
24027,-276,-8180,856,-49,13,6,27939,4,-1,5,0,36686,89,26,144,0,0,0,0,0,0,0,0,-32293,0,0,0,4244,0,28682,0
24037,-276,-8206,850,-45,14,7,27939,4,-1,5,0,36684,92,25,144,0,0,0,0,0,0,0,0,-32294,0,0,0,4244,0,28702,0
24047,-272,-8210,824,-48,15,6,27940,1,-5,4,0,36675,89,25,144,0,0,0,0,0,0,0,0,-32293,0,0,0,4244,0,28722,0
24057,-256,-8210,868,-45,10,11,27939,3,2,5,0,36675,74,26,144,0,0,0,0,0,0,0,0,-32293,0,0,0,4244,0,28742,0
24067,-258,-8204,866,-49,18,8,27939,-2,2,2,0,36683,80,25,144,0,0,0,0,0,0,0,0,-32293,0,0,0,4244,0,28762,0
24077,-264,-8212,874,-43,10,6,27940,1,0,6,0,36683,97,26,144,0,0,0,0,0,0,0,0,-32294,0,0,0,4244,0,28782,0
24087,-290,-8216,886,-48,17,6,27940,0,-3,2,0,36675,102,25,144,0,0,0,0,0,0,0,0,-32294,0,0,0,4244,0,28802,0
24097,-296,-8202,894,-49,11,-3,27938,0,0,4,0,36672,92,25,144,0,0,0,0,0,0,0,0,-32293,0,0,0,4244,0,28822,0
24107,-300,-8212,858,-49,10,1,27940,3,2,4,0,36677,82,26,144,0,0,0,0,0,0,0,0,-32293,0,0,0,4244,0,28842,0
24117,-300,-8198,864,-47,9,0,27939,1,-3,4,0,36680,88,25,144,0,0,0,0,0,0,0,0,-32293,0,0,0,4243,0,28862,0
24127,-266,-8186,874,-48,14,3,27940,-1,-2,6,0,36679,86,25,144,0,0,0,0,0,0,0,0,-32293,0,0,0,4243,0,28882,0
24137,-242,-8208,846,-43,13,-1,27938,-6,-3,6,0,36677,78,26,144,0,0,0,0,0,0,0,0,-32294,0,0,0,4244,0,28902,0
24147,-248,-8210,870,-50,7,3,27939,7,8,4,0,36683,83,25,144,0,0,0,0,0,0,0,0,-32294,0,0,0,4243,0,28922,0
24157,-240,-8192,878,-47,10,0,27939,-2,0,5,0,36681,84,26,144,0,0,0,0,0,0,0,0,-32294,0,0,0,4244,0,28942,0
24167,-248,-8194,870,-50,10,-3,27937,-2,4,4,0,36676,82,25,144,0,0,0,0,0,0,0,0,-32293,0,0,0,4244,0,28962,0
24177,-246,-8208,866,-50,15,-4,27937,-9,-1,5,0,36670,85,25,144,0,0,0,0,0,0,0,0,-32294,0,0,0,4243,0,28982,0
24187,-244,-8184,848,-49,9,2,27938,-3,-2,5,0,36672,70,26,144,0,0,0,0,0,0,0,0,-32293,0,0,0,4244,0,29002,0
24197,-230,-8204,856,-55,19,-1,27939,0,-4,3,0,36678,83,25,144,0,0,0,0,0,0,0,0,-32293,0,0,0,4242,0,29022,0
24207,-236,-8158,846,-50,15,5,27938,3,3,5,0,36676,88,26,144,0,0,0,0,0,0,0,0,-32293,0,0,0,4243,0,29042,0
24217,-244,-8184,824,-48,12,6,27937,-7,-1,1,0,36670,94,26,144,0,0,0,0,0,0,0,0,-32294,0,0,0,4244,0,29062,0
24227,-246,-8190,838,-47,16,8,27938,-2,1,5,0,36668,96,26,144,0,0,0,0,0,0,0,0,-32294,0,0,0,4244,0,29083,0
24237,-272,-8192,852,-46,12,9,27938,0,-6,5,0,36678,86,25,144,0,0,0,0,0,0,0,0,-32294,0,0,0,4243,0,29103,0
24247,-246,-8182,856,-49,11,8,27938,0,4,4,0,36680,91,26,144,0,0,0,0,0,0,0,0,-32294,0,0,0,4244,0,29123,0
24257,-254,-8128,916,-44,16,8,27939,1,-3,4,0,36673,83,25,144,0,0,0,0,0,0,0,0,-32294,0,0,0,4244,0,29143,0
24267,-304,-8410,870,-51,16,10,27939,2,0,2,0,36666,80,25,144,0,0,0,0,0,0,0,0,-32294,0,0,0,4244,0,29163,0
24277,-228,-7850,892,-47,16,2,27939,2,-3,6,0,36671,73,26,144,0,0,0,0,0,0,0,0,-32294,0,0,0,4244,0,29183,0
24287,-210,-8298,802,-58,1,10,27938,-1,-4,5,0,36676,85,25,144,0,0,0,0,0,0,0,0,-32294,0,0,0,4244,0,29203,0
24297,-210,-8222,670,-32,17,12,27937,-2,3,2,0,36669,91,25,144,0,0,0,0,0,0,0,0,-32294,0,0,0,4244,0,29223,0
24307,-200,-8058,620,-18,24,16,27939,-2,-1,5,0,36664,79,26,144,0,0,0,0,0,0,0,0,-32294,0,0,0,4244,0,29243,0
24317,-152,-8010,782,-1,38,32,27938,-1,-5,3,0,36667,69,25,144,0,0,0,0,0,0,0,0,-32294,0,0,0,4244,0,29263,0
24327,-224,-8276,832,-1,33,41,27939,0,3,4,0,36674,76,26,144,0,0,0,0,0,0,0,0,-32293,0,0,0,4243,0,29283,0
24337,-194,-8266,966,-3,43,34,27940,6,1,4,0,36671,84,25,144,0,0,0,0,0,0,0,0,-32294,0,0,0,4243,0,29303,0
24347,-212,-8112,1010,-13,46,46,27940,-1,3,0,0,36666,93,25,144,0,0,0,0,0,0,0,0,-32294,0,0,0,4243,0,29323,0
24357,-246,-8300,1004,-17,37,67,27941,5,3,-1,0,36667,82,26,144,0,0,0,0,0,0,0,0,-32294,0,0,0,4244,0,29343,0
24367,-262,-8226,906,-39,24,52,27941,0,6,-1,0,36673,92,25,144,0,0,0,0,0,0,0,0,-32294,0,0,0,4244,0,29363,0
24377,-450,-8234,918,-51,14,47,27940,-3,-2,4,0,36670,99,26,144,0,0,0,0,0,0,0,0,-32294,0,0,0,4244,0,29383,0
24387,-500,-8244,946,-47,16,29,27941,-2,-1,3,0,36666,96,25,144,0,0,0,0,0,0,0,0,-32293,0,0,0,4244,0,29403,0
24397,-546,-8250,882,-60,8,-6,27942,3,-2,4,0,36663,85,25,144,0,0,0,0,0,0,0,0,-32294,0,0,0,4244,0,29423,0
24407,-452,-8050,856,-67,7,-33,27941,0,-1,7,0,36668,78,26,144,0,0,0,0,0,0,0,0,-32294,0,0,0,4244,0,29443,0
24417,-324,-8108,894,-71,6,-33,27941,-1,2,7,0,36670,90,26,144,0,0,0,0,0,0,0,0,-32293,0,0,0,4244,0,29463,0
24427,-316,-8216,946,-69,-4,-44,27940,-4,-5,9,0,36663,86,25,144,0,0,0,0,0,0,0,0,-32294,0,0,0,4244,0,29483,0
24437,-420,-8194,954,-75,-10,-63,27939,1,1,8,0,36661,74,25,144,0,0,0,0,0,0,0,0,-32294,0,0,0,4243,0,29503,0
24447,-436,-8238,938,-82,-17,-65,27938,-3,-3,13,0,36673,76,26,144,0,0,0,0,0,0,0,0,-32294,0,0,0,4243,0,29523,0
24457,-316,-8244,912,-90,-21,-83,27936,-7,-2,17,0,36679,75,25,144,0,0,0,0,0,0,0,0,-32294,0,0,0,4243,0,29543,0
24467,-258,-8196,882,-102,-24,-94,27930,-11,-6,29,0,36672,87,25,144,0,0,0,0,0,0,0,0,-32293,0,0,0,4242,0,29563,0
24477,-150,-8246,870,-103,-18,-84,27923,-12,-13,43,0,36664,73,26,144,0,0,0,0,0,0,0,0,-32294,0,0,0,4241,0,29583,0
24487,-54,-8208,806,-96,-10,-78,27912,-31,-11,58,0,36669,77,25,144,0,0,0,0,0,0,0,0,-32293,0,0,0,4241,0,29603,0
24497,-6,-8176,788,-100,3,-82,27892,-60,-22,98,0,36672,89,26,144,0,0,0,0,0,0,0,0,-32293,0,0,0,4240,0,29623,0
24507,-262,-8196,786,-87,62,-85,27868,-44,-31,123,0,36669,83,25,144,0,0,0,0,0,0,0,0,-32293,0,0,0,4238,0,29643,0
24517,-2,-8180,790,-83,76,-22,27859,-7,23,38,0,36662,81,25,144,0,0,0,0,0,0,0,0,-32294,0,0,0,4235,0,29663,0
24527,280,-8162,842,-74,33,8,27859,7,50,8,0,36665,53,26,144,0,0,0,0,0,0,0,0,-32294,0,0,0,4235,0,29683,0
24537,-12,-8172,884,-78,0,62,27859,1,11,2,0,36670,54,25,144,0,0,0,0,0,0,0,0,-32294,0,0,0,4235,0,29703,0
24547,-370,-8246,834,-82,10,63,27860,2,0,-5,0,36668,61,26,144,0,0,0,0,0,0,0,0,-32293,0,0,0,4237,0,29723,0
24557,-564,-8144,810,-78,30,29,27860,-4,2,-3,0,36669,59,25,144,0,0,0,0,0,0,0,0,-32293,0,0,0,4236,0,29743,0
24567,-464,-8156,758,-67,31,8,27861,3,-2,1,0,36668,47,25,144,0,0,0,0,0,0,0,0,-32294,0,0,0,4236,0,29763,0
24577,-268,-8284,798,-65,21,8,27860,-7,-7,3,0,36674,35,26,144,0,0,0,0,0,0,0,0,-32294,0,0,0,4236,0,29783,0
24587,-216,-8156,820,-65,12,3,27861,-1,-2,3,0,36673,60,25,144,0,0,0,0,0,0,0,0,-32293,0,0,0,4237,0,29803,0
24597,-308,-8180,832,-57,6,4,27861,-5,-4,2,0,36665,75,25,144,0,0,0,0,0,0,0,0,-32294,0,0,0,4236,0,29823,0
24607,-294,-8242,912,-61,12,3,27861,3,-3,2,0,36664,60,26,144,0,0,0,0,0,0,0,0,-32294,0,0,0,4236,0,29843,0
24617,-246,-8218,978,-75,15,-3,27860,0,-2,3,0,36670,58,25,144,0,0,0,0,0,0,0,0,-32294,0,0,0,4236,0,29863,0
24627,-174,-8172,984,-85,10,-3,27860,1,-4,3,0,36675,64,26,144,0,0,0,0,0,0,0,0,-32294,0,0,0,4235,0,29883,0
24637,-206,-8168,892,-93,10,6,27860,8,0,5,0,36669,74,25,144,0,0,0,0,0,0,0,0,-32294,0,0,0,4236,0,29903,0
24647,-228,-8220,824,-95,9,12,27860,6,1,1,0,36663,70,25,144,0,0,0,0,0,0,0,0,-32294,0,0,0,4236,0,29923,0
24657,-220,-8202,702,-89,17,1,27861,0,0,0,0,36669,58,26,144,0,0,0,0,0,0,0,0,-32294,0,0,0,4235,0,29943,0
24667,-230,-8228,692,-78,21,7,27858,-10,1,3,0,36679,67,26,144,0,0,0,0,0,0,0,0,-32294,0,0,0,4237,0,29963,0
24677,-150,-8162,686,-55,17,13,27860,0,0,3,0,36679,76,25,144,0,0,0,0,0,0,0,0,-32294,0,0,0,4236,0,29983,0
24687,-174,-8170,734,-48,16,23,27860,-1,2,0,0,36675,85,25,144,0,0,0,0,0,0,0,0,-32293,0,0,0,4237,0,30003,0
24697,-218,-8192,818,-42,26,24,27860,0,-2,0,0,36672,65,26,144,0,0,0,0,0,0,0,0,-32294,0,0,0,4237,0,30023,0
24707,-262,-8190,882,-39,22,34,27860,-2,-1,0,0,36675,61,25,144,0,0,0,0,0,0,0,0,-32294,0,0,0,4238,0,30043,0
24717,-250,-8170,910,-54,23,23,27861,0,0,0,0,36671,68,26,144,0,0,0,0,0,0,0,0,-32294,0,0,0,4238,0,30063,0
24727,-318,-8174,944,-55,18,17,27862,3,1,1,0,36665,60,25,144,0,0,0,0,0,0,0,0,-32293,0,0,0,4237,0,30083,0
24737,-312,-8212,852,-56,19,16,27861,-4,-2,2,0,36667,60,25,144,0,0,0,0,0,0,0,0,-32294,0,0,0,4237,0,30103,0
24747,-336,-8194,834,-63,12,11,27862,1,0,0,0,36676,37,26,144,0,0,0,0,0,0,0,0,-32293,0,0,0,4237,0,30123,0
24757,-320,-8180,782,-59,11,-1,27861,-5,-6,3,0,36678,46,25,144,0,0,0,0,0,0,0,0,-32294,0,0,0,4237,0,30143,0
24767,-320,-8198,776,-50,18,-1,27862,-1,2,6,0,36673,54,25,144,0,0,0,0,0,0,0,0,-32294,0,0,0,4236,0,30163,0
24777,-238,-8216,786,-46,12,-9,27860,-1,-3,1,0,36672,59,26,144,0,0,0,0,0,0,0,0,-32293,0,0,0,4236,0,30183,0
24787,-238,-8168,792,-42,15,-11,27861,-1,2,4,0,36679,66,25,144,0,0,0,0,0,0,0,0,-32294,0,0,0,4237,0,30203,0
24797,-196,-8204,830,-43,6,3,27861,-2,2,3,0,36681,61,26,144,0,0,0,0,0,0,0,0,-32294,0,0,0,4238,0,30223,0
24807,-206,-8186,838,-38,15,0,27862,15,0,2,0,36678,64,25,144,0,0,0,0,0,0,0,0,-32294,0,0,0,4236,0,30243,0
24817,-218,-8218,836,-48,6,1,27861,2,-2,3,0,36672,68,25,144,0,0,0,0,0,0,0,0,-32294,0,0,0,4237,0,30263,0
24827,-232,-8182,840,-49,9,7,27859,-3,-3,4,0,36678,51,25,144,0,0,0,0,0,0,0,0,-32294,0,0,0,4236,0,30284,0
24837,-226,-8180,812,-39,10,1,27860,0,-3,6,0,36694,51,26,144,0,0,0,0,0,0,0,0,-32294,0,0,0,4237,0,30304,0
24847,-242,-8210,810,-40,10,0,27861,2,2,1,0,36692,59,26,144,0,0,0,0,0,0,0,0,-32294,0,0,0,4237,0,30324,0
24857,-248,-8226,796,-45,12,0,27860,-2,2,2,0,36688,73,26,144,0,0,0,0,0,0,0,0,-32294,0,0,0,4237,0,30344,0
24867,-264,-8184,814,-37,12,8,27860,-3,-2,3,0,36677,60,26,144,0,0,0,0,0,0,0,0,-32294,0,0,0,4236,0,30364,0
24877,-264,-8220,824,-40,9,-1,27861,2,-1,1,0,36687,58,25,144,0,0,0,0,0,0,0,0,-32294,0,0,0,4237,0,30384,0
24887,-282,-8204,830,-41,8,-3,27860,-1,-4,4,0,36689,70,26,144,0,0,0,0,0,0,0,0,-32294,0,0,0,4237,0,30404,0
24897,-274,-8174,820,-40,11,-2,27861,4,0,1,0,36680,72,25,144,0,0,0,0,0,0,0,0,-32294,0,0,0,4237,0,30424,0
24907,-254,-8186,832,-46,10,-4,27860,3,1,3,0,36672,61,25,144,0,0,0,0,0,0,0,0,-32294,0,0,0,4237,0,30444,0
24917,-224,-8226,818,-43,16,-6,27859,-6,-3,6,0,36677,44,26,144,0,0,0,0,0,0,0,0,-32294,0,0,0,4237,0,30464,0
24927,-222,-8206,848,-43,8,2,27859,-3,3,3,0,36680,55,25,144,0,0,0,0,0,0,0,0,-32294,0,0,0,4236,0,30484,0
24937,-196,-8180,844,-47,10,-1,27859,-3,0,3,0,36673,65,25,144,0,0,0,0,0,0,0,0,-32293,0,0,0,4237,0,30504,0
24947,-178,-8170,836,-51,13,8,27858,-3,-1,3,0,36671,55,26,144,0,0,0,0,0,0,0,0,-32293,0,0,0,4236,0,30524,0
24957,-170,-8216,822,-41,14,14,27858,0,-1,1,0,36678,59,25,144,0,0,0,0,0,0,0,0,-32294,0,0,0,4236,0,30544,0
24967,-198,-8230,828,-49,22,16,27859,-3,-1,2,0,36684,56,26,144,0,0,0,0,0,0,0,0,-32294,0,0,0,4236,0,30564,0
24977,-166,-8174,850,-38,21,21,27859,1,3,3,0,36680,60,25,144,0,0,0,0,0,0,0,0,-32294,0,0,0,4236,0,30584,0
24987,-216,-8198,806,-44,19,26,27860,1,-2,0,0,36676,68,25,144,0,0,0,0,0,0,0,0,-32294,0,0,0,4236,0,30604,0
24997,-218,-8198,822,-41,24,35,27861,4,-6,-1,0,36678,58,26,144,0,0,0,0,0,0,0,0,-32294,0,0,0,4237,0,30624,0
25007,-252,-8190,816,-40,25,32,27860,0,1,0,0,36684,71,26,144,0,0,0,0,0,0,0,0,-32293,0,0,0,4237,0,30644,0
25017,-282,-8230,842,-40,30,35,27861,1,-2,-1,0,36681,67,26,144,0,0,0,0,0,0,0,0,-32294,0,0,0,4238,0,30664,0
25027,-272,-8198,848,-38,22,34,27862,5,6,0,0,36675,72,26,144,0,0,0,0,0,0,0,0,-32294,0,0,0,4237,0,30684,0
25037,-270,-8214,814,-45,18,28,27861,-6,-1,1,0,36673,62,26,144,0,0,0,0,0,0,0,0,-32294,0,0,0,4237,0,30704,0
25047,-324,-8224,840,-45,17,22,27862,-5,1,0,0,36680,60,26,144,0,0,0,0,0,0,0,0,-32294,0,0,0,4238,0,30724,0
25057,-334,-8206,824,-42,14,12,27863,3,-1,1,0,36682,57,26,144,0,0,0,0,0,0,0,0,-32294,0,0,0,4237,0,30744,0
25067,-336,-8188,868,-47,12,1,27861,-9,0,2,0,36676,56,25,144,0,0,0,0,0,0,0,0,-32293,0,0,0,4237,0,30764,0
25077,-362,-8218,838,-47,6,-6,27863,0,-4,3,0,36674,54,25,144,0,0,0,0,0,0,0,0,-32293,0,0,0,4237,0,30784,0
25087,-336,-8214,850,-46,6,-16,27863,-1,2,4,0,36679,62,26,144,0,0,0,0,0,0,0,0,-32294,0,0,0,4237,0,30804,0
25097,-304,-8186,850,-44,5,-24,27864,1,1,6,0,36685,65,25,144,0,0,0,0,0,0,0,0,-32293,0,0,0,4236,0,30824,0
25107,-304,-8216,872,-51,0,-29,27860,-5,-1,6,0,36678,76,25,144,0,0,0,0,0,0,0,0,-32294,0,0,0,4236,0,30844,0
25117,-268,-8170,854,-51,-1,-36,27861,1,-1,8,0,36671,57,26,144,0,0,0,0,0,0,0,0,-32294,0,0,0,4238,0,30864,0
25127,-260,-8212,834,-52,-4,-43,27860,0,-2,8,0,36672,56,25,144,0,0,0,0,0,0,0,0,-32293,0,0,0,4236,0,30884,0
25137,-266,-8202,840,-52,-9,-44,27857,-1,5,11,0,36676,60,26,144,0,0,0,0,0,0,0,0,-32294,0,0,0,4237,0,30904,0
25147,-238,-8212,820,-53,-5,-39,27856,-7,0,18,0,36675,65,25,144,0,0,0,0,0,0,0,0,-32294,0,0,0,4236,0,30924,0
25157,-188,-8194,806,-50,-4,-47,27852,-7,-8,26,0,36670,75,25,144,0,0,0,0,0,0,0,0,-32294,0,0,0,4236,0,30944,0
25167,-166,-8194,790,-48,4,-51,27844,-22,-11,48,0,36671,56,26,144,0,0,0,0,0,0,0,0,-32293,0,0,0,4235,0,30964,0
25177,-210,-8196,796,-40,28,-62,27827,-44,-26,83,0,36673,55,25,144,0,0,0,0,0,0,0,0,-32294,0,0,0,4235,0,30984,0
25187,-412,-8176,816,-42,50,-78,27807,-40,-30,97,0,36683,54,26,144,0,0,0,0,0,0,0,0,-32294,0,0,0,4233,0,31004,0
25197,-152,-8176,852,-34,40,-64,27795,-17,8,43,0,36681,55,25,144,0,0,0,0,0,0,0,0,-32293,0,0,0,4231,0,31024,0
25207,76,-8198,896,-39,20,-35,27791,-13,32,29,0,36680,49,25,144,0,0,0,0,0,0,0,0,-32293,0,0,0,4230,0,31044,0
25217,-74,-8204,910,-50,-4,-20,27783,-24,-2,38,0,36680,46,26,144,0,0,0,0,0,0,0,0,-32293,0,0,0,4230,0,31064,0
25227,-248,-8194,854,-54,11,-25,27771,-25,-10,56,0,36675,62,25,144,0,0,0,0,0,0,0,0,-32294,0,0,0,4229,0,31084,0
25237,-438,-8212,820,-51,52,-46,27755,-38,-17,74,0,36668,69,25,144,0,0,0,0,0,0,0,0,-32293,0,0,0,4228,0,31104,0
25247,-316,-8196,780,-45,59,-47,27746,-8,2,41,0,36667,66,26,144,0,0,0,0,0,0,0,0,-32293,0,0,0,4227,0,31124,0
25257,232,-8214,794,-49,26,-1,27746,1,32,2,0,36673,74,26,144,0,0,0,0,0,0,0,0,-32294,0,0,0,4228,0,31144,0
25267,142,-8200,818,-47,-1,33,27745,0,15,3,0,36679,76,25,144,0,0,0,0,0,0,0,0,-32294,0,0,0,4228,0,31164,0
25277,-200,-8196,814,-45,11,48,27745,0,0,-5,0,36675,80,25,144,0,0,0,0,0,0,0,0,-32294,0,0,0,4228,0,31184,0
25287,-350,-8174,806,-34,29,40,27747,5,5,-4,0,36670,82,26,144,0,0,0,0,0,0,0,0,-32293,0,0,0,4227,0,31204,0
25297,-268,-8196,830,-37,33,29,27746,4,0,-1,0,36680,89,25,144,0,0,0,0,0,0,0,0,-32294,0,0,0,4228,0,31224,0
25307,-172,-8198,846,-36,30,34,27746,0,0,-2,0,36679,102,26,144,0,0,0,0,0,0,0,0,-32294,0,0,0,4227,0,31244,0
25317,-176,-8204,824,-36,15,39,27745,-8,5,-5,0,36674,100,25,144,0,0,0,0,0,0,0,0,-32293,0,0,0,4229,0,31264,0
25327,-258,-8164,860,-33,14,39,27745,-6,0,-2,0,36661,104,25,144,0,0,0,0,0,0,0,0,-32293,0,0,0,4228,0,31284,0
25337,-314,-8222,824,-38,9,33,27746,-1,-1,-2,0,36664,89,26,144,0,0,0,0,0,0,0,0,-32293,0,0,0,4229,0,31304,0
25347,-372,-8186,854,-43,19,18,27747,3,-1,-2,0,36670,78,25,144,0,0,0,0,0,0,0,0,-32294,0,0,0,4229,0,31324,0
25357,-312,-8194,836,-33,18,9,27747,0,3,0,0,36669,82,26,144,0,0,0,0,0,0,0,0,-32294,0,0,0,4229,0,31344,0
25367,-242,-8222,874,-39,11,6,27747,2,3,0,0,36665,77,25,144,0,0,0,0,0,0,0,0,-32293,0,0,0,4229,0,31364,0
25377,-254,-8184,892,-45,4,1,27746,-2,-1,0,0,36663,89,25,144,0,0,0,0,0,0,0,0,-32293,0,0,0,4229,0,31384,0
25387,-320,-8192,894,-45,3,-1,27746,2,3,0,0,36669,69,26,144,0,0,0,0,0,0,0,0,-32294,0,0,0,4229,0,31404,0
25397,-286,-8210,886,-53,3,-15,27746,-4,0,0,0,36677,79,26,144,0,0,0,0,0,0,0,0,-32294,0,0,0,4229,0,31424,0
25407,-282,-8192,836,-56,5,-22,27746,-2,-3,0,0,36671,77,26,144,0,0,0,0,0,0,0,0,-32293,0,0,0,4228,0,31444,0
25417,-224,-8184,824,-56,-1,-28,27747,0,-2,0,0,36668,77,26,144,0,0,0,0,0,0,0,0,-32294,0,0,0,4229,0,31464,0
25427,-202,-8208,824,-47,-4,-26,27745,5,2,0,0,36672,81,25,144,0,0,0,0,0,0,0,0,-32294,0,0,0,4229,0,31484,0
25437,-212,-8214,820,-48,1,-28,27745,-3,3,1,0,36671,96,26,144,0,0,0,0,0,0,0,0,-32294,0,0,0,4228,0,31504,0
25447,-244,-8172,852,-53,8,-37,27743,-6,0,3,0,36666,96,26,144,0,0,0,0,0,0,0,0,-32293,0,0,0,4228,0,31524,0
25457,-184,-8214,858,-54,7,-36,27741,-9,-5,7,0,36660,94,26,144,0,0,0,0,0,0,0,0,-32293,0,0,0,4228,0,31544,0
25467,-100,-8172,844,-50,7,-27,27741,-2,-2,7,0,36663,92,25,144,0,0,0,0,0,0,0,0,-32294,0,0,0,4228,0,31564,0
25477,-92,-8162,862,-50,5,-10,27739,-11,1,5,0,36669,93,26,144,0,0,0,0,0,0,0,0,-32294,0,0,0,4227,0,31584,0
25487,-140,-8210,874,-59,6,-2,27739,-1,2,3,0,36669,91,25,144,0,0,0,0,0,0,0,0,-32294,0,0,0,4227,0,31605,0
25497,-146,-8204,864,-58,8,0,27738,0,-1,3,0,36665,81,25,144,0,0,0,0,0,0,0,0,-32293,0,0,0,4227,0,31624,0
25507,-140,-8198,854,-57,17,7,27739,5,2,0,0,36669,80,26,144,0,0,0,0,0,0,0,0,-32294,0,0,0,4227,0,31644,0
25517,-132,-8214,856,-52,19,11,27738,3,6,-3,0,36674,83,25,144,0,0,0,0,0,0,0,0,-32294,0,0,0,4227,0,31664,0
25527,-150,-8240,818,-56,15,20,27738,3,0,-2,0,36674,101,26,144,0,0,0,0,0,0,0,0,-32294,0,0,0,4227,0,31685,0
25537,-200,-8172,802,-56,19,25,27739,0,2,-2,0,36668,100,25,144,0,0,0,0,0,0,0,0,-32293,0,0,0,4227,0,31705,0
25547,-178,-8198,816,-49,23,26,27739,4,0,-2,0,36658,89,25,144,0,0,0,0,0,0,0,0,-32294,0,0,0,4227,0,31725,0
25557,-168,-8206,832,-52,26,39,27739,0,-1,-3,0,36665,83,26,144,0,0,0,0,0,0,0,0,-32294,0,0,0,4228,0,31745,0
25567,-166,-8184,820,-43,25,31,27738,-5,1,-5,0,36671,93,25,144,0,0,0,0,0,0,0,0,-32294,0,0,0,4227,0,31765,0
25577,-192,-8194,846,-44,23,39,27740,3,2,-2,0,36666,98,25,144,0,0,0,0,0,0,0,0,-32294,0,0,0,4228,0,31785,0
25587,-210,-8208,850,-47,22,43,27740,3,0,-6,0,36663,85,26,144,0,0,0,0,0,0,0,0,-32293,0,0,0,4229,0,31805,0
25597,-238,-8182,828,-48,24,41,27741,1,1,-3,0,36667,84,25,144,0,0,0,0,0,0,0,0,-32294,0,0,0,4228,0,31825,0
25607,-244,-8198,832,-43,20,35,27741,0,-3,-1,0,36672,84,26,144,0,0,0,0,0,0,0,0,-32294,0,0,0,4228,0,31845,0
25617,-262,-8200,834,-46,19,38,27742,3,1,-4,0,36679,74,25,144,0,0,0,0,0,0,0,0,-32294,0,0,0,4228,0,31865,0
25627,-258,-8190,852,-46,17,32,27741,-5,-1,0,0,36674,84,25,144,0,0,0,0,0,0,0,0,-32294,0,0,0,4228,0,31885,0
25637,-318,-8200,864,-48,19,24,27742,2,-2,-3,0,36675,71,26,144,0,0,0,0,0,0,0,0,-32293,0,0,0,4229,0,31905,0
25647,-304,-8206,854,-53,20,15,27742,1,2,-2,0,36676,78,26,144,0,0,0,0,0,0,0,0,-32293,0,0,0,4228,0,31925,0
25657,-282,-8200,888,-51,14,1,27742,4,1,-1,0,36672,81,26,144,0,0,0,0,0,0,0,0,-32294,0,0,0,4228,0,31945,0
25667,-246,-8174,860,-59,7,-1,27743,5,2,-4,0,36671,84,26,144,0,0,0,0,0,0,0,0,-32293,0,0,0,4228,0,31966,0
25677,-248,-8228,858,-58,7,3,27742,9,3,-1,0,36667,77,26,144,0,0,0,0,0,0,0,0,-32293,0,0,0,4228,0,31986,0
25687,-252,-8206,824,-57,6,-2,27742,0,-3,-1,0,36672,72,26,144,0,0,0,0,0,0,0,0,-32293,0,0,0,4228,0,32006,0
25697,-254,-8184,844,-56,3,-7,27741,-7,0,-1,0,36676,84,26,144,0,0,0,0,0,0,0,0,-32294,0,0,0,4228,0,32026,0
25707,-226,-8210,808,-58,10,-5,27741,-2,-3,0,0,36673,90,25,144,0,0,0,0,0,0,0,0,-32294,0,0,0,4228,0,32046,0
25717,-238,-8210,820,-58,2,-16,27741,-3,0,1,0,36667,87,25,144,0,0,0,0,0,0,0,0,-32294,0,0,0,4228,0,32066,0
25727,-198,-8174,826,-51,9,-7,27741,-1,0,1,0,36670,81,26,144,0,0,0,0,0,0,0,0,-32293,0,0,0,4228,0,32086,0
25737,-210,-8226,840,-55,6,-13,27740,-3,-3,0,0,36676,91,25,144,0,0,0,0,0,0,0,0,-32294,0,0,0,4228,0,32106,0
25747,-210,-8206,824,-55,6,-14,27740,-5,-2,0,0,36674,96,25,144,0,0,0,0,0,0,0,0,-32294,0,0,0,4227,0,32126,0
25757,-146,-8190,836,-51,12,-10,27740,-3,0,0,0,36668,82,26,144,0,0,0,0,0,0,0,0,-32293,0,0,0,4228,0,32146,0
25767,-172,-8228,826,-54,11,-5,27740,-1,-1,-1,0,36671,82,25,144,0,0,0,0,0,0,0,0,-32293,0,0,0,4228,0,32166,0
25777,-172,-8182,836,-53,11,-2,27741,3,0,-1,0,36676,78,26,144,0,0,0,0,0,0,0,0,-32293,0,0,0,4227,0,32186,0
25787,-188,-8164,844,-49,13,4,27740,2,0,0,0,36677,81,25,144,0,0,0,0,0,0,0,0,-32293,0,0,0,4228,0,32206,0
25797,-184,-8220,792,-53,15,10,27740,0,0,-2,0,36671,86,25,144,0,0,0,0,0,0,0,0,-32293,0,0,0,4228,0,32226,0
25807,-196,-8190,828,-53,15,9,27740,0,6,1,0,36673,78,26,144,0,0,0,0,0,0,0,0,-32294,0,0,0,4228,0,32246,0
25817,-198,-8176,828,-50,14,13,27741,3,-1,-4,0,36677,95,25,144,0,0,0,0,0,0,0,0,-32294,0,0,0,4227,0,32266,0
25827,-200,-8206,838,-52,16,21,27740,0,1,2,0,36681,111,26,144,0,0,0,0,0,0,0,0,-32293,0,0,0,4227,0,32286,0
25837,-214,-8206,822,-48,20,16,27739,-5,3,-1,0,36677,109,26,144,0,0,0,0,0,0,0,0,-32293,0,0,0,4227,0,32306,0
25847,-198,-8200,836,-44,21,17,27741,2,-1,-4,0,36674,93,26,144,0,0,0,0,0,0,0,0,-32294,0,0,0,4229,0,32326,0
25857,-202,-8230,854,-46,16,14,27740,-5,2,-2,0,36677,78,26,144,0,0,0,0,0,0,0,0,-32294,0,0,0,4228,0,32346,0
25867,-242,-8198,844,-47,13,21,27740,4,3,-4,0,36677,89,26,144,0,0,0,0,0,0,0,0,-32294,0,0,0,4229,0,32366,0
25877,-234,-8188,830,-44,19,16,27741,1,2,-3,0,36672,82,26,144,0,0,0,0,0,0,0,0,-32294,0,0,0,4229,0,32386,0
25887,-254,-8216,828,-49,13,14,27741,0,3,-1,0,36674,76,26,144,0,0,0,0,0,0,0,0,-32293,0,0,0,4229,0,32406,0
25897,-260,-8186,828,-50,11,13,27742,2,1,-1,0,36681,72,26,144,0,0,0,0,0,0,0,0,-32293,0,0,0,4229,0,32426,0
25907,-252,-8206,854,-54,14,10,27741,-3,0,-2,0,36687,69,26,144,0,0,0,0,0,0,0,0,-32294,0,0,0,4228,0,32446,0
25917,-246,-8222,856,-49,11,1,27740,-3,1,-3,0,36678,84,26,144,0,0,0,0,0,0,0,0,-32293,0,0,0,4227,0,32467,0
25927,-264,-8212,826,-52,14,1,27741,-3,-2,0,0,36678,85,26,144,0,0,0,0,0,0,0,0,-32294,0,0,0,4228,0,32487,0
25937,-226,-8202,830,-53,14,-1,27741,0,1,0,0,36680,95,25,144,0,0,0,0,0,0,0,0,-32294,0,0,0,4229,0,32507,0
25947,-254,-8200,822,-53,16,-1,27741,-1,-3,-4,0,36687,101,26,144,0,0,0,0,0,0,0,0,-32293,0,0,0,4228,0,32527,0
25957,-226,-8184,832,-51,14,-1,27742,11,4,-1,0,36685,104,25,144,0,0,0,0,0,0,0,0,-32294,0,0,0,4228,0,32547,0
25967,-240,-8210,810,-49,4,-3,27741,4,-1,-3,0,36678,107,25,144,0,0,0,0,0,0,0,0,-32293,0,0,0,4228,0,32567,0
25977,-216,-8202,814,-44,4,-7,27742,1,-1,0,0,36676,89,26,144,0,0,0,0,0,0,0,0,-32293,0,0,0,4228,0,32587,0
25987,-224,-8200,842,-45,11,-11,27740,0,-1,1,0,36679,85,25,144,0,0,0,0,0,0,0,0,-32293,0,0,0,4228,0,32607,0
25997,-230,-8196,832,-47,3,-10,27740,5,0,0,0,36678,86,26,144,0,0,0,0,0,0,0,0,-32293,0,0,0,4228,0,32627,0
26007,-214,-8178,838,-47,7,-11,27739,-3,-2,0,0,36675,87,25,144,0,0,0,0,0,0,0,0,-32293,0,0,0,4228,0,32647,0
26017,-210,-8214,832,-48,9,-10,27740,0,-3,-2,0,36674,77,25,144,0,0,0,0,0,0,0,0,-32294,0,0,0,4228,0,32667,0
26027,-226,-8230,838,-45,11,-8,27738,0,0,-2,0,36679,64,26,144,0,0,0,0,0,0,0,0,-32293,0,0,0,4227,0,32687,0
26037,-234,-8192,838,-49,8,-10,27738,0,-1,-1,0,36686,85,26,144,0,0,0,0,0,0,0,0,-32294,0,0,0,4227,0,32707,0
26047,-226,-8208,826,-46,9,-11,27740,5,-2,0,0,36682,94,26,144,0,0,0,0,0,0,0,0,-32294,0,0,0,4227,0,32727,0
26057,-200,-8180,852,-45,8,-8,27740,1,-2,0,0,36680,84,26,144,0,0,0,0,0,0,0,0,-32293,0,0,0,4228,0,32747,0
26067,-170,-8192,830,-51,3,-8,27739,-2,3,0,0,36681,85,26,144,0,0,0,0,0,0,0,0,-32293,0,0,0,4227,0,32767,0
26077,-180,-8220,816,-42,14,-5,27738,0,-1,0,0,36686,92,25,144,0,0,0,0,0,0,0,0,-32293,0,0,0,4227,0,32787,0
26087,-202,-8216,860,-45,6,-2,27738,1,-4,-1,0,36683,102,25,144,0,0,0,0,0,0,0,0,-32294,0,0,0,4228,0,32807,0
26097,-174,-8180,832,-43,10,-1,27739,1,-4,-1,0,36676,91,26,144,0,0,0,0,0,0,0,0,-32293,0,0,0,4227,0,32827,0
26107,-208,-8226,862,-46,11,5,27738,0,-1,0,0,36681,73,26,144,0,0,0,0,0,0,0,0,-32293,0,0,0,4228,0,32847,0
26117,-184,-8208,834,-45,19,7,27738,6,4,-2,0,36697,88,26,144,0,0,0,0,0,0,0,0,-32293,0,0,0,4228,0,32867,0
26127,-172,-8212,838,-46,12,6,27739,3,3,-1,0,36705,100,25,144,0,0,0,0,0,0,0,0,-32293,0,0,0,4228,0,32887,0
26137,-232,-8190,840,-45,17,12,27738,0,0,-1,0,36695,106,25,144,0,0,0,0,0,0,0,0,-32293,0,0,0,4227,0,32907,0
26147,-180,-8158,850,-49,16,8,27738,-1,-2,-1,0,36689,78,26,144,0,0,0,0,0,0,0,0,-32293,0,0,0,4228,0,32927,0
26157,-180,-8206,830,-37,17,8,27740,5,0,-1,0,36685,69,25,144,0,0,0,0,0,0,0,0,-32294,0,0,0,4227,0,32947,0
26167,-222,-8238,824,-45,18,4,27738,-3,0,-3,0,36681,76,26,144,0,0,0,0,0,0,0,0,-32294,0,0,0,4227,0,32967,0
26177,-228,-8204,840,-43,14,11,27738,-1,0,-2,0,36671,81,25,144,0,0,0,0,0,0,0,0,-32293,0,0,0,4228,0,32987,0
26187,-218,-8178,846,-42,16,11,27739,1,-1,-2,0,36665,85,25,144,0,0,0,0,0,0,0,0,-32293,0,0,0,4227,0,33007,0
26197,-234,-8232,856,-38,11,6,27739,4,2,-2,0,36671,78,26,144,0,0,0,0,0,0,0,0,-32294,0,0,0,4227,0,33027,0
26207,-228,-8186,856,-45,12,7,27739,0,1,0,0,36674,86,25,144,0,0,0,0,0,0,0,0,-32294,0,0,0,4228,0,33047,0
26217,-246,-8196,850,-38,14,9,27738,1,-1,-2,0,36669,89,25,144,0,0,0,0,0,0,0,0,-32294,0,0,0,4227,0,33067,0
26227,-200,-8188,842,-46,9,7,27737,-4,-2,0,0,36667,78,26,144,0,0,0,0,0,0,0,0,-32294,0,0,0,4228,0,33087,0
26237,-208,-8156,842,-43,10,1,27738,0,-2,-1,0,36669,83,25,144,0,0,0,0,0,0,0,0,-32293,0,0,0,4227,0,33107,0
26247,-226,-8180,814,-42,13,1,27738,-1,-3,0,0,36679,86,26,144,0,0,0,0,0,0,0,0,-32293,0,0,0,4228,0,33127,0
26257,-222,-8190,822,-49,6,2,27737,2,3,0,0,36680,95,26,144,0,0,0,0,0,0,0,0,-32294,0,0,0,4227,0,33147,0
26267,-220,-8194,832,-46,15,5,27738,0,5,-2,0,36674,96,26,144,0,0,0,0,0,0,0,0,-32294,0,0,0,4227,0,33167,0
26277,-180,-8182,850,-46,9,4,27739,-1,-3,-1,0,36674,79,26,144,0,0,0,0,0,0,0,0,-32294,0,0,0,4228,0,33187,0
26287,-206,-8208,838,-45,17,5,27738,0,3,-1,0,36671,73,26,144,0,0,0,0,0,0,0,0,-32294,0,0,0,4226,0,33207,0
26297,-186,-8214,838,-50,15,5,27738,-1,1,0,0,36672,71,26,144,0,0,0,0,0,0,0,0,-32294,0,0,0,4228,0,33227,0
26307,-192,-8194,852,-51,16,9,27737,-1,-2,-1,0,36671,88,26,144,0,0,0,0,0,0,0,0,-32293,0,0,0,4227,0,33247,0
26317,-196,-8192,852,-48,10,7,27738,-4,1,-2,0,36667,80,26,144,0,0,0,0,0,0,0,0,-32294,0,0,0,4228,0,33267,0
26327,-194,-8220,864,-47,11,9,27738,-1,-2,-2,0,36669,84,25,144,0,0,0,0,0,0,0,0,-32293,0,0,0,4227,0,33287,0
26337,-188,-8186,804,-41,13,11,27739,0,0,-1,0,36668,86,26,144,0,0,0,0,0,0,0,0,-32293,0,0,0,4228,0,33307,0
26347,-192,-8218,842,-48,14,8,27738,2,-4,0,0,36664,88,25,144,0,0,0,0,0,0,0,0,-32294,0,0,0,4228,0,33327,0
26357,-196,-8196,832,-44,12,13,27737,-1,-1,0,0,36663,79,25,144,0,0,0,0,0,0,0,0,-32294,0,0,0,4228,0,33347,0
26367,-194,-8186,832,-48,14,14,27738,-4,2,-2,0,36671,67,26,144,0,0,0,0,0,0,0,0,-32293,0,0,0,4228,0,33367,0
26377,-204,-8200,832,-46,21,19,27738,4,-1,-1,0,36676,82,25,144,0,0,0,0,0,0,0,0,-32293,0,0,0,4228,0,33387,0
26387,-220,-8182,834,-44,14,13,27738,0,-3,-2,0,36670,90,25,144,0,0,0,0,0,0,0,0,-32293,0,0,0,4228,0,33407,0
26397,-214,-8214,832,-44,19,15,27738,-1,-1,0,0,36660,75,26,144,0,0,0,0,0,0,0,0,-32293,0,0,0,4227,0,33427,0
26407,-224,-8182,856,-46,13,11,27738,-7,-3,-2,0,36665,74,25,144,0,0,0,0,0,0,0,0,-32293,0,0,0,4229,0,33447,0
26417,-220,-8206,846,-49,17,15,27739,4,-3,-3,0,36671,69,26,144,0,0,0,0,0,0,0,0,-32293,0,0,0,4226,0,33467,0
26427,-218,-8202,834,-48,15,11,27738,2,-1,0,0,36668,71,25,144,0,0,0,0,0,0,0,0,-32293,0,0,0,4227,0,33487,0
26437,-246,-8194,852,-50,18,12,27739,5,4,0,0,36661,72,25,144,0,0,0,0,0,0,0,0,-32293,0,0,0,4228,0,33507,0
26447,-218,-8206,850,-48,12,10,27739,0,2,-3,0,36662,64,26,144,0,0,0,0,0,0,0,0,-32293,0,0,0,4227,0,33527,0
26457,-210,-8186,856,-51,14,10,27739,-4,0,-1,0,36667,76,26,144,0,0,0,0,0,0,0,0,-32293,0,0,0,4228,0,33547,0
26467,-200,-8194,854,-45,12,5,27739,-1,6,-3,0,36670,99,26,144,0,0,0,0,0,0,0,0,-32293,0,0,0,4226,0,33567,0
26477,-226,-8204,842,-56,12,7,27738,0,3,-1,0,36666,101,26,144,0,0,0,0,0,0,0,0,-32293,0,0,0,4228,0,33587,0
26487,-216,-8216,838,-48,13,7,27739,1,1,-1,0,36663,95,26,144,0,0,0,0,0,0,0,0,-32294,0,0,0,4227,0,33607,0
26497,-194,-8198,824,-49,10,10,27740,3,-1,-1,0,36666,65,26,144,0,0,0,0,0,0,0,0,-32293,0,0,0,4226,0,33627,0
26507,-216,-8234,848,-47,13,8,27739,3,1,0,0,36671,78,26,144,0,0,0,0,0,0,0,0,-32293,0,0,0,4226,0,33647,0
26517,-226,-8192,838,-51,9,7,27740,0,-4,-2,0,36668,87,25,144,0,0,0,0,0,0,0,0,-32293,0,0,0,4227,0,33667,0
26527,-208,-8162,850,-50,13,5,27738,-4,5,0,0,36666,89,25,144,0,0,0,0,0,0,0,0,-32293,0,0,0,4227,0,33687,0
26537,-216,-8234,858,-44,14,8,27739,0,2,-2,0,36665,84,26,144,0,0,0,0,0,0,0,0,-32293,0,0,0,4227,0,33707,0
26547,-208,-8186,850,-51,12,12,27739,4,1,-3,0,36669,75,26,144,0,0,0,0,0,0,0,0,-32294,0,0,0,4228,0,33727,0
26557,-252,-8184,854,-50,16,8,27739,0,-2,-1,0,36664,84,26,144,0,0,0,0,0,0,0,0,-32293,0,0,0,4228,0,33747,0
26567,-222,-8206,846,-49,16,8,27739,-1,0,-1,0,36669,67,26,144,0,0,0,0,0,0,0,0,-32293,0,0,0,4227,0,33767,0
26577,-186,-8192,848,-50,16,13,27740,1,3,0,0,36672,73,25,144,0,0,0,0,0,0,0,0,-32293,0,0,0,4228,0,33787,0
26587,-208,-8182,822,-50,13,11,27739,-1,-2,-2,0,36677,73,26,144,0,0,0,0,0,0,0,0,-32293,0,0,0,4226,0,33807,0
26597,-216,-8180,818,-52,19,12,27739,3,5,-3,0,36669,80,25,144,0,0,0,0,0,0,0,0,-32293,0,0,0,4227,0,33827,0
26607,-240,-8200,820,-46,13,15,27739,-1,1,-1,0,36664,89,25,144,0,0,0,0,0,0,0,0,-32293,0,0,0,4228,0,33847,0
26617,-232,-8176,838,-49,18,9,27739,0,-1,-3,0,36666,77,26,144,0,0,0,0,0,0,0,0,-32293,0,0,0,4228,0,33867,0
26627,-222,-8218,834,-48,17,11,27740,5,-2,0,0,36673,75,25,144,0,0,0,0,0,0,0,0,-32293,0,0,0,4227,0,33887,0
26637,-194,-8182,836,-46,19,8,27739,7,0,-1,0,36671,80,26,144,0,0,0,0,0,0,0,0,-32293,0,0,0,4227,0,33907,0
26647,-222,-8198,850,-50,15,13,27739,0,0,-2,0,36666,81,26,144,0,0,0,0,0,0,0,0,-32293,0,0,0,4228,0,33927,0
26657,-236,-8216,822,-51,17,13,27740,4,3,-1,0,36664,78,26,144,0,0,0,0,0,0,0,0,-32293,0,0,0,4227,0,33947,0
26667,-242,-8178,850,-46,13,10,27740,6,-3,-1,0,36671,71,26,144,0,0,0,0,0,0,0,0,-32293,0,0,0,4227,0,33968,0
26677,-242,-8190,834,-51,11,11,27739,-2,1,-3,0,36679,80,26,144,0,0,0,0,0,0,0,0,-32293,0,0,0,4228,0,33988,0
