state_time,accelx,accely,accelz,gyrox,gyroy,gyroz,mot_ang,mot_vel,mot_acc,mot_cur,mot_volt,batt_volt,batt_curr,temperature,status_mn,status_ex,status_re,genvar_0,genvar_1,genvar_2,genvar_3,genvar_4,genvar_5,genvar_6,genvar_7,genvar_8,genvar_9,ank_ang,ank_vel,sys_time,event flags
17998,-154,-8266,532,-53,43,18,6074,0,-2,0,0,37386,285,25,79,0,0,0,0,0,0,0,0,-32318,0,0,0,4031,0,7352,0
18008,-168,-8286,510,-56,39,13,6076,4,5,2,0,37384,289,25,79,0,0,0,0,0,0,0,0,-32318,0,0,0,4031,0,18018,0
18018,-152,-8258,492,-47,42,13,6073,1,-3,1,0,37383,290,25,79,0,0,0,0,0,0,0,0,-32318,0,0,0,4032,0,18038,0
18028,-148,-8252,506,-48,43,5,6075,15,11,0,0,37379,288,25,79,0,0,0,0,0,0,0,0,-32318,0,0,0,4032,0,18058,0
18038,-160,-8298,500,-45,40,3,6074,-2,3,2,0,37382,284,25,79,0,0,0,0,0,0,0,0,-32318,0,0,0,4032,0,18079,0
18048,-146,-8298,498,-42,46,5,6073,-3,-2,-1,0,37382,280,25,79,0,0,0,0,0,0,0,0,-32318,0,0,0,4032,0,18099,0
18058,-128,-8282,522,-43,41,8,6073,-4,-2,1,0,37382,282,25,79,0,0,0,0,0,0,0,0,-32318,0,0,0,4031,0,18119,0
18068,-110,-8300,520,-45,33,6,6074,2,0,1,0,37386,291,25,79,0,0,0,0,0,0,0,0,-32318,0,0,0,4030,0,18142,0
18078,-140,-8302,538,-43,35,11,6075,1,8,0,0,37387,291,25,79,0,0,0,0,0,0,0,0,-32318,0,0,0,4031,0,18161,0
18088,-130,-8282,528,-49,44,8,6075,7,-1,0,0,37387,286,25,79,0,0,0,0,0,0,0,0,-32318,0,0,0,4031,0,18181,0
18098,-120,-8280,530,-53,47,15,6075,-2,7,-1,0,37386,288,25,79,0,0,0,0,0,0,0,0,-32318,0,0,0,4031,0,18201,0
18108,-104,-8272,528,-52,42,16,6073,-10,-3,0,0,37388,290,25,79,0,0,0,0,0,0,0,0,-32318,0,0,0,4030,0,18221,0
18118,-100,-8266,524,-49,35,18,6075,-3,-4,3,0,37385,293,25,79,0,0,0,0,0,0,0,0,-32318,0,0,0,4030,0,18244,0
18128,-136,-8320,506,-54,41,17,6074,2,0,1,0,37383,290,25,79,0,0,0,0,0,0,0,0,-32318,0,0,0,4030,0,18264,0
18138,-156,-8290,528,-57,39,19,6075,9,4,1,0,37378,287,25,79,0,0,0,0,0,0,0,0,-32318,0,0,0,4030,0,18284,0
18148,-152,-8258,490,-48,38,15,6074,-1,1,0,0,37376,286,25,79,0,0,0,0,0,0,0,0,-32318,0,0,0,4031,0,18304,0
18158,-176,-8294,480,-47,42,11,6073,0,-4,1,0,37376,285,25,79,0,0,0,0,0,0,0,0,-32318,0,0,0,4031,0,18324,0
18168,-196,-8276,524,-46,35,6,6074,3,2,1,0,37376,288,25,79,0,0,0,0,0,0,0,0,-32318,0,0,0,4030,0,18344,0
18178,-156,-8286,506,-48,36,4,6073,-8,1,0,0,37377,288,25,79,0,0,0,0,0,0,0,0,-32318,0,0,0,4030,0,18364,0
18188,-146,-8284,524,-46,44,-2,6074,-3,0,0,0,37376,285,25,79,0,0,0,0,0,0,0,0,-32318,0,0,0,4030,0,18384,0
18198,-116,-8290,526,-48,42,8,6074,-2,-3,0,0,37375,283,25,79,0,0,0,0,0,0,0,0,-32318,0,0,0,4030,0,18404,0
18208,-92,-8264,528,-45,37,9,6074,-2,8,1,0,37377,289,25,79,0,0,0,0,0,0,0,0,-32318,0,0,0,4030,0,18424,0
18218,-114,-8280,530,-49,40,11,6075,1,0,0,0,37384,294,25,79,0,0,0,0,0,0,0,0,-32318,0,0,0,4030,0,18444,0
18228,-120,-8280,496,-50,42,14,6074,3,2,0,0,37383,296,25,79,0,0,0,0,0,0,0,0,-32318,0,0,0,4029,0,18464,0
18238,-90,-8284,530,-49,47,12,6075,-2,0,0,0,37381,288,25,79,0,0,0,0,0,0,0,0,-32318,0,0,0,4030,0,18484,0
18248,-118,-8284,506,-48,42,19,6074,4,0,-1,0,37374,278,25,79,0,0,0,0,0,0,0,0,-32318,0,0,0,4030,0,18504,0
18258,-102,-8268,540,-46,43,18,6074,-1,-2,2,0,37375,272,25,79,0,0,0,0,0,0,0,0,-32318,0,0,0,4030,0,18524,0
18268,-156,-8282,534,-51,36,17,6074,-7,-1,1,0,37376,274,25,79,0,0,0,0,0,0,0,0,-32318,0,0,0,4030,0,18544,0
18278,-162,-8282,520,-51,38,17,6075,6,2,0,0,37373,273,25,79,0,0,0,0,0,0,0,0,-32317,0,0,0,4030,0,18564,0
18288,-178,-8290,516,-52,42,12,6075,0,-5,2,0,37372,281,25,79,0,0,0,0,0,0,0,0,-32318,0,0,0,4031,0,18584,0
18298,-142,-8314,528,-46,39,9,6075,-2,1,0,0,37371,284,25,79,0,0,0,0,0,0,0,0,-32318,0,0,0,4030,0,18605,0
18308,-166,-8298,518,-52,41,10,6076,3,0,0,0,37373,281,25,79,0,0,0,0,0,0,0,0,-32318,0,0,0,4030,0,18625,0
18318,-166,-8278,496,-52,42,12,6073,0,6,0,0,37380,276,25,79,0,0,0,0,0,0,0,0,-32318,0,0,0,4030,0,18645,0
18328,-156,-8306,526,-47,43,13,6074,-3,-3,2,0,37379,281,25,79,0,0,0,0,0,0,0,0,-32318,0,0,0,4030,0,18665,0
18338,-132,-8266,528,-51,46,10,6074,-6,0,1,0,37379,278,25,79,0,0,0,0,0,0,0,0,-32318,0,0,0,4030,0,18685,0
18348,-116,-8290,506,-52,38,13,6075,6,-3,0,0,37377,273,25,79,0,0,0,0,0,0,0,0,-32318,0,0,0,4030,0,18705,0
18358,-96,-8292,522,-53,46,15,6074,0,1,1,0,37384,275,25,79,0,0,0,0,0,0,0,0,-32318,0,0,0,4030,0,18725,0
18368,-122,-8266,544,-54,48,19,6073,2,3,0,0,37395,284,25,79,0,0,0,0,0,0,0,0,-32318,0,0,0,4030,0,18745,0
18378,-100,-8300,540,-53,49,19,6075,6,0,0,0,37402,288,25,79,0,0,0,0,0,0,0,0,-32318,0,0,0,4030,0,18765,0
18388,-132,-8270,500,-55,41,29,6074,3,-3,2,0,37392,281,25,79,0,0,0,0,0,0,0,0,-32318,0,0,0,4030,0,18785,0
18398,-156,-8288,508,-54,41,27,6075,1,0,0,0,37381,279,25,79,0,0,0,0,0,0,0,0,-32318,0,0,0,4030,0,18805,0
18408,-186,-8306,478,-50,43,22,6072,-4,1,0,0,37370,280,25,79,0,0,0,0,0,0,0,0,-32318,0,0,0,4031,0,18825,0
18418,-204,-8270,462,-46,38,15,6072,-1,-2,0,0,37373,297,25,79,0,0,0,0,0,0,0,0,-32318,0,0,0,4030,0,18845,0
18428,-188,-8280,480,-43,34,10,6074,-5,4,0,0,37376,290,25,79,0,0,0,0,0,0,0,0,-32318,0,0,0,4030,0,18865,0
18438,-172,-8314,506,-40,37,9,6074,0,7,1,0,37379,284,25,79,0,0,0,0,0,0,0,0,-32318,0,0,0,4030,0,18885,0
18448,-156,-8298,504,-42,40,9,6075,4,7,-1,0,37380,276,25,79,0,0,0,0,0,0,0,0,-32318,0,0,0,4030,0,18905,0
18458,-116,-8286,526,-35,40,3,6073,-4,-3,0,0,37374,263,25,79,0,0,0,0,0,0,0,0,-32318,0,0,0,4030,0,18925,0
18468,-134,-8292,580,-39,43,5,6075,2,0,2,0,37374,273,25,79,0,0,0,0,0,0,0,0,-32318,0,0,0,4030,0,18945,0
18478,-94,-8296,554,-43,42,15,6074,0,4,0,0,37373,277,25,79,0,0,0,0,0,0,0,0,-32318,0,0,0,4030,0,18965,0
18488,-108,-8296,558,-50,39,19,6075,0,0,0,0,37374,278,25,79,0,0,0,0,0,0,0,0,-32318,0,0,0,4030,0,18985,0
18498,-126,-8294,542,-55,42,21,6074,4,7,1,0,37376,278,25,79,0,0,0,0,0,0,0,0,-32318,0,0,0,4030,0,19005,0
18508,-116,-8294,504,-57,44,24,6074,-8,-4,0,0,37378,283,25,79,0,0,0,0,0,0,0,0,-32318,0,0,0,4030,0,19025,0
18518,-128,-8288,516,-57,40,25,6074,-1,-2,2,0,37381,281,25,79,0,0,0,0,0,0,0,0,-32318,0,0,0,4030,0,19045,0
18528,-188,-8324,480,-50,38,20,6073,-11,-3,0,0,37384,279,25,79,0,0,0,0,0,0,0,0,-32318,0,0,0,4030,0,19065,0
18538,-156,-8306,512,-49,43,23,6075,0,-10,0,0,37383,280,25,79,0,0,0,0,0,0,0,0,-32318,0,0,0,4031,0,19085,0
18548,-152,-8244,514,-47,39,23,6075,6,2,0,0,37383,283,25,79,0,0,0,0,0,0,0,0,-32318,0,0,0,4031,0,19105,0
18558,-146,-8294,514,-43,38,20,6075,-1,1,1,0,37374,280,25,79,0,0,0,0,0,0,0,0,-32318,0,0,0,4031,0,19125,0
18568,-164,-8268,550,-50,43,12,6074,0,-6,1,0,37374,279,25,79,0,0,0,0,0,0,0,0,-32318,0,0,0,4030,0,19145,0
18578,-130,-8274,550,-45,39,14,6074,-3,5,0,0,37375,273,25,79,0,0,0,0,0,0,0,0,-32317,0,0,0,4030,0,19165,0
18588,-136,-8278,550,-49,42,16,6075,6,-4,0,0,37378,277,25,79,0,0,0,0,0,0,0,0,-32318,0,0,0,4030,0,19185,0
18598,-110,-8308,582,-56,43,14,6072,-9,5,1,0,37377,279,25,79,0,0,0,0,0,0,0,0,-32318,0,0,0,4030,0,19205,0
18608,-124,-8308,534,-60,42,17,6073,-6,1,1,0,37376,275,25,79,0,0,0,0,0,0,0,0,-32318,0,0,0,4031,0,19225,0
18618,-124,-8300,520,-59,41,22,6073,-12,-2,1,0,37377,266,25,79,0,0,0,0,0,0,0,0,-32318,0,0,0,4031,0,19245,0
18628,-148,-8268,506,-61,41,20,6074,6,7,0,0,37386,274,25,79,0,0,0,0,0,0,0,0,-32318,0,0,0,4032,0,19265,0
18638,-126,-8284,492,-60,48,27,6076,2,0,0,0,37390,279,25,79,0,0,0,0,0,0,0,0,-32318,0,0,0,4031,0,19285,0
18648,-148,-8314,498,-52,46,17,6074,5,2,0,0,37389,284,25,79,0,0,0,0,0,0,0,0,-32318,0,0,0,4030,0,19305,0
18658,-156,-8286,492,-46,33,20,6075,8,4,1,0,37384,277,25,79,0,0,0,0,0,0,0,0,-32318,0,0,0,4031,0,19325,0
18668,-158,-8300,498,-52,36,11,6075,1,-2,1,0,37385,281,25,79,0,0,0,0,0,0,0,0,-32318,0,0,0,4031,0,19345,0
18678,-180,-8274,468,-43,38,18,6074,-1,6,1,0,37384,287,25,79,0,0,0,0,0,0,0,0,-32318,0,0,0,4032,0,19365,0
18688,-188,-8282,514,-47,39,8,6074,9,4,0,0,37380,287,25,79,0,0,0,0,0,0,0,0,-32318,0,0,0,4031,0,19385,0
18698,-160,-8266,552,-44,32,7,6074,7,-1,0,0,37377,286,25,79,0,0,0,0,0,0,0,0,-32318,0,0,0,4031,0,19405,0
18708,-118,-8276,560,-55,46,9,6075,-1,-2,1,0,37377,284,25,79,0,0,0,0,0,0,0,0,-32317,0,0,0,4032,0,19425,0
18718,-84,-8298,576,-52,43,14,6075,7,4,0,0,37381,284,25,79,0,0,0,0,0,0,0,0,-32318,0,0,0,4031,0,19445,0
18728,-88,-8322,564,-63,45,18,6074,0,0,-1,0,37385,289,25,79,0,0,0,0,0,0,0,0,-32318,0,0,0,4030,0,19465,0
18738,-110,-8244,556,-62,45,17,6075,7,-1,0,0,37385,287,25,79,0,0,0,0,0,0,0,0,-32318,0,0,0,4031,0,19485,0
18748,-138,-8482,508,-68,39,23,6074,-8,-1,1,0,37384,282,25,79,0,0,0,0,0,0,0,0,-32318,0,0,0,4031,0,19505,0
18758,-158,-8196,564,-69,40,32,6074,0,0,0,0,37382,279,25,79,0,0,0,0,0,0,0,0,-32318,0,0,0,4031,0,19525,0
18768,-146,-8342,424,-61,42,16,6076,9,1,0,0,37382,282,25,79,0,0,0,0,0,0,0,0,-32318,0,0,0,4031,0,19545,0
18778,-166,-8334,310,-52,43,13,6074,1,8,0,0,37381,279,25,79,0,0,0,0,0,0,0,0,-32317,0,0,0,4031,0,19565,0
18788,-166,-8248,378,-43,40,32,6074,-8,4,0,0,37382,277,25,79,0,0,0,0,0,0,0,0,-32318,0,0,0,4032,0,19585,0
18798,-106,-8338,612,-35,36,19,6074,1,-1,1,0,37383,277,25,79,0,0,0,0,0,0,0,0,-32318,0,0,0,4032,0,19605,0
18808,-170,-8248,620,-48,33,8,6075,4,1,0,0,37385,286,25,79,0,0,0,0,0,0,0,0,-32318,0,0,0,4031,0,19625,0
18818,-220,-8276,514,-54,31,17,6075,5,4,1,0,37385,296,25,79,0,0,0,0,0,0,0,0,-32318,0,0,0,4032,0,19645,0
18828,-212,-8338,598,-46,29,4,6074,0,1,0,0,37386,289,25,79,0,0,0,0,0,0,0,0,-32318,0,0,0,4033,0,19665,0
18838,-152,-8362,698,-58,43,-8,6075,-4,-1,1,0,37387,284,25,79,0,0,0,0,0,0,0,0,-32318,0,0,0,4031,0,19685,0
18848,-146,-8260,554,-78,43,1,6075,6,-2,1,0,37389,286,25,79,0,0,0,0,0,0,0,0,-32318,0,0,0,4030,0,19705,0
18858,-108,-8184,440,-74,33,1,6075,-6,-3,0,0,37385,284,25,79,0,0,0,0,0,0,0,0,-32318,0,0,0,4031,0,19725,0
18868,-80,-8272,350,-44,35,-3,6073,0,2,1,0,37385,282,25,79,0,0,0,0,0,0,0,0,-32318,0,0,0,4030,0,19745,0
18878,-130,-8258,348,-45,43,11,6075,3,0,0,0,37386,271,25,79,0,0,0,0,0,0,0,0,-32318,0,0,0,4030,0,19765,0
18888,-130,-8252,414,-34,39,13,6074,2,0,1,0,37386,274,25,79,0,0,0,0,0,0,0,0,-32318,0,0,0,4030,0,19785,0
18898,-130,-8364,438,-22,41,4,6074,1,3,0,0,37386,272,25,79,0,0,0,0,0,0,0,0,-32318,0,0,0,4030,0,19805,0
18908,-188,-8258,566,-17,37,6,6073,-4,-6,0,0,37387,276,25,79,0,0,0,0,0,0,0,0,-32318,0,0,0,4030,0,19825,0
18918,-170,-8302,602,-26,43,6,6076,6,8,0,0,37385,276,25,79,0,0,0,0,0,0,0,0,-32318,0,0,0,4030,0,19845,0
18928,-104,-8324,660,-35,42,-17,6074,3,-2,1,0,37386,283,25,79,0,0,0,0,0,0,0,0,-32318,0,0,0,4030,0,19865,0
18938,-140,-8310,654,-44,47,-18,6075,0,4,1,0,37393,282,25,79,0,0,0,0,0,0,0,0,-32318,0,0,0,4029,0,19885,0
18948,-70,-8264,580,-56,52,1,6075,3,0,0,0,37393,286,25,79,0,0,0,0,0,0,0,0,-32317,0,0,0,4028,0,19905,0
18958,36,-8314,586,-59,43,9,6075,-4,-1,1,0,37392,288,25,79,0,0,0,0,0,0,0,0,-32318,0,0,0,4028,0,19925,0
18968,-8,-8242,512,-68,40,27,6073,-6,-3,0,0,37384,288,25,79,0,0,0,0,0,0,0,0,-32318,0,0,0,4028,0,19945,0
18978,-74,-8274,468,-72,37,44,6075,0,3,0,0,37382,288,25,79,0,0,0,0,0,0,0,0,-32318,0,0,0,4029,0,19965,0
18988,-138,-8276,478,-67,39,51,6074,0,-1,0,0,37383,284,25,79,0,0,0,0,0,0,0,0,-32318,0,0,0,4029,0,19985,0
18998,-130,-8300,498,-55,40,40,6076,1,4,1,0,37383,288,25,79,0,0,0,0,0,0,0,0,-32318,0,0,0,4028,0,20005,0
19008,-226,-8258,534,-61,41,44,6075,0,0,1,0,37381,290,25,79,0,0,0,0,0,0,0,0,-32318,0,0,0,4030,0,20025,0
19018,-176,-8302,556,-66,37,40,6075,2,-1,0,0,37380,287,25,79,0,0,0,0,0,0,0,0,-32318,0,0,0,4030,0,20046,0
19028,-242,-8316,556,-64,35,18,6074,3,-2,1,0,37381,287,25,79,0,0,0,0,0,0,0,0,-32318,0,0,0,4030,0,20066,0
19038,-266,-8262,516,-61,38,13,6074,3,3,0,0,37394,291,25,79,0,0,0,0,0,0,0,0,-32318,0,0,0,4030,0,20086,0
19048,-244,-8262,492,-68,44,-2,6073,-3,1,2,0,37394,287,25,79,0,0,0,0,0,0,0,0,-32318,0,0,0,4030,0,20105,0
19058,-148,-8316,504,-68,44,-22,6074,-9,0,0,0,37390,291,25,79,0,0,0,0,0,0,0,0,-32318,0,0,0,4030,0,20126,0
19068,-158,-8264,468,-55,40,-14,6074,-1,-1,1,0,37378,289,25,79,0,0,0,0,0,0,0,0,-32318,0,0,0,4029,0,20146,0
19078,-124,-8236,464,-50,38,-7,6073,-13,-3,1,0,37377,286,25,79,0,0,0,0,0,0,0,0,-32318,0,0,0,4028,0,20165,0
19088,-98,-8312,508,-50,39,-11,6076,5,-1,0,0,37380,274,25,79,0,0,0,0,0,0,0,0,-32318,0,0,0,4029,0,20186,0
19098,-138,-8274,488,-57,36,-12,6075,7,0,2,0,37378,275,25,79,0,0,0,0,0,0,0,0,-32318,0,0,0,4029,0,20205,0
19108,-136,-8286,466,-53,36,-4,6074,-6,3,0,0,37379,281,25,79,0,0,0,0,0,0,0,0,-32318,0,0,0,4029,0,20225,0
19118,-96,-8308,460,-44,35,-10,6074,-1,-5,0,0,37377,288,25,79,0,0,0,0,0,0,0,0,-32318,0,0,0,4028,0,20246,0
19128,-140,-8290,554,-40,39,-16,6074,0,0,1,0,37377,281,25,79,0,0,0,0,0,0,0,0,-32317,0,0,0,4028,0,20266,0
19138,-124,-8282,558,-48,41,-4,6075,1,5,1,0,37377,273,25,79,0,0,0,0,0,0,0,0,-32318,0,0,0,4028,0,20286,0
19148,-28,-8320,554,-50,38,-7,6075,5,-3,-1,0,37380,261,25,79,0,0,0,0,0,0,0,0,-32318,0,0,0,4026,0,20306,0
19158,-54,-8304,528,-55,39,5,6075,5,3,2,0,37383,268,25,79,0,0,0,0,0,0,0,0,-32318,0,0,0,4026,0,20326,0
19168,-94,-8266,562,-57,43,18,6076,8,3,0,0,37384,267,25,79,0,0,0,0,0,0,0,0,-32317,0,0,0,4026,0,20346,0
19178,-78,-8284,522,-63,38,19,6075,0,-3,1,0,37382,279,25,79,0,0,0,0,0,0,0,0,-32318,0,0,0,4028,0,20366,0
19188,-86,-8312,512,-56,39,21,6074,-2,-2,1,0,37382,282,25,79,0,0,0,0,0,0,0,0,-32318,0,0,0,4026,0,20386,0
19198,-152,-8262,512,-62,46,31,6074,0,-3,0,0,37379,278,25,79,0,0,0,0,0,0,0,0,-32318,0,0,0,4028,0,20406,0
19208,-144,-8316,522,-57,41,28,6074,-4,4,0,0,37376,284,25,79,0,0,0,0,0,0,0,0,-32318,0,0,0,4027,0,20426,0
19218,-130,-8312,532,-58,40,25,6075,0,1,-1,0,37378,289,25,79,0,0,0,0,0,0,0,0,-32318,0,0,0,4027,0,20446,0
19228,-168,-8274,508,-64,46,33,6074,-4,-5,0,0,37378,293,25,79,0,0,0,0,0,0,0,0,-32318,0,0,0,4028,0,20466,0
19238,-164,-8286,478,-58,44,23,6074,-2,-1,1,0,37375,286,25,79,0,0,0,0,0,0,0,0,-32318,0,0,0,4029,0,20486,0
19248,-148,-8332,510,-51,45,13,6074,4,-6,1,0,37374,284,25,79,0,0,0,0,0,0,0,0,-32318,0,0,0,4028,0,20506,0
19258,-146,-8280,540,-52,47,15,6075,7,-2,0,0,37376,278,25,79,0,0,0,0,0,0,0,0,-32318,0,0,0,4029,0,20526,0
19268,-136,-8262,522,-68,41,21,6074,1,-2,0,0,37376,274,25,79,0,0,0,0,0,0,0,0,-32318,0,0,0,4028,0,20547,0
19278,-76,-8302,522,-60,38,12,6076,2,1,0,0,37376,268,25,79,0,0,0,0,0,0,0,0,-32318,0,0,0,4027,0,20567,0
19288,-88,-8260,520,-55,40,22,6074,-10,-4,1,0,37373,279,25,79,0,0,0,0,0,0,0,0,-32318,0,0,0,4028,0,20587,0
19298,-134,-8296,484,-64,44,31,6075,4,-1,0,0,37374,286,25,79,0,0,0,0,0,0,0,0,-32318,0,0,0,4028,0,20607,0
19308,-80,-8308,482,-63,36,22,6074,-8,1,1,0,37374,284,25,79,0,0,0,0,0,0,0,0,-32318,0,0,0,4029,0,20627,0
19318,-146,-8272,464,-54,37,26,6075,6,-1,0,0,37375,279,25,79,0,0,0,0,0,0,0,0,-32318,0,0,0,4028,0,20647,0
19328,-174,-8310,466,-55,44,33,6073,-14,-2,1,0,37374,286,25,79,0,0,0,0,0,0,0,0,-32318,0,0,0,4028,0,20667,0
19338,-148,-8312,510,-54,41,27,6074,-3,0,0,0,37372,287,25,79,0,0,0,0,0,0,0,0,-32318,0,0,0,4028,0,20687,0
19348,-168,-8258,536,-45,35,14,6074,6,0,1,0,37369,290,25,79,0,0,0,0,0,0,0,0,-32318,0,0,0,4029,0,20707,0
19358,-188,-8276,516,-55,36,19,6074,4,-1,0,0,37370,287,25,79,0,0,0,0,0,0,0,0,-32318,0,0,0,4027,0,20727,0
19368,-124,-8290,530,-54,44,14,6074,-3,1,0,0,37372,286,25,79,0,0,0,0,0,0,0,0,-32318,0,0,0,4029,0,20747,0
19378,-110,-8294,546,-54,41,9,6075,-6,-4,3,0,37372,281,25,79,0,0,0,0,0,0,0,0,-32318,0,0,0,4029,0,20767,0
19388,-88,-8300,530,-61,47,25,6075,1,1,0,0,37371,273,25,79,0,0,0,0,0,0,0,0,-32318,0,0,0,4029,0,20787,0
19398,-96,-8278,498,-63,46,32,6074,5,-3,0,0,37368,275,25,79,0,0,0,0,0,0,0,0,-32318,0,0,0,4029,0,20807,0
19408,-74,-8260,498,-55,41,34,6074,3,4,0,0,37369,274,25,79,0,0,0,0,0,0,0,0,-32318,0,0,0,4029,0,20827,0
19418,-154,-8308,464,-60,40,41,6075,7,2,-1,0,37369,277,25,79,0,0,0,0,0,0,0,0,-32318,0,0,0,4029,0,20847,0
19428,-122,-8290,468,-55,36,43,6076,10,4,2,0,37369,274,25,79,0,0,0,0,0,0,0,0,-32318,0,0,0,4029,0,20867,0
19438,-158,-8300,476,-50,43,28,6075,4,3,0,0,37368,277,25,79,0,0,0,0,0,0,0,0,-32318,0,0,0,4029,0,20887,0
19448,-214,-8268,468,-46,38,24,6075,0,2,-1,0,37369,276,25,79,0,0,0,0,0,0,0,0,-32318,0,0,0,4030,0,20907,0
19458,-176,-8282,508,-43,38,23,6076,2,-2,3,0,37370,282,25,79,0,0,0,0,0,0,0,0,-32318,0,0,0,4029,0,20927,0
19468,-182,-8288,532,-43,35,8,6074,3,5,1,0,37376,287,25,79,0,0,0,0,0,0,0,0,-32317,0,0,0,4029,0,20947,0
19478,-172,-8290,502,-45,36,5,6074,-4,-2,1,0,37375,291,25,79,0,0,0,0,0,0,0,0,-32318,0,0,0,4029,0,20967,0
19488,-154,-8280,532,-50,39,6,6074,-3,-3,0,0,37378,296,25,79,0,0,0,0,0,0,0,0,-32318,0,0,0,4029,0,20987,0
19498,-112,-8302,538,-46,39,-1,6075,-3,-4,-1,0,37376,291,25,79,0,0,0,0,0,0,0,0,-32318,0,0,0,4028,0,21007,0
19508,-116,-8274,534,-48,43,2,6075,2,0,2,0,37376,294,25,79,0,0,0,0,0,0,0,0,-32318,0,0,0,4029,0,21027,0
19518,-94,-8304,508,-52,36,12,6075,3,1,0,0,37376,294,25,79,0,0,0,0,0,0,0,0,-32318,0,0,0,4029,0,21048,0
19528,-106,-8312,492,-47,37,11,6075,8,-1,2,0,37374,291,25,79,0,0,0,0,0,0,0,0,-32318,0,0,0,4030,0,21068,0
19538,-124,-8298,496,-47,42,16,6075,0,-6,0,0,37375,279,25,79,0,0,0,0,0,0,0,0,-32318,0,0,0,4028,0,21088,0
19548,-152,-8272,490,-46,38,20,6074,-10,-1,-1,0,37378,291,25,79,0,0,0,0,0,0,0,0,-32318,0,0,0,4030,0,21108,0
19558,-148,-8310,514,-47,37,16,6075,6,0,3,0,37377,289,25,79,0,0,0,0,0,0,0,0,-32318,0,0,0,4028,0,21128,0
19568,-152,-8260,528,-44,43,13,6073,-7,1,2,0,37373,289,25,79,0,0,0,0,0,0,0,0,-32318,0,0,0,4029,0,21148,0
19578,-166,-8266,520,-41,45,17,6074,6,1,0,0,37371,279,25,79,0,0,0,0,0,0,0,0,-32318,0,0,0,4030,0,21168,0
19588,-156,-8306,516,-43,36,14,6075,4,-7,0,0,37376,283,25,79,0,0,0,0,0,0,0,0,-32318,0,0,0,4030,0,21188,0
19598,-174,-8280,540,-43,42,6,6074,0,2,0,0,37377,284,25,79,0,0,0,0,0,0,0,0,-32318,0,0,0,4030,0,21208,0
19608,-168,-8298,544,-48,41,10,6074,5,3,3,0,37378,281,25,79,0,0,0,0,0,0,0,0,-32318,0,0,0,4030,0,21228,0
19618,-146,-8274,506,-56,36,16,6074,-9,-8,0,0,37376,278,25,79,0,0,0,0,0,0,0,0,-32318,0,0,0,4029,0,21248,0
19628,-96,-8262,518,-49,38,7,6073,-12,1,1,0,37377,279,25,79,0,0,0,0,0,0,0,0,-32318,0,0,0,4029,0,21268,0
19638,-92,-8304,536,-51,40,15,6074,-4,-1,2,0,37389,283,25,79,0,0,0,0,0,0,0,0,-32318,0,0,0,4029,0,21288,0
19648,-104,-8266,516,-57,42,23,6074,0,5,0,0,37394,285,25,79,0,0,0,0,0,0,0,0,-32318,0,0,0,4029,0,21308,0
19658,-112,-8290,528,-55,37,16,6074,-1,3,3,0,37393,290,25,79,0,0,0,0,0,0,0,0,-32318,0,0,0,4029,0,21328,0
19668,-166,-8278,492,-50,42,20,6075,1,2,2,0,37389,290,25,79,0,0,0,0,0,0,0,0,-32318,0,0,0,4029,0,21348,0
19678,-154,-8250,488,-52,40,24,6074,1,-1,0,0,37385,288,25,79,0,0,0,0,0,0,0,0,-32317,0,0,0,4028,0,21368,0
19688,-150,-8294,510,-48,39,14,6074,-7,-3,0,0,37386,284,25,79,0,0,0,0,0,0,0,0,-32318,0,0,0,4030,0,21388,0
19698,-150,-8304,500,-47,36,12,6075,0,1,0,0,37381,282,25,79,0,0,0,0,0,0,0,0,-32318,0,0,0,4030,0,21408,0
19708,-158,-8306,498,-46,38,15,6074,-8,-5,0,0,37379,281,25,79,0,0,0,0,0,0,0,0,-32318,0,0,0,4029,0,21428,0
19718,-144,-8294,508,-45,44,15,6075,7,2,-2,0,37381,279,25,79,0,0,0,0,0,0,0,0,-32318,0,0,0,4029,0,21448,0
19728,-116,-8322,518,-43,42,9,6074,-2,-6,-1,0,37385,276,25,79,0,0,0,0,0,0,0,0,-32318,0,0,0,4030,0,21468,0
19738,-132,-8266,516,-48,41,23,6074,-1,0,-1,0,37388,273,25,79,0,0,0,0,0,0,0,0,-32318,0,0,0,4030,0,21488,0
19748,-150,-8280,506,-46,45,16,6075,2,1,0,0,37388,277,25,79,0,0,0,0,0,0,0,0,-32318,0,0,0,4029,0,21508,0
19758,-134,-8314,542,-49,40,13,6074,-1,3,1,0,37388,286,25,79,0,0,0,0,0,0,0,0,-32318,0,0,0,4030,0,21528,0
19768,-162,-8276,520,-54,43,21,6073,-1,-5,0,0,37397,276,25,79,0,0,0,0,0,0,0,0,-32318,0,0,0,4030,0,21548,0
19778,-126,-8274,506,-56,36,18,6075,0,-1,1,0,37396,279,25,79,0,0,0,0,0,0,0,0,-32318,0,0,0,4028,0,21568,0
19788,-118,-8300,514,-51,43,17,6076,-1,3,3,0,37394,276,25,79,0,0,0,0,0,0,0,0,-32318,0,0,0,4030,0,21588,0
19798,-128,-8262,498,-51,42,20,6074,-6,-6,4,0,37386,288,25,79,0,0,0,0,0,0,0,0,-32318,0,0,0,4030,0,21608,0
19808,-136,-8302,514,-48,40,15,6074,5,-1,5,0,37383,288,25,79,0,0,0,0,0,0,0,0,-32318,0,0,0,4029,0,21628,0
19818,-166,-8296,510,-55,40,12,6073,-4,-10,1,0,37382,292,25,79,0,0,0,0,0,0,0,0,-32318,0,0,0,4030,0,21648,0
19828,-174,-8258,512,-53,42,12,6074,-4,1,2,0,37381,287,25,79,0,0,0,0,0,0,0,0,-32318,0,0,0,4030,0,21668,0
19838,-152,-8290,500,-46,37,10,6075,9,-3,1,0,37380,284,25,79,0,0,0,0,0,0,0,0,-32318,0,0,0,4030,0,21688,0
19848,-126,-8288,508,-51,32,9,6074,-3,0,0,0,37384,286,25,79,0,0,0,0,0,0,0,0,-32318,0,0,0,4030,0,21708,0
19858,-140,-8282,498,-47,42,11,6073,-6,1,0,0,37387,290,25,79,0,0,0,0,0,0,0,0,-32318,0,0,0,4030,0,21728,0
19868,-156,-8260,510,-48,37,8,6073,-7,-1,1,0,37387,289,25,79,0,0,0,0,0,0,0,0,-32317,0,0,0,4030,0,21748,0
19878,-158,-8264,542,-49,35,3,6075,0,0,2,0,37386,293,25,79,0,0,0,0,0,0,0,0,-32318,0,0,0,4030,0,21768,0
19888,-114,-8294,502,-42,39,7,6073,-1,-1,0,0,37388,294,25,79,0,0,0,0,0,0,0,0,-32318,0,0,0,4029,0,21788,0
19898,-114,-8260,540,-45,45,10,6074,-1,3,0,0,37388,292,25,79,0,0,0,0,0,0,0,0,-32318,0,0,0,4030,0,21808,0
19908,-100,-8306,514,-53,36,3,6074,2,0,0,0,37386,288,25,79,0,0,0,0,0,0,0,0,-32318,0,0,0,4030,0,21828,0
19918,-126,-8318,522,-46,40,7,6075,-2,0,0,0,37384,286,25,79,0,0,0,0,0,0,0,0,-32318,0,0,0,4029,0,21848,0
19928,-136,-8224,518,-50,40,11,6074,-1,-6,1,0,37382,284,25,79,0,0,0,0,0,0,0,0,-32318,0,0,0,4029,0,21868,0
19938,-126,-8272,532,-51,39,8,6074,-1,3,0,0,37383,286,25,79,0,0,0,0,0,0,0,0,-32318,0,0,0,4029,0,21888,0
19948,-146,-8302,500,-52,41,7,6073,0,-4,0,0,37382,285,25,79,0,0,0,0,0,0,0,0,-32318,0,0,0,4029,0,21908,0
19958,-142,-8286,506,-49,39,13,6075,-1,4,1,0,37384,297,25,79,0,0,0,0,0,0,0,0,-32319,0,0,0,4029,0,21928,0
19968,-122,-8296,524,-47,40,14,6074,0,-3,0,0,37383,293,25,79,0,0,0,0,0,0,0,0,-32318,0,0,0,4029,0,21948,0
19978,-86,-8302,576,-50,40,11,6073,-7,-1,0,0,37387,284,25,79,0,0,0,0,0,0,0,0,-32318,0,0,0,4029,0,21968,0
19988,-118,-8260,542,-57,38,20,6075,2,1,0,0,37385,283,25,79,0,0,0,0,0,0,0,0,-32318,0,0,0,4029,0,21988,0
19998,-136,-8278,472,-55,42,20,6074,1,0,0,0,37386,280,25,79,0,0,0,0,0,0,0,0,-32318,0,0,0,4029,0,22008,0
20008,-158,-8300,494,-49,40,13,6076,9,4,0,0,37378,285,25,79,0,0,0,0,0,0,0,0,-32318,0,0,0,4029,0,22028,0
20018,-160,-8276,526,-50,47,18,6074,8,5,0,0,37375,280,25,79,0,0,0,0,0,0,0,0,-32318,0,0,0,4029,0,22048,0
20028,-98,-8304,524,-58,43,16,6073,-5,0,1,0,37374,281,25,79,0,0,0,0,0,0,0,0,-32318,0,0,0,4029,0,22068,0
20038,-90,-8270,514,-55,37,17,6074,-6,2,0,0,37376,286,25,79,0,0,0,0,0,0,0,0,-32318,0,0,0,4029,0,22088,0
20048,-144,-8290,490,-53,39,22,6075,3,-1,0,0,37377,288,25,79,0,0,0,0,0,0,0,0,-32317,0,0,0,4028,0,22108,0
20058,-172,-8272,494,-55,38,23,6075,8,2,2,0,37376,287,25,79,0,0,0,0,0,0,0,0,-32318,0,0,0,4029,0,22128,0
20068,-170,-8316,498,-54,37,12,6075,8,2,0,0,37374,284,25,79,0,0,0,0,0,0,0,0,-32318,0,0,0,4029,0,22148,0
20078,-170,-8278,490,-45,39,7,6075,10,3,0,0,37383,286,25,79,0,0,0,0,0,0,0,0,-32318,0,0,0,4029,0,22168,0
20088,-140,-8276,478,-45,38,8,6074,2,2,0,0,37382,284,25,79,0,0,0,0,0,0,0,0,-32317,0,0,0,4030,0,22188,0
20098,-156,-8316,504,-46,37,2,6074,0,1,0,0,37384,286,25,79,0,0,0,0,0,0,0,0,-32318,0,0,0,4029,0,22208,0
20108,-166,-8252,528,-44,38,-5,6076,6,3,0,0,37379,292,25,79,0,0,0,0,0,0,0,0,-32318,0,0,0,4029,0,22228,0
20118,-168,-8282,536,-43,38,-3,6074,-3,0,0,0,37374,290,25,79,0,0,0,0,0,0,0,0,-32318,0,0,0,4030,0,22248,0
20128,-138,-8300,540,-50,41,-4,6074,5,2,1,0,37374,297,25,79,0,0,0,0,0,0,0,0,-32318,0,0,0,4028,0,22268,0
20138,-90,-8308,540,-56,49,-4,6074,-5,0,0,0,37375,296,25,79,0,0,0,0,0,0,0,0,-32318,0,0,0,4028,0,22288,0
20148,-94,-8258,542,-51,43,8,6072,-5,-4,0,0,37377,289,25,79,0,0,0,0,0,0,0,0,-32318,0,0,0,4028,0,22308,0
20158,-108,-8286,524,-57,39,8,6075,-2,5,3,0,37374,278,25,79,0,0,0,0,0,0,0,0,-32318,0,0,0,4028,0,22328,0
20168,-90,-8280,524,-59,32,20,6074,-2,-3,0,0,37370,276,25,79,0,0,0,0,0,0,0,0,-32318,0,0,0,4028,0,22348,0
20178,-102,-8276,512,-61,47,20,6075,-1,-1,0,0,37377,279,25,79,0,0,0,0,0,0,0,0,-32318,0,0,0,4028,0,22368,0
20188,-102,-8286,496,-58,34,21,6075,5,-5,0,0,37380,283,25,79,0,0,0,0,0,0,0,0,-32318,0,0,0,4028,0,22388,0
20198,-116,-8326,466,-62,40,20,6075,3,-11,0,0,37381,277,25,79,0,0,0,0,0,0,0,0,-32318,0,0,0,4029,0,22409,0
20208,-148,-8274,486,-60,39,17,6073,-15,3,1,0,37374,278,25,79,0,0,0,0,0,0,0,0,-32318,0,0,0,4029,0,22429,0
20218,-152,-8300,500,-56,39,18,6075,8,3,0,0,37371,277,25,79,0,0,0,0,0,0,0,0,-32318,0,0,0,4028,0,22449,0
20228,-130,-8272,466,-54,45,14,6074,-1,7,0,0,37372,284,25,79,0,0,0,0,0,0,0,0,-32318,0,0,0,4028,0,22469,0
20238,-136,-8280,480,-53,37,15,6076,0,1,1,0,37374,284,25,79,0,0,0,0,0,0,0,0,-32318,0,0,0,4028,0,22489,0
20248,-120,-8292,456,-46,39,14,6075,-5,-2,0,0,37376,287,25,79,0,0,0,0,0,0,0,0,-32318,0,0,0,4028,0,22509,0
20258,-146,-8320,520,-44,38,10,6075,7,-1,1,0,37374,286,25,79,0,0,0,0,0,0,0,0,-32317,0,0,0,4028,0,22529,0
20268,-160,-8268,536,-44,37,16,6075,-11,1,0,0,37375,287,25,79,0,0,0,0,0,0,0,0,-32318,0,0,0,4029,0,22549,0
20278,-140,-8280,552,-47,43,15,6074,-1,8,1,0,37375,284,25,79,0,0,0,0,0,0,0,0,-32318,0,0,0,4028,0,22569,0
20288,-114,-8338,556,-61,45,11,6073,-2,0,0,0,37381,286,25,79,0,0,0,0,0,0,0,0,-32317,0,0,0,4028,0,22589,0
20298,-124,-8304,564,-55,40,16,6074,0,1,-1,0,37382,279,25,79,0,0,0,0,0,0,0,0,-32318,0,0,0,4029,0,22610,0
20308,-142,-8326,526,-58,43,17,6074,-4,-1,0,0,37381,270,25,79,0,0,0,0,0,0,0,0,-32317,0,0,0,4028,0,22630,0
20318,-124,-8322,508,-62,35,18,6075,-3,-8,0,0,37380,266,25,79,0,0,0,0,0,0,0,0,-32318,0,0,0,4029,0,22650,0
20328,-126,-8258,502,-64,41,17,6074,0,-1,3,0,37379,270,25,79,0,0,0,0,0,0,0,0,-32317,0,0,0,4028,0,22670,0
20338,-108,-8302,476,-56,42,17,6074,4,7,0,0,37378,278,25,79,0,0,0,0,0,0,0,0,-32318,0,0,0,4028,0,22690,0
20348,-100,-8266,488,-54,39,23,6075,5,0,0,0,37376,280,25,79,0,0,0,0,0,0,0,0,-32317,0,0,0,4028,0,22710,0
20358,-110,-8280,482,-52,38,22,6074,1,2,2,0,37372,284,25,79,0,0,0,0,0,0,0,0,-32318,0,0,0,4028,0,22730,0
20368,-124,-8284,518,-53,38,30,6074,-6,-7,1,0,37371,284,25,79,0,0,0,0,0,0,0,0,-32318,0,0,0,4028,0,22750,0
20378,-134,-8290,500,-48,40,25,6075,5,3,0,0,37370,282,25,79,0,0,0,0,0,0,0,0,-32318,0,0,0,4028,0,22770,0
20388,-144,-8282,498,-50,41,20,6075,2,1,0,0,37368,283,25,79,0,0,0,0,0,0,0,0,-32318,0,0,0,4028,0,22790,0
20398,-156,-8302,510,-55,42,21,6074,-10,1,-2,0,37372,279,25,79,0,0,0,0,0,0,0,0,-32317,0,0,0,4029,0,22810,0
20408,-106,-8276,532,-49,45,22,6075,0,-1,4,0,37371,282,25,79,0,0,0,0,0,0,0,0,-32318,0,0,0,4029,0,22830,0
20418,-132,-8284,540,-56,44,21,6074,4,-1,0,0,37370,274,25,79,0,0,0,0,0,0,0,0,-32318,0,0,0,4029,0,22850,0
20428,-116,-8248,520,-58,38,25,6074,-5,-2,2,0,37366,281,25,79,0,0,0,0,0,0,0,0,-32318,0,0,0,4028,0,22870,0
20438,-114,-8314,514,-57,44,30,6074,-3,2,0,0,37367,288,25,79,0,0,0,0,0,0,0,0,-32318,0,0,0,4029,0,22890,0
20448,-112,-8278,516,-57,38,33,6072,-12,2,0,0,37371,287,25,79,0,0,0,0,0,0,0,0,-32317,0,0,0,4029,0,22910,0
20458,-122,-8290,504,-54,38,30,6073,-5,4,3,0,37369,286,25,79,0,0,0,0,0,0,0,0,-32318,0,0,0,4029,0,22930,0
20468,-164,-8268,492,-54,36,25,6074,-7,0,0,0,37370,283,25,79,0,0,0,0,0,0,0,0,-32318,0,0,0,4029,0,22950,0
20478,-174,-8308,484,-58,42,25,6076,2,1,0,0,37371,282,25,79,0,0,0,0,0,0,0,0,-32318,0,0,0,4030,0,22970,0
20488,-160,-8282,498,-54,45,21,6074,0,0,0,0,37370,286,25,79,0,0,0,0,0,0,0,0,-32318,0,0,0,4030,0,22990,0
20498,-166,-8294,508,-47,43,19,6074,0,3,0,0,37377,284,25,79,0,0,0,0,0,0,0,0,-32318,0,0,0,4030,0,23010,0
20508,-156,-8260,526,-52,43,15,6073,0,1,3,0,37378,285,25,79,0,0,0,0,0,0,0,0,-32318,0,0,0,4029,0,23030,0
20518,-96,-8304,558,-57,46,13,6075,7,3,1,0,37379,282,25,79,0,0,0,0,0,0,0,0,-32318,0,0,0,4029,0,23050,0
20528,-102,-8302,488,-62,39,18,6074,-1,1,0,0,37372,280,25,79,0,0,0,0,0,0,0,0,-32318,0,0,0,4030,0,23070,0
20538,-146,-8300,458,-60,34,17,6074,-5,-5,0,0,37373,281,25,79,0,0,0,0,0,0,0,0,-32317,0,0,0,4029,0,23090,0
20548,-174,-8296,430,-49,34,12,6075,1,1,0,0,37373,282,25,79,0,0,0,0,0,0,0,0,-32318,0,0,0,4029,0,23110,0
20558,-144,-8278,476,-49,44,11,6076,7,3,1,0,37374,290,25,79,0,0,0,0,0,0,0,0,-32317,0,0,0,4030,0,23130,0
20568,-128,-8284,514,-45,41,7,6074,2,0,0,0,37375,285,25,79,0,0,0,0,0,0,0,0,-32318,0,0,0,4029,0,23150,0
20578,-148,-8286,524,-47,36,7,6074,-1,-2,0,0,37376,284,25,79,0,0,0,0,0,0,0,0,-32318,0,0,0,4030,0,23170,0
20588,-152,-8272,510,-50,38,5,6075,-2,-2,0,0,37377,283,25,79,0,0,0,0,0,0,0,0,-32318,0,0,0,4030,0,23190,0
20598,-126,-8292,522,-48,41,5,6074,-7,3,0,0,37383,295,25,79,0,0,0,0,0,0,0,0,-32317,0,0,0,4028,0,23210,0
20608,-98,-8282,532,-49,36,9,6074,0,-2,1,0,37383,300,25,79,0,0,0,0,0,0,0,0,-32318,0,0,0,4029,0,23230,0
20618,-112,-8318,546,-52,37,10,6075,-1,4,1,0,37380,292,25,79,0,0,0,0,0,0,0,0,-32318,0,0,0,4029,0,23250,0
20628,-112,-8296,490,-51,43,12,6074,4,3,1,0,37379,293,25,79,0,0,0,0,0,0,0,0,-32318,0,0,0,4030,0,23270,0
20638,-110,-8282,518,-51,36,12,6075,1,-4,0,0,37379,284,25,79,0,0,0,0,0,0,0,0,-32318,0,0,0,4029,0,23290,0
20648,-138,-8306,504,-54,43,13,6074,3,2,-1,0,37380,284,25,79,0,0,0,0,0,0,0,0,-32318,0,0,0,4029,0,23310,0
20658,-140,-8296,488,-52,47,11,6075,0,-3,3,0,37377,283,25,79,0,0,0,0,0,0,0,0,-32317,0,0,0,4030,0,23330,0
20668,-144,-8260,476,-55,34,9,6075,0,1,0,0,37374,286,25,79,0,0,0,0,0,0,0,0,-32318,0,0,0,4028,0,23350,0
20678,-136,-8260,498,-52,45,12,6075,-1,-1,0,0,37376,287,25,79,0,0,0,0,0,0,0,0,-32318,0,0,0,4029,0,23370,0
20688,-132,-8282,516,-51,39,12,6074,-1,5,2,0,37379,286,25,79,0,0,0,0,0,0,0,0,-32318,0,0,0,4030,0,23390,0
20698,-128,-8270,524,-49,38,13,6075,6,-6,0,0,37379,288,25,79,0,0,0,0,0,0,0,0,-32318,0,0,0,4028,0,23410,0
20708,-144,-8272,500,-53,37,17,6075,2,0,0,0,37384,286,25,79,0,0,0,0,0,0,0,0,-32318,0,0,0,4029,0,23430,0
20718,-160,-8290,498,-51,41,11,6075,2,-3,0,0,37383,276,25,79,0,0,0,0,0,0,0,0,-32318,0,0,0,4029,0,23450,0
20728,-142,-8286,506,-52,40,6,6074,4,-2,0,0,37384,279,25,79,0,0,0,0,0,0,0,0,-32318,0,0,0,4028,0,23470,0
20738,-124,-8280,516,-46,41,5,6074,-9,-4,2,0,37380,284,25,79,0,0,0,0,0,0,0,0,-32317,0,0,0,4029,0,23490,0
20748,-122,-8266,520,-47,42,11,6073,-6,-5,0,0,37380,290,25,79,0,0,0,0,0,0,0,0,-32318,0,0,0,4028,0,23510,0
20758,-112,-8270,518,-44,34,5,6074,-3,0,0,0,37379,285,25,79,0,0,0,0,0,0,0,0,-32317,0,0,0,4028,0,23530,0
20768,-132,-8278,510,-52,40,11,6075,-3,-6,0,0,37383,283,25,79,0,0,0,0,0,0,0,0,-32318,0,0,0,4029,0,23550,0
20778,-124,-8302,492,-47,38,14,6074,-3,2,0,0,37384,287,25,79,0,0,0,0,0,0,0,0,-32318,0,0,0,4028,0,23570,0
20788,-128,-8272,504,-49,38,10,6075,0,-2,1,0,37386,287,25,79,0,0,0,0,0,0,0,0,-32318,0,0,0,4028,0,23590,0
20798,-142,-8312,516,-47,39,11,6075,5,2,1,0,37382,282,25,79,0,0,0,0,0,0,0,0,-32318,0,0,0,4029,0,23610,0
20808,-118,-8284,516,-51,34,12,6076,0,-1,0,0,37387,277,25,79,0,0,0,0,0,0,0,0,-32318,0,0,0,4028,0,23630,0
20818,-122,-8296,512,-57,38,12,6074,-2,1,0,0,37387,280,25,79,0,0,0,0,0,0,0,0,-32318,0,0,0,4030,0,23650,0
20828,-122,-8284,504,-51,38,14,6074,-1,1,1,0,37388,284,25,79,0,0,0,0,0,0,0,0,-32318,0,0,0,4028,0,23670,0
20838,-138,-8272,502,-55,40,15,6074,0,-3,1,0,37382,282,25,79,0,0,0,0,0,0,0,0,-32318,0,0,0,4028,0,23690,0
20848,-118,-8264,500,-50,33,18,6074,0,-1,0,0,37381,285,25,79,0,0,0,0,0,0,0,0,-32318,0,0,0,4028,0,23710,0
20858,-116,-8260,502,-51,34,19,6074,0,0,3,0,37384,291,25,79,0,0,0,0,0,0,0,0,-32318,0,0,0,4029,0,23730,0
20868,-158,-8280,510,-51,41,15,6075,0,0,1,0,37386,289,25,79,0,0,0,0,0,0,0,0,-32318,0,0,0,4028,0,23750,0
20878,-134,-8258,520,-46,44,16,6075,0,5,0,0,37385,276,25,79,0,0,0,0,0,0,0,0,-32318,0,0,0,4029,0,23770,0
20888,-120,-8294,494,-51,41,14,6074,-6,-1,0,0,37387,272,25,79,0,0,0,0,0,0,0,0,-32318,0,0,0,4028,0,23790,0
20898,-126,-8294,460,-49,38,20,6075,-2,-1,0,0,37390,277,25,79,0,0,0,0,0,0,0,0,-32317,0,0,0,4029,0,23810,0
20908,-144,-8284,518,-49,41,15,6074,1,-1,0,0,37392,286,25,79,0,0,0,0,0,0,0,0,-32317,0,0,0,4028,0,23830,0
20918,-126,-8302,502,-45,41,12,6074,-4,-2,0,0,37401,286,25,79,0,0,0,0,0,0,0,0,-32317,0,0,0,4028,0,23850,0
20928,-150,-8292,540,-52,40,17,6075,-1,0,0,0,37409,297,25,79,0,0,0,0,0,0,0,0,-32318,0,0,0,4028,0,23870,0
20938,-138,-8280,534,-51,43,18,6074,5,-3,2,0,37421,298,25,79,0,0,0,0,0,0,0,0,-32317,0,0,0,4028,0,23890,0
20948,-112,-8266,512,-56,39,15,6074,4,2,0,0,37414,300,25,79,0,0,0,0,0,0,0,0,-32317,0,0,0,4028,0,23910,0
20958,-110,-8316,530,-59,37,18,6074,-1,-5,1,0,37402,288,25,79,0,0,0,0,0,0,0,0,-32318,0,0,0,4028,0,23930,0
20968,-120,-8288,504,-53,41,23,6073,-2,-3,0,0,37384,288,25,79,0,0,0,0,0,0,0,0,-32318,0,0,0,4029,0,23950,0
20978,-146,-8286,490,-53,41,22,6073,-3,-4,0,0,37378,286,25,79,0,0,0,0,0,0,0,0,-32318,0,0,0,4029,0,23970,0
20988,-148,-8276,494,-54,38,20,6072,-8,-7,1,0,37377,282,25,79,0,0,0,0,0,0,0,0,-32318,0,0,0,4029,0,23990,0
20998,-150,-8294,478,-55,44,19,6075,7,2,0,0,37376,276,25,79,0,0,0,0,0,0,0,0,-32318,0,0,0,4029,0,24010,0
21008,-138,-8296,472,-44,38,18,6074,-6,-4,0,0,37377,277,25,79,0,0,0,0,0,0,0,0,-32319,0,0,0,4028,0,24030,0
21018,-164,-8296,496,-47,39,18,6075,0,-1,0,0,37376,281,25,79,0,0,0,0,0,0,0,0,-32318,0,0,0,4029,0,24050,0
21028,-142,-8300,508,-43,36,20,6076,7,6,0,0,37380,288,25,79,0,0,0,0,0,0,0,0,-32318,0,0,0,4028,0,24070,0
21038,-132,-8278,520,-47,44,15,6074,-4,0,1,0,37382,295,25,79,0,0,0,0,0,0,0,0,-32318,0,0,0,4029,0,24090,0
21048,-146,-8288,542,-51,41,13,6074,0,-8,0,0,37383,293,25,79,0,0,0,0,0,0,0,0,-32318,0,0,0,4030,0,24110,0
21058,-138,-8274,534,-50,47,14,6075,2,8,0,0,37380,291,25,79,0,0,0,0,0,0,0,0,-32318,0,0,0,4029,0,24130,0
21068,-120,-8264,512,-50,42,17,6076,7,2,1,0,37377,283,25,79,0,0,0,0,0,0,0,0,-32318,0,0,0,4030,0,24150,0
21078,-98,-8302,512,-52,44,13,6074,-3,-1,0,0,37377,291,25,79,0,0,0,0,0,0,0,0,-32318,0,0,0,4029,0,24170,0
21088,-130,-8272,486,-49,37,20,6073,-6,-4,0,0,37378,288,25,79,0,0,0,0,0,0,0,0,-32318,0,0,0,4030,0,24190,0
21098,-130,-8266,512,-50,43,19,6074,4,-2,0,0,37379,287,25,79,0,0,0,0,0,0,0,0,-32318,0,0,0,4030,0,24210,0
21108,-110,-8290,544,-47,36,17,6075,7,4,2,0,37378,282,25,79,0,0,0,0,0,0,0,0,-32318,0,0,0,4029,0,24230,0
21118,-164,-8282,518,-49,37,20,6074,0,2,1,0,37377,279,25,79,0,0,0,0,0,0,0,0,-32318,0,0,0,4029,0,24250,0
21128,-144,-8278,498,-47,37,16,6073,-11,-4,0,0,37376,286,25,79,0,0,0,0,0,0,0,0,-32318,0,0,0,4028,0,24270,0
21138,-178,-8298,502,-51,40,12,6076,3,1,3,0,37380,284,25,79,0,0,0,0,0,0,0,0,-32318,0,0,0,4029,0,24290,0
21148,-148,-8304,512,-49,44,6,6073,2,-4,0,0,37380,282,25,79,0,0,0,0,0,0,0,0,-32318,0,0,0,4029,0,24310,0
21158,-124,-8262,516,-46,42,8,6075,-1,8,0,0,37379,275,25,79,0,0,0,0,0,0,0,0,-32318,0,0,0,4029,0,24330,0
21168,-126,-8276,510,-55,42,11,6074,3,-5,0,0,37375,283,25,79,0,0,0,0,0,0,0,0,-32318,0,0,0,4029,0,24350,0
21178,-100,-8272,526,-53,35,13,6074,-6,1,-1,0,37373,286,25,79,0,0,0,0,0,0,0,0,-32318,0,0,0,4029,0,24370,0
21188,-116,-8302,510,-56,41,17,6074,3,1,1,0,37374,290,25,79,0,0,0,0,0,0,0,0,-32318,0,0,0,4028,0,24390,0
21198,-148,-8294,504,-53,38,17,6075,2,-1,0,0,37376,286,25,79,0,0,0,0,0,0,0,0,-32318,0,0,0,4030,0,24411,0
21208,-132,-8298,496,-51,39,17,6074,-1,-4,0,0,37376,283,25,79,0,0,0,0,0,0,0,0,-32318,0,0,0,4029,0,24431,0
21218,-110,-8302,528,-54,41,9,6074,-2,-1,2,0,37374,278,25,79,0,0,0,0,0,0,0,0,-32318,0,0,0,4028,0,24451,0
21228,-118,-8278,492,-49,43,14,6074,0,-3,0,0,37373,280,25,79,0,0,0,0,0,0,0,0,-32318,0,0,0,4028,0,24471,0
21238,-132,-8294,500,-51,43,16,6074,0,-2,3,0,37382,289,25,79,0,0,0,0,0,0,0,0,-32318,0,0,0,4029,0,24491,0
21248,-136,-8288,540,-53,42,15,6074,0,1,1,0,37382,290,25,79,0,0,0,0,0,0,0,0,-32318,0,0,0,4029,0,24511,0
21258,-150,-8292,524,-52,42,17,6074,-6,-2,1,0,37378,291,25,79,0,0,0,0,0,0,0,0,-32318,0,0,0,4029,0,24531,0
21268,-148,-8302,522,-53,40,18,6074,-2,-3,-1,0,37373,286,25,79,0,0,0,0,0,0,0,0,-32318,0,0,0,4029,0,24551,0
21278,-158,-8262,518,-54,40,9,6075,0,-1,0,0,37370,287,25,79,0,0,0,0,0,0,0,0,-32318,0,0,0,4029,0,24571,0
21288,-170,-8316,524,-54,38,8,6074,0,-2,0,0,37373,286,25,79,0,0,0,0,0,0,0,0,-32318,0,0,0,4029,0,24591,0
21298,-130,-8280,558,-54,47,9,6075,-2,0,-1,0,37371,281,25,79,0,0,0,0,0,0,0,0,-32318,0,0,0,4028,0,24612,0
21308,-88,-8272,524,-56,44,12,6074,0,1,0,0,37369,279,25,79,0,0,0,0,0,0,0,0,-32318,0,0,0,4028,0,24632,0
21318,-94,-8294,498,-64,37,13,6075,4,3,1,0,37368,281,25,79,0,0,0,0,0,0,0,0,-32318,0,0,0,4028,0,24652,0
21328,-92,-8278,476,-58,37,19,6073,0,-3,0,0,37370,285,25,79,0,0,0,0,0,0,0,0,-32318,0,0,0,4029,0,24672,0
21338,-96,-8276,476,-56,39,21,6075,0,1,0,0,37373,285,25,79,0,0,0,0,0,0,0,0,-32318,0,0,0,4028,0,24692,0
21348,-138,-8286,502,-53,40,19,6075,4,3,2,0,37379,287,25,79,0,0,0,0,0,0,0,0,-32318,0,0,0,4028,0,24712,0
21358,-146,-8294,530,-54,41,19,6075,6,-5,0,0,37377,287,25,79,0,0,0,0,0,0,0,0,-32317,0,0,0,4028,0,24732,0
21368,-122,-8292,518,-58,37,21,6074,0,0,2,0,37376,284,25,79,0,0,0,0,0,0,0,0,-32317,0,0,0,4028,0,24752,0
21378,-122,-8294,518,-60,36,26,6074,-2,-2,0,0,37369,285,25,79,0,0,0,0,0,0,0,0,-32318,0,0,0,4028,0,24772,0
21388,-134,-8290,526,-59,41,24,6074,-1,-7,3,0,37368,289,25,79,0,0,0,0,0,0,0,0,-32318,0,0,0,4029,0,24792,0
21398,-136,-8312,512,-59,40,19,6074,-2,2,0,0,37368,292,25,79,0,0,0,0,0,0,0,0,-32318,0,0,0,4029,0,24812,0
21408,-142,-8272,534,-52,45,21,6074,-5,2,0,0,37369,292,25,79,0,0,0,0,0,0,0,0,-32317,0,0,0,4029,0,24832,0
21418,-136,-8290,530,-65,45,16,6075,-2,0,0,0,37369,289,25,79,0,0,0,0,0,0,0,0,-32317,0,0,0,4029,0,24852,0
21428,-124,-8292,518,-61,42,22,6075,3,1,0,0,37372,284,25,79,0,0,0,0,0,0,0,0,-32317,0,0,0,4029,0,24872,0
21438,-130,-8296,514,-59,44,23,6074,0,-1,0,0,37371,284,25,79,0,0,0,0,0,0,0,0,-32318,0,0,0,4030,0,24892,0
21448,-128,-8288,500,-60,42,22,6075,-2,-6,-1,0,37372,289,25,79,0,0,0,0,0,0,0,0,-32317,0,0,0,4029,0,24912,0
21458,-132,-8278,490,-59,41,25,6075,7,3,0,0,37374,281,25,79,0,0,0,0,0,0,0,0,-32317,0,0,0,4029,0,24932,0
21468,-126,-8252,494,-59,41,32,6074,-5,-4,1,0,37376,272,25,79,0,0,0,0,0,0,0,0,-32318,0,0,0,4030,0,24952,0
21478,-148,-8274,510,-57,38,27,6074,-2,5,0,0,37378,276,25,79,0,0,0,0,0,0,0,0,-32317,0,0,0,4029,0,24972,0
21488,-162,-8294,516,-52,41,19,6074,0,4,0,0,37377,277,25,79,0,0,0,0,0,0,0,0,-32318,0,0,0,4029,0,24992,0
21498,-190,-8266,504,-50,42,22,6073,-9,-3,1,0,37378,284,25,79,0,0,0,0,0,0,0,0,-32318,0,0,0,4029,0,25012,0
21508,-182,-8296,462,-59,41,16,6075,3,-2,0,0,37378,283,25,79,0,0,0,0,0,0,0,0,-32317,0,0,0,4030,0,25032,0
21518,-154,-8290,462,-56,34,11,6075,-3,-1,2,0,37378,282,25,79,0,0,0,0,0,0,0,0,-32318,0,0,0,4029,0,25052,0
21528,-142,-8264,482,-53,42,11,6075,-2,0,1,0,37379,288,25,79,0,0,0,0,0,0,0,0,-32318,0,0,0,4031,0,25072,0
21538,-128,-8314,482,-50,41,8,6074,-1,-1,0,0,37377,288,25,79,0,0,0,0,0,0,0,0,-32318,0,0,0,4030,0,25092,0
21548,-154,-8300,488,-47,32,9,6075,3,-1,0,0,37376,292,25,79,0,0,0,0,0,0,0,0,-32318,0,0,0,4030,0,25112,0
21558,-150,-8274,536,-45,33,8,6073,1,5,2,0,37380,298,25,79,0,0,0,0,0,0,0,0,-32318,0,0,0,4029,0,25132,0
21568,-118,-8322,524,-46,43,11,6074,3,-3,0,0,37380,300,25,79,0,0,0,0,0,0,0,0,-32318,0,0,0,4030,0,25152,0
21578,-116,-8290,514,-55,38,14,6074,1,-1,0,0,37380,294,25,79,0,0,0,0,0,0,0,0,-32317,0,0,0,4029,0,25172,0
21588,-100,-8284,516,-50,44,13,6073,-9,-5,0,0,37376,292,25,79,0,0,0,0,0,0,0,0,-32317,0,0,0,4029,0,25192,0
21598,-88,-8298,534,-52,44,18,6073,-8,3,1,0,37376,282,25,79,0,0,0,0,0,0,0,0,-32318,0,0,0,4030,0,25212,0
21608,-110,-8298,532,-61,46,21,6076,3,1,1,0,37378,287,25,79,0,0,0,0,0,0,0,0,-32317,0,0,0,4030,0,25232,0
21618,-130,-8284,528,-55,44,28,6075,-2,-1,2,0,37375,279,25,79,0,0,0,0,0,0,0,0,-32317,0,0,0,4030,0,25254,0
21628,-106,-8294,512,-62,40,27,6074,1,-2,0,0,37374,276,25,79,0,0,0,0,0,0,0,0,-32318,0,0,0,4029,0,25274,0
21638,-150,-8282,520,-60,40,27,6074,-3,1,1,0,37377,275,25,79,0,0,0,0,0,0,0,0,-32318,0,0,0,4029,0,25294,0
21648,-142,-8256,506,-64,44,27,6073,-7,0,1,0,37381,276,25,79,0,0,0,0,0,0,0,0,-32317,0,0,0,4030,0,25314,0
21658,-172,-8288,470,-54,48,19,6074,-2,1,1,0,37382,278,25,79,0,0,0,0,0,0,0,0,-32317,0,0,0,4030,0,25334,0
21668,-178,-8278,456,-52,48,17,6075,7,2,3,0,37385,280,25,79,0,0,0,0,0,0,0,0,-32318,0,0,0,4030,0,25354,0
21678,-158,-8284,472,-50,41,13,6074,0,3,1,0,37383,279,25,79,0,0,0,0,0,0,0,0,-32318,0,0,0,4030,0,25374,0
21688,-148,-8294,470,-47,45,10,6074,-2,-2,0,0,37386,281,25,79,0,0,0,0,0,0,0,0,-32317,0,0,0,4030,0,25394,0
21698,-150,-8286,504,-44,38,10,6074,-8,-2,0,0,37381,285,25,79,0,0,0,0,0,0,0,0,-32318,0,0,0,4031,0,25414,0
21708,-154,-8274,524,-47,40,11,6074,5,0,0,0,37380,288,25,79,0,0,0,0,0,0,0,0,-32318,0,0,0,4030,0,25434,0
21718,-146,-8268,500,-49,41,8,6075,0,-7,0,0,37379,293,25,79,0,0,0,0,0,0,0,0,-32318,0,0,0,4030,0,25454,0
21728,-112,-8280,524,-55,38,11,6073,1,4,0,0,37380,293,25,79,0,0,0,0,0,0,0,0,-32317,0,0,0,4030,0,25474,0
21738,-114,-8290,534,-52,45,14,6074,-6,-2,0,0,37381,291,25,79,0,0,0,0,0,0,0,0,-32318,0,0,0,4030,0,25494,0
21748,-122,-8314,520,-54,46,17,6075,0,2,1,0,37380,284,25,79,0,0,0,0,0,0,0,0,-32318,0,0,0,4030,0,25514,0
21758,-128,-8298,502,-60,40,19,6074,-1,1,1,0,37378,282,25,79,0,0,0,0,0,0,0,0,-32317,0,0,0,4030,0,25534,0
21768,-126,-8278,490,-53,40,14,6075,-3,1,0,0,37382,281,25,79,0,0,0,0,0,0,0,0,-32318,0,0,0,4030,0,25554,0
21778,-136,-8304,474,-54,38,17,6075,8,3,0,0,37385,278,25,79,0,0,0,0,0,0,0,0,-32318,0,0,0,4032,0,25574,0
21788,-152,-8268,464,-49,37,14,6073,0,2,0,0,37385,278,25,79,0,0,0,0,0,0,0,0,-32318,0,0,0,4030,0,25594,0
21798,-164,-8290,492,-51,39,15,6074,0,3,1,0,37381,273,25,79,0,0,0,0,0,0,0,0,-32318,0,0,0,4030,0,25614,0
21808,-196,-8272,522,-51,36,11,6073,-5,4,1,0,37381,277,25,79,0,0,0,0,0,0,0,0,-32318,0,0,0,4029,0,25634,0
21818,-142,-8282,528,-49,37,1,6074,-1,-1,0,0,37383,279,25,79,0,0,0,0,0,0,0,0,-32318,0,0,0,4029,0,25654,0
21828,-98,-8286,530,-53,39,8,6074,0,5,0,0,37384,283,25,79,0,0,0,0,0,0,0,0,-32317,0,0,0,4029,0,25674,0
21838,-84,-8252,514,-53,45,13,6074,-1,3,0,0,37385,284,25,79,0,0,0,0,0,0,0,0,-32318,0,0,0,4029,0,25694,0
21848,-72,-8302,482,-54,41,19,6074,1,-7,2,0,37386,284,25,79,0,0,0,0,0,0,0,0,-32318,0,0,0,4029,0,25714,0
21858,-76,-8324,480,-56,38,27,6073,-9,-2,1,0,37387,288,25,79,0,0,0,0,0,0,0,0,-32318,0,0,0,4029,0,25734,0
21868,-128,-8274,490,-50,40,33,6072,-9,-6,0,0,37392,286,25,79,0,0,0,0,0,0,0,0,-32318,0,0,0,4029,0,25754,0
21878,-158,-8278,488,-52,41,26,6074,1,-3,0,0,37391,289,25,79,0,0,0,0,0,0,0,0,-32317,0,0,0,4030,0,25774,0
21888,-154,-8294,490,-51,37,25,6076,5,7,0,0,37389,288,25,79,0,0,0,0,0,0,0,0,-32318,0,0,0,4031,0,25794,0
21898,-174,-8264,502,-54,36,29,6075,3,4,1,0,37384,291,25,79,0,0,0,0,0,0,0,0,-32318,0,0,0,4031,0,25814,0
21908,-156,-8304,504,-50,31,26,6075,-1,2,0,0,37385,294,25,79,0,0,0,0,0,0,0,0,-32318,0,0,0,4030,0,25834,0
21918,-138,-8266,494,-50,40,20,6075,-6,0,0,0,37384,289,25,79,0,0,0,0,0,0,0,0,-32318,0,0,0,4031,0,25854,0
21928,-140,-8278,518,-50,39,24,6074,2,-8,1,0,37382,284,25,79,0,0,0,0,0,0,0,0,-32318,0,0,0,4031,0,25874,0
21938,-150,-8300,502,-51,39,24,6074,-9,1,0,0,37382,281,25,79,0,0,0,0,0,0,0,0,-32317,0,0,0,4031,0,25894,0
21948,-136,-8302,520,-53,36,23,6073,1,-2,1,0,37380,275,25,79,0,0,0,0,0,0,0,0,-32317,0,0,0,4031,0,25914,0
21958,-138,-8272,514,-55,41,26,6075,10,4,0,0,37381,275,25,79,0,0,0,0,0,0,0,0,-32319,0,0,0,4033,0,25934,0
21968,-124,-8312,532,-55,41,28,6075,-1,1,-1,0,37383,280,25,79,0,0,0,0,0,0,0,0,-32318,0,0,0,4032,0,25954,0
21978,-114,-8292,520,-56,37,23,6074,1,-3,0,0,37388,275,25,79,0,0,0,0,0,0,0,0,-32317,0,0,0,4033,0,25974,0
21988,-158,-8286,494,-59,43,23,6074,-7,2,0,0,37386,282,25,79,0,0,0,0,0,0,0,0,-32318,0,0,0,4032,0,25994,0
21998,-140,-8320,504,-58,43,27,6074,0,-3,0,0,37386,277,25,79,0,0,0,0,0,0,0,0,-32318,0,0,0,4032,0,26014,0
22008,-156,-8326,484,-59,37,25,6072,-4,-10,0,0,37379,285,25,79,0,0,0,0,0,0,0,0,-32317,0,0,0,4033,0,26034,0
22018,-184,-8282,474,-60,40,21,6076,-1,5,0,0,37379,287,25,79,0,0,0,0,0,0,0,0,-32317,0,0,0,4031,0,26054,0
22028,-164,-8290,474,-56,43,23,6074,1,-1,2,0,37378,289,25,79,0,0,0,0,0,0,0,0,-32318,0,0,0,4033,0,26074,0
22038,-144,-8294,498,-52,43,19,6075,3,3,1,0,37377,276,25,79,0,0,0,0,0,0,0,0,-32318,0,0,0,4033,0,26094,0
22048,-108,-8270,482,-53,40,22,6076,10,4,1,0,37377,278,25,79,0,0,0,0,0,0,0,0,-32317,0,0,0,4032,0,26114,0
22058,-152,-8304,488,-54,40,15,6074,2,2,2,0,37381,281,25,79,0,0,0,0,0,0,0,0,-32317,0,0,0,4033,0,26134,0
22068,-148,-8288,498,-55,44,17,6073,-4,-2,0,0,37385,275,25,79,0,0,0,0,0,0,0,0,-32317,0,0,0,4033,0,26154,0
22078,-174,-8274,490,-55,36,15,6076,4,3,0,0,37388,283,25,79,0,0,0,0,0,0,0,0,-32318,0,0,0,4033,0,26175,0
22088,-144,-8306,466,-53,42,17,6074,0,-6,1,0,37389,288,25,79,0,0,0,0,0,0,0,0,-32318,0,0,0,4032,0,26195,0
22098,-144,-8286,468,-51,36,14,6075,-3,-1,1,0,37388,284,25,79,0,0,0,0,0,0,0,0,-32318,0,0,0,4033,0,26214,0
22108,-136,-8272,480,-46,36,15,6074,-2,1,0,0,37383,280,25,79,0,0,0,0,0,0,0,0,-32318,0,0,0,4033,0,26235,0
22118,-164,-8326,486,-47,44,6,6073,-12,1,1,0,37380,284,25,79,0,0,0,0,0,0,0,0,-32318,0,0,0,4033,0,26260,0
22128,-180,-8286,502,-44,39,7,6073,-8,-6,1,0,37377,292,25,79,0,0,0,0,0,0,0,0,-32318,0,0,0,4033,0,26280,0
22138,-180,-8272,508,-48,40,12,6075,3,-4,0,0,37375,292,25,79,0,0,0,0,0,0,0,0,-32318,0,0,0,4033,0,26300,0
22148,-182,-8316,512,-50,36,6,6075,9,2,0,0,37374,294,25,79,0,0,0,0,0,0,0,0,-32318,0,0,0,4033,0,26320,0
22158,-136,-8292,514,-50,41,8,6075,0,3,2,0,37375,289,25,79,0,0,0,0,0,0,0,0,-32318,0,0,0,4033,0,26340,0
22168,-122,-8288,500,-48,44,9,6074,-2,2,-1,0,37373,279,25,79,0,0,0,0,0,0,0,0,-32317,0,0,0,4033,0,26360,0
22178,-140,-8296,476,-53,35,9,6075,0,-6,2,0,37373,289,25,79,0,0,0,0,0,0,0,0,-32318,0,0,0,4032,0,26380,0
22188,-102,-8272,506,-53,37,12,6075,4,3,0,0,37374,291,25,79,0,0,0,0,0,0,0,0,-32318,0,0,0,4032,0,26400,0
22198,-134,-8272,504,-51,35,11,6075,-1,-4,2,0,37385,296,25,79,0,0,0,0,0,0,0,0,-32318,0,0,0,4032,0,26421,0
22208,-114,-8276,512,-53,41,16,6075,-2,0,0,0,37387,285,25,79,0,0,0,0,0,0,0,0,-32317,0,0,0,4032,0,26441,0
22218,-124,-8268,500,-54,38,16,6075,2,2,0,0,37387,283,25,79,0,0,0,0,0,0,0,0,-32318,0,0,0,4032,0,26461,0
22228,-110,-8276,498,-50,37,19,6074,-2,-5,2,0,37377,283,25,79,0,0,0,0,0,0,0,0,-32318,0,0,0,4031,0,26481,0
22238,-150,-8274,482,-55,39,19,6076,1,2,1,0,37373,284,25,79,0,0,0,0,0,0,0,0,-32318,0,0,0,4032,0,26501,0
22248,-170,-8268,490,-53,38,15,6075,0,-5,0,0,37373,284,25,79,0,0,0,0,0,0,0,0,-32318,0,0,0,4033,0,26521,0
22258,-174,-8298,478,-52,40,14,6074,-1,3,1,0,37371,278,25,79,0,0,0,0,0,0,0,0,-32318,0,0,0,4032,0,26541,0
22268,-166,-8266,496,-56,38,15,6073,2,0,0,0,37367,281,25,79,0,0,0,0,0,0,0,0,-32318,0,0,0,4032,0,26561,0
22278,-130,-8302,492,-51,38,5,6074,-2,-3,0,0,37374,279,25,79,0,0,0,0,0,0,0,0,-32318,0,0,0,4031,0,26581,0
22288,-130,-8280,504,-51,40,10,6075,-3,-3,0,0,37377,279,25,79,0,0,0,0,0,0,0,0,-32318,0,0,0,4033,0,26601,0
22298,-132,-8294,502,-50,40,16,6075,6,4,0,0,37379,279,25,79,0,0,0,0,0,0,0,0,-32318,0,0,0,4033,0,26622,0
22308,-134,-8310,508,-48,42,15,6075,0,-8,1,0,37372,282,25,79,0,0,0,0,0,0,0,0,-32318,0,0,0,4031,0,26642,0
22318,-158,-8304,504,-53,38,14,6075,-2,-5,0,0,37370,283,25,79,0,0,0,0,0,0,0,0,-32318,0,0,0,4031,0,26662,0
22328,-160,-8282,512,-52,35,19,6075,1,-3,1,0,37370,283,25,79,0,0,0,0,0,0,0,0,-32318,0,0,0,4033,0,26682,0
22338,-134,-8290,498,-51,38,14,6074,-2,2,1,0,37371,279,25,79,0,0,0,0,0,0,0,0,-32318,0,0,0,4032,0,26702,0
22348,-148,-8312,500,-52,41,14,6075,1,-3,0,0,37372,284,25,79,0,0,0,0,0,0,0,0,-32318,0,0,0,4032,0,26722,0
22358,-116,-8300,492,-56,43,18,6075,10,3,2,0,37371,290,25,79,0,0,0,0,0,0,0,0,-32318,0,0,0,4032,0,26742,0
22368,-130,-8304,470,-49,37,20,6074,0,-3,0,0,37369,280,25,79,0,0,0,0,0,0,0,0,-32317,0,0,0,4032,0,26762,0
22378,-144,-8274,458,-57,39,20,6074,0,-1,0,0,37368,274,25,79,0,0,0,0,0,0,0,0,-32317,0,0,0,4031,0,26782,0
22388,-158,-8288,466,-49,36,17,6073,-4,1,2,0,37372,280,25,79,0,0,0,0,0,0,0,0,-32318,0,0,0,4032,0,26802,0
22398,-156,-8292,460,-45,37,14,6075,3,-4,0,0,37372,289,25,79,0,0,0,0,0,0,0,0,-32318,0,0,0,4032,0,26822,0
22408,-142,-8284,508,-46,42,13,6075,-1,-1,2,0,37370,293,25,79,0,0,0,0,0,0,0,0,-32318,0,0,0,4032,0,26842,0
22418,-142,-8292,516,-51,38,10,6072,-5,-3,-1,0,37367,284,25,79,0,0,0,0,0,0,0,0,-32317,0,0,0,4033,0,26862,0
22428,-142,-8258,528,-50,42,11,6074,-6,-1,3,0,37370,277,25,79,0,0,0,0,0,0,0,0,-32318,0,0,0,4032,0,26882,0
22438,-142,-8292,518,-52,41,22,6074,-7,3,0,0,37370,272,25,79,0,0,0,0,0,0,0,0,-32318,0,0,0,4032,0,26902,0
22448,-108,-8288,496,-60,45,14,6075,9,3,1,0,37368,276,25,79,0,0,0,0,0,0,0,0,-32318,0,0,0,4032,0,26922,0
22458,-128,-8284,476,-60,40,22,6075,2,0,2,0,37366,277,25,79,0,0,0,0,0,0,0,0,-32318,0,0,0,4032,0,26942,0
22468,-158,-8336,500,-54,42,21,6074,-9,1,0,0,37366,278,25,79,0,0,0,0,0,0,0,0,-32318,0,0,0,4032,0,26962,0
22478,-146,-8268,472,-54,38,22,6074,0,-1,2,0,37370,280,25,79,0,0,0,0,0,0,0,0,-32317,0,0,0,4033,0,26982,0
22488,-142,-8300,482,-51,48,22,6074,-1,2,1,0,37377,286,25,79,0,0,0,0,0,0,0,0,-32318,0,0,0,4032,0,27002,0
22498,-146,-8294,464,-52,41,23,6075,7,3,0,0,37378,293,25,79,0,0,0,0,0,0,0,0,-32318,0,0,0,4033,0,27022,0
22508,-178,-8274,480,-48,33,18,6074,2,0,1,0,37377,288,25,79,0,0,0,0,0,0,0,0,-32317,0,0,0,4032,0,27042,0
22518,-200,-8294,456,-50,40,17,6073,-1,1,0,0,37378,282,25,79,0,0,0,0,0,0,0,0,-32317,0,0,0,4033,0,27062,0
22528,-192,-8290,462,-45,40,10,6074,-2,-5,0,0,37373,279,25,79,0,0,0,0,0,0,0,0,-32317,0,0,0,4033,0,27082,0
22538,-164,-8262,492,-43,40,7,6073,-10,2,1,0,37371,286,25,79,0,0,0,0,0,0,0,0,-32318,0,0,0,4033,0,27102,0
22548,-118,-8280,526,-42,39,9,6073,0,3,1,0,37370,287,25,79,0,0,0,0,0,0,0,0,-32317,0,0,0,4033,0,27122,0
22558,-132,-8292,532,-45,41,10,6074,3,2,1,0,37372,289,25,79,0,0,0,0,0,0,0,0,-32317,0,0,0,4032,0,27142,0
22568,-106,-8274,530,-50,40,14,6075,0,2,0,0,37374,289,25,79,0,0,0,0,0,0,0,0,-32317,0,0,0,4033,0,27162,0
22578,-132,-8284,530,-53,40,15,6074,3,6,1,0,37375,285,25,79,0,0,0,0,0,0,0,0,-32318,0,0,0,4032,0,27182,0
22588,380,-8256,472,-56,60,24,6036,-175,-58,-747,-768,37373,278,25,79,0,0,0,0,0,0,0,0,-32318,0,0,0,4033,0,27202,0
22598,-72,-8318,424,-50,57,39,5848,-511,-383,-900,-1768,37373,295,25,79,0,0,0,0,0,0,0,0,-32318,0,0,0,4033,0,27222,0
22608,-148,-8210,552,-42,47,29,5516,-827,-565,-1019,-2584,37366,319,25,79,0,0,0,0,0,0,0,0,-32317,0,0,0,4033,0,27242,0
22618,-306,-8248,576,-29,61,20,5051,-1096,-536,-1030,-3120,37356,354,25,79,0,0,0,0,0,0,0,0,-32318,0,0,0,4033,0,27262,0
22628,-154,-8288,382,-23,52,13,4485,-1307,-450,-1028,-3568,37339,367,25,79,0,0,0,0,0,0,0,0,-32317,0,0,0,4033,0,27282,0
22638,-138,-8288,494,-23,44,16,3840,-1472,-342,-1019,-3848,37330,384,25,79,0,0,0,0,0,0,0,0,-32317,0,0,0,4033,0,27302,0
22648,-152,-8232,532,-6,28,16,3116,-1649,-296,-1011,-4256,37325,398,25,79,0,0,0,0,0,0,0,0,-32317,0,0,0,4032,0,27322,0
22658,-162,-8248,502,2,20,18,2291,-1893,-347,-1027,-4808,37320,407,25,79,0,0,0,0,0,0,0,0,-32317,0,0,0,4032,0,27342,0
22668,-112,-8212,524,14,7,10,1354,-2137,-409,-1060,-5088,37308,414,25,79,0,0,0,0,0,0,0,0,-32318,0,0,0,4032,0,27362,0
22678,-116,-8242,526,-1,-8,5,319,-2328,-406,-1088,-5168,37299,433,25,79,0,0,0,0,0,0,0,0,-32318,0,0,0,4032,0,27382,0
22688,-134,-8278,558,-34,35,15,-748,-2333,-256,-972,-5352,37296,445,25,79,0,0,0,0,0,0,0,0,-32318,0,0,0,4032,0,27402,0
22698,-86,-8302,512,-41,24,15,-1774,-2232,20,-863,-5856,37299,448,25,79,0,0,0,0,0,0,0,0,-32318,0,0,0,4032,0,27422,0
22708,-208,-8264,536,-70,13,20,-2785,-2230,121,-934,-6096,37299,459,25,79,0,0,0,0,0,0,0,0,-32318,0,0,0,4032,0,27442,0
22718,-188,-8288,558,-77,20,16,-3843,-2368,-65,-1069,-6224,37291,470,25,79,0,0,0,0,0,0,0,0,-32319,0,0,0,4033,0,27462,0
22728,-222,-8290,502,-100,40,15,-4964,-2513,-208,-1042,-6384,37284,482,25,79,0,0,0,0,0,0,0,0,-32317,0,0,0,4032,0,27482,0
22738,-28,-8306,504,-90,43,13,-6182,-2770,-308,-1012,-6896,37276,477,25,79,0,0,0,0,0,0,0,0,-32318,0,0,0,4033,0,27502,0
22748,-112,-8294,470,-103,80,24,-7561,-3141,-491,-1084,-7408,37266,497,25,79,0,0,0,0,0,0,0,0,-32318,0,0,0,4032,0,27522,0
22758,-324,-8298,516,-91,102,14,-9045,-3266,-530,-982,-7696,37250,512,25,79,0,0,0,0,0,0,0,0,-32317,0,0,0,4033,0,27542,0
22768,22,-8176,662,-20,91,-40,-10481,-3124,-108,-786,-8304,37242,520,25,79,0,0,0,0,0,0,0,0,-32317,0,0,0,4032,0,27562,0
22778,-9820,-6496,4302,231,2842,-3345,-11789,-2643,325,-1282,-6120,37237,529,25,79,0,0,0,0,0,0,0,0,-32318,0,0,0,3974,-12,27582,0
22788,-12656,-8676,3996,-478,2366,-2332,-12443,-833,1488,-1165,-544,37249,504,25,79,0,0,0,0,0,0,0,0,-32317,0,0,0,3884,-7,27602,0
22798,10682,-7520,-3588,-56,1065,-690,-12255,787,2950,-679,704,37279,434,25,79,0,0,0,0,0,0,0,0,-32317,0,0,0,3880,1,27622,0
22808,17348,-7916,-1602,170,-1269,1360,-11821,893,2114,-820,248,37320,341,25,79,0,0,0,0,0,0,0,0,-32318,0,0,0,3913,3,27642,0
22818,4054,-8314,1166,78,-1230,1518,-11610,265,-5,-1299,-120,37356,271,25,79,0,0,0,0,0,0,0,0,-32318,0,0,0,3940,2,27662,0
22828,-7388,-7226,-796,496,-2054,627,-11558,96,-785,-1022,-176,37365,262,25,79,0,0,0,0,0,0,0,0,-32317,0,0,0,3968,3,27682,0
22838,-9644,-5758,3970,-258,473,100,-11510,108,-294,-997,-200,37367,267,25,79,0,0,0,0,0,0,0,0,-32317,0,0,0,3980,0,27702,0
22848,186,-6500,474,-415,1563,-379,-11493,-15,-50,-971,-360,37359,276,25,79,0,0,0,0,0,0,0,0,-32317,0,0,0,3976,-1,27722,0
22858,392,-8970,672,-386,1541,-444,-11545,-128,-194,-978,-544,37360,287,25,79,0,0,0,0,0,0,0,0,-32317,0,0,0,3953,-2,27742,0
22868,1444,-6226,-908,14,-28,-78,-11605,-137,-160,-1028,-416,37362,294,25,79,0,0,0,0,0,0,0,0,-32317,0,0,0,3945,0,27762,0
22878,342,-8886,1746,60,-76,103,-11625,-5,71,-1031,-256,37364,297,25,79,0,0,0,0,0,0,0,0,-32317,0,0,0,3943,0,27782,0
22888,-1116,-8204,2140,-99,-41,74,-11603,43,176,-993,-248,37365,288,25,79,0,0,0,0,0,0,0,0,-32317,0,0,0,3943,0,27802,0
22898,-1262,-8096,1386,-215,38,-52,-11597,4,25,-994,-296,37364,285,25,79,0,0,0,0,0,0,0,0,-32317,0,0,0,3946,0,27822,0
22908,78,-8232,-620,-228,78,-160,-11608,-27,-65,-994,-336,37364,273,25,79,0,0,0,0,0,0,0,0,-32317,0,0,0,3945,0,27842,0
22918,1154,-8196,-1084,-110,57,-106,-11619,-23,-25,-1010,-320,37372,275,25,79,0,0,0,0,0,0,0,0,-32317,0,0,0,3943,0,27862,0
22928,966,-8190,-542,79,-20,97,-11624,13,17,-1007,-272,37374,277,25,79,0,0,0,0,0,0,0,0,-32317,0,0,0,3942,0,27882,0
22938,74,-8370,564,108,-13,116,-11621,0,36,-999,-272,37377,291,25,79,0,0,0,0,0,0,0,0,-32317,0,0,0,3943,0,27902,0
22948,-832,-8336,1648,12,64,33,-11617,16,8,-998,-280,37371,303,25,79,0,0,0,0,0,0,0,0,-32317,0,0,0,3943,0,27922,0
22958,-516,-8282,1496,-74,77,-25,-11620,-4,-5,-1000,-296,37370,299,25,79,0,0,0,0,0,0,0,0,-32318,0,0,0,3943,0,27942,0
22968,306,-8352,652,-136,40,-14,-11619,4,-3,-999,-264,37368,294,25,79,0,0,0,0,0,0,0,0,-32317,0,0,0,3943,0,27962,0
22978,430,-8240,290,-122,22,-1,-11620,-9,2,-1001,-288,37368,291,25,79,0,0,0,0,0,0,0,0,-32317,0,0,0,3943,0,27982,0
22988,12,-8196,230,-82,25,30,-11621,-14,-5,-1001,-280,37367,291,25,79,0,0,0,0,0,0,0,0,-32317,0,0,0,3943,0,28002,0
22998,-266,-8292,244,-74,45,26,-11619,0,1,-1000,-288,37367,291,25,79,0,0,0,0,0,0,0,0,-32317,0,0,0,3943,0,28022,0
23008,-58,-8300,296,-54,54,-3,-11620,1,-4,-1000,-288,37368,291,25,79,0,0,0,0,0,0,0,0,-32317,0,0,0,3943,0,28042,0
23018,130,-8286,284,-37,52,15,-11621,-4,-2,-997,-288,37373,296,25,79,0,0,0,0,0,0,0,0,-32317,0,0,0,3943,0,28062,0
23028,32,-8304,458,-34,30,44,-11619,8,2,-1002,-272,37373,301,25,79,0,0,0,0,0,0,0,0,-32317,0,0,0,3943,0,28082,0
23038,-88,-8314,594,-32,22,37,-11619,-4,7,-1001,-280,37372,300,25,79,0,0,0,0,0,0,0,0,-32317,0,0,0,3944,0,28102,0
23048,-246,-8316,682,-56,36,18,-11619,3,0,-1005,-280,37367,295,25,79,0,0,0,0,0,0,0,0,-32318,0,0,0,3943,0,28122,0
23058,-160,-8250,602,-55,48,9,-11620,-1,2,-1000,-288,37368,291,25,79,0,0,0,0,0,0,0,0,-32317,0,0,0,3943,0,28142,0
23068,-24,-8304,462,-55,42,0,-11620,1,-5,-999,-288,37368,289,25,79,0,0,0,0,0,0,0,0,-32317,0,0,0,3943,0,28162,0
23078,112,-8322,458,-59,42,-5,-11622,1,-2,-1002,-288,37368,287,25,79,0,0,0,0,0,0,0,0,-32317,0,0,0,3943,0,28182,0
23088,98,-8212,432,-61,37,23,-11620,1,0,-1002,-280,37368,293,25,79,0,0,0,0,0,0,0,0,-32317,0,0,0,3944,0,28202,0
23098,16,-8294,438,-57,32,23,-11619,0,-1,-1004,-288,37370,299,25,79,0,0,0,0,0,0,0,0,-32317,0,0,0,3943,0,28222,0
23108,-32,-8334,474,-48,42,21,-11621,-5,-2,-1004,-288,37368,300,25,79,0,0,0,0,0,0,0,0,-32317,0,0,0,3943,0,28242,0
23118,-28,-8246,522,-57,43,25,-11619,3,-4,-1001,-288,37375,289,25,79,0,0,0,0,0,0,0,0,-32317,0,0,0,3943,0,28263,0
23128,-92,-8324,486,-59,33,28,-11619,7,7,-1001,-288,37374,288,25,79,0,0,0,0,0,0,0,0,-32318,0,0,0,3944,0,28282,0
23138,-32,-8294,484,-52,42,12,-11620,-9,-2,-1001,-288,37375,290,25,79,0,0,0,0,0,0,0,0,-32317,0,0,0,3943,0,28302,0
23148,-38,-8252,512,-52,46,28,-11621,-2,-8,-1004,-288,37372,301,25,79,0,0,0,0,0,0,0,0,-32318,0,0,0,3943,0,28322,0
23158,-34,-8298,524,-57,43,18,-11620,-3,2,-1001,-280,37369,299,25,79,0,0,0,0,0,0,0,0,-32317,0,0,0,3943,0,28342,0
23168,42,-8346,480,-56,46,8,-11620,-9,2,-1006,-280,37368,294,25,79,0,0,0,0,0,0,0,0,-32317,0,0,0,3943,0,28363,0
23178,50,-8258,438,-50,43,18,-11619,7,-3,-1003,-280,37366,290,25,79,0,0,0,0,0,0,0,0,-32317,0,0,0,3944,0,28383,0
23188,-10,-8298,410,-49,39,32,-11620,-6,2,-1001,-288,37365,296,25,79,0,0,0,0,0,0,0,0,-32317,0,0,0,3943,0,28403,0
23198,-104,-8314,444,-46,35,23,-11619,8,-1,-995,-288,37365,294,25,79,0,0,0,0,0,0,0,0,-32317,0,0,0,3944,0,28423,0
23208,-80,-8246,500,-49,39,18,-11620,-3,-3,-1001,-288,37366,292,25,79,0,0,0,0,0,0,0,0,-32317,0,0,0,3943,0,28443,0
23218,-26,-8290,448,-49,37,28,-11619,0,5,-999,-288,37366,288,25,79,0,0,0,0,0,0,0,0,-32317,0,0,0,3943,0,28463,0
23228,-90,-8324,466,-41,39,18,-11620,-4,3,-1004,-272,37369,295,25,79,0,0,0,0,0,0,0,0,-32317,0,0,0,3944,0,28483,0
23238,22,-8300,566,-47,43,11,-11620,-9,2,-1001,-288,37370,305,25,79,0,0,0,0,0,0,0,0,-32317,0,0,0,3943,0,28503,0
23248,-70,-8284,544,-49,47,21,-11619,3,-2,-1000,-272,37371,304,25,79,0,0,0,0,0,0,0,0,-32317,0,0,0,3943,0,28523,0
23258,34,-8320,494,-56,46,12,-11618,0,1,-997,-288,37366,292,25,79,0,0,0,0,0,0,0,0,-32317,0,0,0,3943,0,28543,0
23268,-12,-8320,440,-44,39,14,-11618,1,-1,-1000,-272,37365,286,25,79,0,0,0,0,0,0,0,0,-32317,0,0,0,3943,0,28563,0
23278,46,-8276,422,-44,41,27,-11619,0,-1,-997,-288,37366,287,25,79,0,0,0,0,0,0,0,0,-32317,0,0,0,3944,0,28583,0
23288,-30,-8296,470,-46,42,22,-11621,-1,2,-999,-280,37368,292,25,79,0,0,0,0,0,0,0,0,-32317,0,0,0,3944,0,28603,0
23298,-80,-8312,474,-45,43,11,-11619,-2,-2,-1005,-280,37372,289,25,79,0,0,0,0,0,0,0,0,-32317,0,0,0,3945,0,28624,0
23308,-100,-8236,448,-41,44,17,-11619,2,5,-997,-288,37373,293,25,79,0,0,0,0,0,0,0,0,-32317,0,0,0,3944,0,28644,0
23318,-104,-8318,466,-39,42,20,-11619,-5,2,-1000,-288,37371,294,25,79,0,0,0,0,0,0,0,0,-32317,0,0,0,3943,0,28664,0
23328,-78,-8272,518,-44,43,11,-11619,3,1,-1001,-288,37375,296,25,79,0,0,0,0,0,0,0,0,-32317,0,0,0,3945,0,28684,0
23338,-46,-8250,514,-48,42,12,-11620,-6,1,-1000,-288,37376,294,25,79,0,0,0,0,0,0,0,0,-32317,0,0,0,3943,0,28704,0
23348,-42,-8296,482,-44,37,9,-11620,1,0,-1004,-280,37375,297,25,79,0,0,0,0,0,0,0,0,-32317,0,0,0,3943,0,28724,0
23358,28,-8290,496,-42,42,7,-11619,-6,-2,-999,-288,37370,301,25,79,0,0,0,0,0,0,0,0,-32317,0,0,0,3943,0,28744,0
23368,12,-8278,526,-50,43,10,-11619,-4,-2,-1000,-288,37359,294,25,79,0,0,0,0,0,0,0,0,-32317,0,0,0,3945,0,28764,0
23378,-34,-8266,502,-56,38,15,-11620,-6,-4,-1002,-288,37359,286,25,79,0,0,0,0,0,0,0,0,-32317,0,0,0,3944,0,28784,0
23388,-32,-8302,490,-45,42,14,-11621,-10,1,-1005,-272,37361,286,25,79,0,0,0,0,0,0,0,0,-32317,0,0,0,3944,0,28804,0
23398,-32,-8262,462,-44,43,17,-11620,-1,-1,-1003,-280,37362,289,25,79,0,0,0,0,0,0,0,0,-32317,0,0,0,3943,0,28824,0
23408,-52,-8272,448,-45,43,12,-11619,1,-1,-1000,-296,37360,291,25,79,0,0,0,0,0,0,0,0,-32317,0,0,0,3943,0,28844,0
23418,-10,-8290,452,-43,37,14,-11620,-1,5,-994,-296,37360,289,25,79,0,0,0,0,0,0,0,0,-32317,0,0,0,3944,0,28864,0
23428,-68,-8296,470,-42,43,12,-11619,2,0,-1003,-280,37362,282,25,79,0,0,0,0,0,0,0,0,-32317,0,0,0,3943,0,28883,0
23438,-26,-8280,464,-39,43,10,-11619,-7,-5,-1002,-288,37369,284,25,79,0,0,0,0,0,0,0,0,-32317,0,0,0,3943,0,28903,0
23448,20,-8294,496,-43,38,4,-11619,-3,0,-1000,-288,37369,287,25,79,0,0,0,0,0,0,0,0,-32317,0,0,0,3945,0,28923,0
23458,-8,-8306,548,-42,41,7,-11620,0,3,-1001,-280,37368,292,25,79,0,0,0,0,0,0,0,0,-32317,0,0,0,3943,0,28943,0
23468,30,-8300,494,-47,45,14,-11620,-7,-1,-1000,-288,37365,294,25,79,0,0,0,0,0,0,0,0,-32317,0,0,0,3944,0,28963,0
23478,58,-8326,502,-46,40,13,-11619,6,3,-1001,-296,37375,293,25,79,0,0,0,0,0,0,0,0,-32317,0,0,0,3943,0,28983,0
23488,58,-8244,558,-52,44,16,-11620,-1,-2,-1000,-280,37385,293,25,79,0,0,0,0,0,0,0,0,-32318,0,0,0,3944,0,29003,0
23498,-74,-8302,536,-59,37,29,-11619,3,-1,-1001,-288,37394,293,25,79,0,0,0,0,0,0,0,0,-32317,0,0,0,3944,0,29023,0
23508,-104,-8270,502,-63,39,19,-11620,-1,2,-999,-288,37385,294,25,79,0,0,0,0,0,0,0,0,-32317,0,0,0,3943,0,29043,0
23518,-20,-8286,462,-59,35,22,-11619,0,5,-999,-296,37377,291,25,79,0,0,0,0,0,0,0,0,-32317,0,0,0,3943,0,29063,0
23528,-62,-8266,466,-58,38,28,-11618,-7,-7,-1003,-288,37369,289,25,79,0,0,0,0,0,0,0,0,-32317,0,0,0,3945,0,29083,0
23538,-60,-8296,464,-51,41,23,-11619,3,-3,-1007,-280,37371,297,25,79,0,0,0,0,0,0,0,0,-32317,0,0,0,3945,0,29103,0
23548,-58,-8266,490,-54,43,18,-11620,-2,1,-1002,-280,37370,292,25,79,0,0,0,0,0,0,0,0,-32317,0,0,0,3943,0,29123,0
23558,-12,-8280,464,-46,43,15,-11619,-7,1,-1006,-272,37368,286,25,79,0,0,0,0,0,0,0,0,-32317,0,0,0,3944,0,29143,0
23568,-126,-8298,494,-45,34,19,-11618,0,-1,-999,-288,37369,287,25,79,0,0,0,0,0,0,0,0,-32318,0,0,0,3943,0,29163,0
23578,-62,-8316,536,-55,42,12,-11620,-8,2,-1005,-280,37371,289,25,79,0,0,0,0,0,0,0,0,-32317,0,0,0,3944,0,29183,0
23588,8,-8274,500,-58,48,16,-11619,-7,2,-1001,-288,37371,285,25,79,0,0,0,0,0,0,0,0,-32317,0,0,0,3943,0,29203,0
23598,10,-8312,468,-61,33,16,-11618,7,2,-1000,-296,37370,286,25,79,0,0,0,0,0,0,0,0,-32317,0,0,0,3942,0,29223,0
23608,-2,-8294,460,-55,39,16,-11620,-3,-2,-996,-288,37370,292,25,79,0,0,0,0,0,0,0,0,-32317,0,0,0,3944,0,29243,0
23618,-96,-8288,486,-55,43,15,-11618,5,1,-1002,-272,37370,292,25,79,0,0,0,0,0,0,0,0,-32317,0,0,0,3943,0,29263,0
23628,-100,-8298,498,-55,40,22,-11619,6,0,-999,-296,37368,291,25,79,0,0,0,0,0,0,0,0,-32317,0,0,0,3943,0,29283,0
23638,-68,-8280,486,-61,38,17,-11618,8,1,-1002,-288,37368,289,25,79,0,0,0,0,0,0,0,0,-32317,0,0,0,3943,0,29303,0
23648,-40,-8254,440,-50,41,10,-11619,-4,3,-1002,-296,37376,285,25,79,0,0,0,0,0,0,0,0,-32317,0,0,0,3943,0,29323,0
23658,-30,-8296,468,-49,43,16,-11619,-3,3,-998,-272,37378,281,25,79,0,0,0,0,0,0,0,0,-32317,0,0,0,3945,0,29343,0
23668,-48,-8354,506,-51,42,15,-11618,-5,-2,-1001,-296,37378,284,25,79,0,0,0,0,0,0,0,0,-32317,0,0,0,3943,0,29363,0
23678,-84,-8272,502,-49,36,9,-11618,0,0,-1002,-296,37370,294,25,79,0,0,0,0,0,0,0,0,-32317,0,0,0,3943,0,29383,0
23688,-32,-8290,496,-46,43,18,-11617,2,0,-1002,-288,37371,289,25,79,0,0,0,0,0,0,0,0,-32317,0,0,0,3943,0,29403,0
23698,0,-8310,522,-56,42,12,-11620,-6,1,-1005,-280,37373,285,25,79,0,0,0,0,0,0,0,0,-32317,0,0,0,3943,0,29423,0
23708,-14,-8292,524,-58,44,12,-11619,-2,3,-998,-288,37372,282,25,79,0,0,0,0,0,0,0,0,-32317,0,0,0,3944,0,29443,0
23718,-36,-8306,522,-58,40,22,-11619,5,2,-1002,-280,37369,283,25,79,0,0,0,0,0,0,0,0,-32317,0,0,0,3943,0,29463,0
23728,-70,-8268,450,-60,38,21,-11617,8,4,-1002,-296,37370,291,25,79,0,0,0,0,0,0,0,0,-32317,0,0,0,3943,0,29483,0
23738,-4,-8296,464,-51,43,19,-11619,-4,4,-1001,-272,37374,289,25,79,0,0,0,0,0,0,0,0,-32317,0,0,0,3944,0,29503,0
23748,-46,-8288,494,-61,39,14,-11620,0,0,-1000,-288,37378,292,25,79,0,0,0,0,0,0,0,0,-32317,0,0,0,3943,0,29523,0
23758,-68,-8246,484,-52,37,13,-11617,14,4,-996,-280,37377,291,25,79,0,0,0,0,0,0,0,0,-32317,0,0,0,3944,0,29543,0
23768,-114,-8294,460,-56,32,8,-11619,0,-7,-1000,-288,37376,295,25,79,0,0,0,0,0,0,0,0,-32317,0,0,0,3943,0,29563,0
23778,-42,-8300,478,-56,37,10,-11618,4,0,-1000,-296,37375,297,25,79,0,0,0,0,0,0,0,0,-32317,0,0,0,3943,0,29583,0
23788,-88,-8294,482,-51,39,13,-11618,1,3,-998,-288,37378,295,25,79,0,0,0,0,0,0,0,0,-32317,0,0,0,3943,0,29603,0
23798,-70,-8304,474,-54,38,10,-11619,0,1,-1000,-288,37378,292,25,79,0,0,0,0,0,0,0,0,-32317,0,0,0,3943,0,29623,0
23808,-54,-8298,462,-48,44,9,-11618,8,-3,-997,-296,37376,288,25,79,0,0,0,0,0,0,0,0,-32317,0,0,0,3943,0,29643,0
23818,-64,-8280,472,-51,36,20,-11620,-5,0,-997,-280,37373,283,25,79,0,0,0,0,0,0,0,0,-32317,0,0,0,3943,0,29663,0
23828,-38,-8290,492,-49,45,11,-11618,6,0,-999,-288,37375,285,25,79,0,0,0,0,0,0,0,0,-32317,0,0,0,3945,0,29683,0
23838,-32,-8278,512,-54,34,2,-11620,0,1,-1000,-288,37377,292,25,79,0,0,0,0,0,0,0,0,-32317,0,0,0,3943,0,29703,0
23848,20,-8288,504,-54,35,13,-11619,-1,4,-1003,-296,37378,289,25,79,0,0,0,0,0,0,0,0,-32317,0,0,0,3943,0,29723,0
23858,8,-8282,488,-51,37,7,-11619,3,-1,-1000,-288,37383,283,25,79,0,0,0,0,0,0,0,0,-32317,0,0,0,3943,0,29743,0
23868,2,-8276,486,-53,36,9,-11619,-1,0,-1003,-288,37384,280,25,79,0,0,0,0,0,0,0,0,-32317,0,0,0,3943,0,29763,0
23878,-10,-8312,496,-53,40,17,-11620,-5,-2,-1003,-280,37389,282,25,79,0,0,0,0,0,0,0,0,-32317,0,0,0,3943,0,29783,0
23888,34,-8252,484,-57,42,18,-11617,0,5,-1000,-288,37385,290,25,79,0,0,0,0,0,0,0,0,-32317,0,0,0,3945,0,29803,0
23898,-50,-8306,450,-57,41,17,-11620,-8,-2,-1003,-288,37385,288,25,79,0,0,0,0,0,0,0,0,-32317,0,0,0,3943,0,29823,0
23908,-22,-8272,468,-52,40,20,-11621,-13,-4,-1002,-296,37384,283,25,79,0,0,0,0,0,0,0,0,-32317,0,0,0,3945,0,29843,0
23918,-50,-8312,490,-56,38,22,-11618,-3,0,-1001,-288,37384,284,25,79,0,0,0,0,0,0,0,0,-32317,0,0,0,3943,0,29863,0
23928,-76,-8290,510,-53,45,26,-11619,0,-1,-1004,-288,37381,297,25,79,0,0,0,0,0,0,0,0,-32317,0,0,0,3943,0,29883,0
23938,22,-8246,480,-52,46,14,-11618,0,1,-1007,-272,37378,300,25,79,0,0,0,0,0,0,0,0,-32317,0,0,0,3945,0,29903,0
23948,-56,-8264,468,-52,40,20,-11619,0,0,-1001,-288,37373,296,25,79,0,0,0,0,0,0,0,0,-32317,0,0,0,3945,0,29923,0
23958,-124,-8304,494,-56,47,23,-11620,-9,2,-997,-288,37374,284,25,79,0,0,0,0,0,0,0,0,-32317,0,0,0,3943,0,29943,0
23968,-76,-8286,468,-56,44,19,-11620,-5,-2,-1006,-288,37378,286,25,79,0,0,0,0,0,0,0,0,-32317,0,0,0,3943,0,29963,0
23978,-42,-8258,434,-55,45,21,-11619,-11,-1,-1001,-288,37379,299,25,79,0,0,0,0,0,0,0,0,-32317,0,0,0,3943,0,29983,0
23988,6,-8306,454,-48,42,22,-11619,-3,-1,-1003,-288,37378,302,25,79,0,0,0,0,0,0,0,0,-32317,0,0,0,3943,0,30003,0
23998,-88,-8280,456,-44,37,19,-11618,4,-2,-1002,-296,37371,297,25,79,0,0,0,0,0,0,0,0,-32317,0,0,0,3943,0,30023,0
24008,-14,-8290,480,-51,32,15,-11619,-2,4,-997,-288,37371,291,25,79,0,0,0,0,0,0,0,0,-32317,0,0,0,3943,0,30043,0
24018,-96,-8284,454,-50,37,11,-11619,-1,-1,-1003,-280,37372,292,25,79,0,0,0,0,0,0,0,0,-32317,0,0,0,3943,0,30063,0
24028,-60,-8258,454,-41,35,7,-11618,-5,3,-1002,-288,37374,295,25,79,0,0,0,0,0,0,0,0,-32317,0,0,0,3945,0,30083,0
24038,-34,-8278,478,-45,39,10,-11619,0,-7,-1007,-280,37371,292,25,79,0,0,0,0,0,0,0,0,-32317,0,0,0,3944,0,30103,0
24048,-60,-8306,502,-51,37,9,-11619,0,1,-1000,-288,37370,289,25,79,0,0,0,0,0,0,0,0,-32317,0,0,0,3944,0,30123,0
24058,-22,-8298,496,-50,45,10,-11619,-4,0,-998,-280,37369,291,25,79,0,0,0,0,0,0,0,0,-32317,0,0,0,3943,0,30143,0
24068,-22,-8286,486,-49,35,14,-11620,-7,-5,-1002,-288,37374,293,25,79,0,0,0,0,0,0,0,0,-32317,0,0,0,3944,0,30163,0
24078,-16,-8292,498,-44,36,12,-11618,3,2,-1001,-296,37373,286,25,79,0,0,0,0,0,0,0,0,-32317,0,0,0,3943,0,30183,0
24088,-84,-8316,490,-48,36,16,-11619,3,3,-1001,-280,37371,286,25,79,0,0,0,0,0,0,0,0,-32317,0,0,0,3943,0,30203,0
24098,-34,-8270,492,-51,43,9,-11619,4,2,-1006,-272,37370,287,25,79,0,0,0,0,0,0,0,0,-32317,0,0,0,3943,0,30223,0
24108,-84,-8260,460,-45,35,22,-11620,0,0,-1003,-272,37369,293,25,79,0,0,0,0,0,0,0,0,-32317,0,0,0,3945,0,30243,0
24118,0,-8312,516,-48,40,14,-11619,0,2,-999,-288,37371,291,25,79,0,0,0,0,0,0,0,0,-32317,0,0,0,3945,0,30263,0
24128,28,-8294,480,-51,40,20,-11619,-1,-1,-1007,-272,37370,284,25,79,0,0,0,0,0,0,0,0,-32317,0,0,0,3945,0,30283,0
24138,-10,-8270,474,-45,46,18,-11619,-3,-4,-999,-272,37368,289,25,79,0,0,0,0,0,0,0,0,-32317,0,0,0,3943,0,30303,0
24148,-62,-8320,484,-44,38,15,-11619,-4,-4,-1002,-288,37368,297,25,79,0,0,0,0,0,0,0,0,-32317,0,0,0,3944,0,30323,0
24158,-96,-8276,468,-46,41,17,-11619,-3,-1,-999,-280,37369,291,25,79,0,0,0,0,0,0,0,0,-32317,0,0,0,3944,0,30343,0
24168,-52,-8268,474,-42,40,12,-11619,0,0,-999,-296,37371,293,25,79,0,0,0,0,0,0,0,0,-32317,0,0,0,3943,0,30363,0
24178,-68,-8308,472,-44,34,13,-11619,3,5,-995,-296,37377,294,25,79,0,0,0,0,0,0,0,0,-32317,0,0,0,3943,0,30383,0
24188,-78,-8292,480,-40,40,10,-11620,-5,-2,-1005,-280,37374,294,25,79,0,0,0,0,0,0,0,0,-32317,0,0,0,3944,0,30403,0
24198,24,-8276,508,-47,39,12,-11619,-8,-2,-1004,-288,37372,295,25,79,0,0,0,0,0,0,0,0,-32317,0,0,0,3945,0,30424,0
24208,-4,-8306,510,-44,39,11,-11619,0,1,-1001,-288,37366,285,25,79,0,0,0,0,0,0,0,0,-32317,0,0,0,3943,0,30444,0
24218,12,-8284,538,-47,45,9,-11619,-10,-1,-1001,-288,37365,284,25,79,0,0,0,0,0,0,0,0,-32317,0,0,0,3945,0,30464,0
24228,-16,-8296,486,-48,43,16,-11618,7,2,-995,-272,37367,289,25,79,0,0,0,0,0,0,0,0,-32317,0,0,0,3945,0,30484,0
24238,-6,-8298,510,-50,39,19,-11619,0,2,-996,-280,37367,294,25,79,0,0,0,0,0,0,0,0,-32317,0,0,0,3945,0,30504,0
24248,-34,-8294,482,-51,41,19,-11618,5,-3,-1000,-280,37365,296,25,79,0,0,0,0,0,0,0,0,-32317,0,0,0,3943,0,30524,0
24258,-42,-8268,452,-54,44,20,-11619,2,-7,-999,-280,37365,288,25,79,0,0,0,0,0,0,0,0,-32317,0,0,0,3945,0,30544,0
24268,-78,-8306,498,-54,48,24,-11620,-9,2,-1001,-280,37364,288,25,79,0,0,0,0,0,0,0,0,-32317,0,0,0,3944,0,30564,0
24278,-44,-8314,498,-44,33,20,-11619,-5,2,-997,-288,37367,293,25,79,0,0,0,0,0,0,0,0,-32317,0,0,0,3943,0,30584,0
24288,-74,-8276,496,-46,42,18,-11618,0,-3,-1000,-272,37371,296,25,79,0,0,0,0,0,0,0,0,-32317,0,0,0,3944,0,30604,0
24298,-52,-8292,492,-51,42,11,-11617,12,-2,-1004,-288,37372,290,25,79,0,0,0,0,0,0,0,0,-32317,0,0,0,3943,0,30624,0
24308,-14,-8284,448,-51,44,10,-11619,-4,0,-997,-296,37370,288,25,79,0,0,0,0,0,0,0,0,-32317,0,0,0,3944,0,30644,0
24318,-2,-8252,464,-44,37,14,-11619,-9,0,-998,-296,37362,289,25,79,0,0,0,0,0,0,0,0,-32317,0,0,0,3943,0,30664,0
24328,-10,-8294,482,-43,36,13,-11618,7,3,-1002,-304,37361,281,25,79,0,0,0,0,0,0,0,0,-32317,0,0,0,3943,0,30684,0
24338,10,-8298,502,-46,41,16,-11618,-3,0,-999,-264,37361,280,25,79,0,0,0,0,0,0,0,0,-32317,0,0,0,3943,0,30704,0
24348,-118,-8290,512,-49,41,20,-11619,6,2,-1000,-296,37361,278,25,79,0,0,0,0,0,0,0,0,-32317,0,0,0,3943,0,30724,0
24358,-38,-8320,508,-48,36,20,-11619,-8,-1,-996,-288,37361,288,25,79,0,0,0,0,0,0,0,0,-32317,0,0,0,3945,0,30744,0
24368,-86,-8316,500,-50,39,21,-11619,-2,-1,-999,-280,37361,289,25,79,0,0,0,0,0,0,0,0,-32317,0,0,0,3943,0,30764,0
24378,-32,-8286,476,-60,40,17,-11619,-5,1,-1004,-280,37361,291,25,79,0,0,0,0,0,0,0,0,-32317,0,0,0,3943,0,30784,0
24388,-28,-8312,472,-54,42,17,-11617,11,2,-1001,-272,37371,286,25,79,0,0,0,0,0,0,0,0,-32317,0,0,0,3944,0,30804,0
24398,-26,-8306,502,-49,46,15,-11617,8,0,-998,-272,37372,286,25,79,0,0,0,0,0,0,0,0,-32317,0,0,0,3943,0,30824,0
24408,-44,-8308,490,-56,42,12,-11619,-2,-7,-1003,-288,37373,284,25,79,0,0,0,0,0,0,0,0,-32317,0,0,0,3944,0,30844,0
24418,-44,-8318,450,-49,43,15,-11618,10,3,-1000,-272,37365,290,25,79,0,0,0,0,0,0,0,0,-32317,0,0,0,3943,0,30864,0
24428,-64,-8302,466,-49,38,9,-11620,-2,4,-1002,-288,37362,285,25,79,0,0,0,0,0,0,0,0,-32317,0,0,0,3943,0,30884,0
24438,-50,-8292,482,-53,33,10,-11620,-2,-1,-1002,-288,37362,280,25,79,0,0,0,0,0,0,0,0,-32317,0,0,0,3943,0,30904,0
24448,-36,-8260,476,-49,40,13,-11618,11,2,-1000,-288,37363,278,25,79,0,0,0,0,0,0,0,0,-32317,0,0,0,3945,0,30924,0
24458,-56,-8274,484,-54,38,16,-11619,-1,-1,-1001,-288,37365,283,25,79,0,0,0,0,0,0,0,0,-32317,0,0,0,3945,0,30944,0
24468,-26,-8288,514,-50,39,17,-11620,-3,4,-999,-280,37367,284,25,79,0,0,0,0,0,0,0,0,-32317,0,0,0,3945,0,30964,0
24478,-22,-8270,496,-57,42,14,-11618,5,-2,-1003,-288,37370,286,25,79,0,0,0,0,0,0,0,0,-32317,0,0,0,3944,0,30984,0
24488,-28,-8308,476,-53,38,19,-11619,-1,7,-1002,-288,37372,284,25,79,0,0,0,0,0,0,0,0,-32317,0,0,0,3943,0,31004,0
24498,-80,-8302,476,-53,40,18,-11619,-2,5,-1002,-272,37380,286,25,79,0,0,0,0,0,0,0,0,-32317,0,0,0,3945,0,31024,0
24508,-86,-8304,512,-50,40,18,-11618,-1,-3,-1004,-280,37377,288,25,79,0,0,0,0,0,0,0,0,-32317,0,0,0,3943,0,31044,0
24518,-34,-8282,480,-59,43,15,-11618,4,1,-1001,-288,37376,286,25,79,0,0,0,0,0,0,0,0,-32317,0,0,0,3945,0,31064,0
24528,-18,-8284,480,-57,42,14,-11618,-11,-7,-1000,-296,37368,284,25,79,0,0,0,0,0,0,0,0,-32317,0,0,0,3945,0,31084,0
24538,-66,-8284,464,-54,38,16,-11618,7,1,-999,-280,37368,285,25,79,0,0,0,0,0,0,0,0,-32317,0,0,0,3943,0,31104,0
24548,-42,-8330,494,-57,36,17,-11618,-4,-1,-1003,-288,37366,282,25,79,0,0,0,0,0,0,0,0,-32317,0,0,0,3945,0,31124,0
24558,-50,-8300,460,-51,39,13,-11617,11,-3,-996,-272,37365,292,25,79,0,0,0,0,0,0,0,0,-32317,0,0,0,3945,0,31144,0
24568,-28,-8284,472,-55,44,17,-11620,-9,-4,-999,-296,37365,296,25,79,0,0,0,0,0,0,0,0,-32317,0,0,0,3944,0,31165,0
24578,-48,-8290,464,-57,34,18,-11619,3,2,-1001,-296,37369,300,25,79,0,0,0,0,0,0,0,0,-32317,0,0,0,3945,0,31184,0
24588,-52,-8276,498,-57,37,19,-11618,-4,-4,-1000,-288,37369,293,25,79,0,0,0,0,0,0,0,0,-32317,0,0,0,3943,0,31205,0
24598,-46,-8284,498,-51,42,13,-11618,7,4,-996,-280,37370,291,25,79,0,0,0,0,0,0,0,0,-32317,0,0,0,3944,0,31224,0
24608,34,-8304,534,-57,48,18,-11620,-9,1,-999,-288,37375,288,25,79,0,0,0,0,0,0,0,0,-32317,0,0,0,3943,0,31244,0
24618,0,-8290,506,-58,44,17,-11619,0,5,-999,-272,37379,293,25,79,0,0,0,0,0,0,0,0,-32317,0,0,0,3943,0,31265,0
24628,-28,-8282,512,-62,43,20,-11618,4,0,-1003,-280,37379,291,25,79,0,0,0,0,0,0,0,0,-32317,0,0,0,3943,0,31285,0
24638,-40,-8302,494,-62,40,21,-11618,2,5,-1001,-296,37368,287,25,79,0,0,0,0,0,0,0,0,-32317,0,0,0,3943,0,31305,0
24648,-60,-8312,456,-59,46,24,-11618,13,2,-997,-288,37364,286,25,79,0,0,0,0,0,0,0,0,-32317,0,0,0,3943,0,31325,0
24658,-32,-8272,444,-59,37,18,-11617,-5,-2,-999,-288,37367,285,25,79,0,0,0,0,0,0,0,0,-32317,0,0,0,3943,0,31345,0
24668,-40,-8300,472,-55,41,20,-11619,-3,7,-997,-288,37371,287,25,79,0,0,0,0,0,0,0,0,-32317,0,0,0,3944,0,31365,0
24678,-82,-8276,462,-50,42,17,-11618,8,3,-1004,-280,37372,285,25,79,0,0,0,0,0,0,0,0,-32317,0,0,0,3945,0,31385,0
24688,-10,-8282,474,-51,47,10,-11617,3,7,-995,-288,37369,289,25,79,0,0,0,0,0,0,0,0,-32317,0,0,0,3945,0,31405,0
24698,-124,-8300,458,-54,38,11,-11619,-4,1,-998,-296,37370,291,25,79,0,0,0,0,0,0,0,0,-32317,0,0,0,3943,0,31425,0
24708,-76,-8268,484,-53,43,15,-11618,4,5,-1001,-280,37377,289,25,79,0,0,0,0,0,0,0,0,-32317,0,0,0,3943,0,31445,0
24718,-6,-8272,506,-53,39,6,-11618,-5,-4,-1003,-280,37378,281,25,79,0,0,0,0,0,0,0,0,-32317,0,0,0,3943,0,31465,0
24728,-26,-8306,498,-55,40,16,-11618,0,-3,-1001,-296,37377,286,25,79,0,0,0,0,0,0,0,0,-32317,0,0,0,3943,0,31485,0
24738,-42,-8302,472,-52,35,18,-11618,-2,-1,-1003,-288,37372,288,25,79,0,0,0,0,0,0,0,0,-32317,0,0,0,3944,0,31505,0
24748,-8,-8294,486,-54,39,17,-11618,1,0,-998,-280,37374,289,25,79,0,0,0,0,0,0,0,0,-32317,0,0,0,3943,0,31525,0
24758,-60,-8310,508,-49,46,15,-11619,-2,-1,-1003,-272,37384,293,25,79,0,0,0,0,0,0,0,0,-32317,0,0,0,3944,0,31545,0
24768,-14,-8292,468,-58,42,14,-11619,5,-3,-999,-288,37385,289,25,79,0,0,0,0,0,0,0,0,-32317,0,0,0,3943,0,31565,0
24778,-64,-8310,456,-50,37,11,-11618,2,-6,-1005,-288,37384,290,25,79,0,0,0,0,0,0,0,0,-32317,0,0,0,3943,0,31585,0
24788,-18,-8302,508,-43,38,17,-11618,5,-4,-1003,-288,37377,284,25,79,0,0,0,0,0,0,0,0,-32317,0,0,0,3944,0,31605,0
24798,8,-8304,468,-52,34,15,-11618,3,4,-998,-280,37373,281,25,79,0,0,0,0,0,0,0,0,-32317,0,0,0,3943,0,31625,0
24808,20,-8286,498,-51,40,9,-11619,-8,1,-1000,-288,37374,281,25,79,0,0,0,0,0,0,0,0,-32317,0,0,0,3943,0,31645,0
24818,-82,-8274,470,-52,41,13,-11618,3,-1,-1000,-288,37382,287,25,79,0,0,0,0,0,0,0,0,-32317,0,0,0,3943,0,31665,0
24828,-30,-8312,482,-51,47,20,-11618,-2,1,-1003,-288,37385,289,25,79,0,0,0,0,0,0,0,0,-32317,0,0,0,3944,0,31685,0
24838,-60,-8286,470,-50,39,20,-11619,-3,1,-1005,-280,37386,292,25,79,0,0,0,0,0,0,0,0,-32317,0,0,0,3944,0,31705,0
24848,-66,-8308,492,-48,38,20,-11619,3,3,-997,-272,37379,290,25,79,0,0,0,0,0,0,0,0,-32317,0,0,0,3945,0,31725,0
24858,-86,-8264,502,-57,42,18,-11619,-2,2,-1000,-288,37376,293,25,79,0,0,0,0,0,0,0,0,-32317,0,0,0,3943,0,31745,0
24868,-72,-8282,496,-55,41,13,-11619,-3,-3,-999,-296,37377,290,25,79,0,0,0,0,0,0,0,0,-32317,0,0,0,3944,0,31765,0
24878,-54,-8270,494,-53,43,11,-11618,0,5,-1001,-288,37376,294,25,79,0,0,0,0,0,0,0,0,-32317,0,0,0,3944,0,31785,0
24888,-2,-8296,486,-56,42,15,-11619,3,0,-999,-288,37376,296,25,79,0,0,0,0,0,0,0,0,-32317,0,0,0,3944,0,31805,0
24898,-62,-8276,458,-51,42,18,-11619,0,-1,-1005,-280,37375,300,25,79,0,0,0,0,0,0,0,0,-32317,0,0,0,3944,0,31825,0
24908,-8,-8268,462,-53,41,14,-11617,19,-1,-998,-288,37374,292,25,79,0,0,0,0,0,0,0,0,-32317,0,0,0,3943,0,31845,0
24918,-68,-8298,468,-56,38,18,-11618,5,1,-998,-288,37376,288,25,79,0,0,0,0,0,0,0,0,-32317,0,0,0,3943,0,31865,0
24928,-16,-8282,488,-55,39,18,-11619,2,-8,-1004,-288,37378,289,25,79,0,0,0,0,0,0,0,0,-32317,0,0,0,3943,0,31885,0
24938,-20,-8280,472,-50,36,14,-11619,3,-2,-1002,-288,37376,291,25,79,0,0,0,0,0,0,0,0,-32317,0,0,0,3943,0,31905,0
24948,-62,-8316,484,-51,41,18,-11618,0,3,-997,-280,37372,287,25,79,0,0,0,0,0,0,0,0,-32317,0,0,0,3943,0,31925,0
24958,-10,-8278,476,-47,39,11,-11618,0,-1,-1001,-288,37372,281,25,79,0,0,0,0,0,0,0,0,-32316,0,0,0,3944,0,31945,0
24968,60,-8260,472,-48,42,13,-11618,8,3,-998,-272,37373,285,25,79,0,0,0,0,0,0,0,0,-32318,0,0,0,3943,0,31966,0
24978,-98,-8318,454,-40,35,15,-11617,0,5,-1003,-288,37376,289,25,79,0,0,0,0,0,0,0,0,-32317,0,0,0,3943,0,31986,0
24988,-98,-8262,504,-41,42,10,-11619,0,-3,-1006,-264,37373,293,25,79,0,0,0,0,0,0,0,0,-32317,0,0,0,3943,0,32006,0
24998,-34,-8300,488,-47,38,6,-11617,15,8,-998,-288,37371,291,25,79,0,0,0,0,0,0,0,0,-32317,0,0,0,3943,0,32026,0
25008,-20,-8306,510,-44,38,5,-11620,-3,0,-995,-280,37369,287,25,79,0,0,0,0,0,0,0,0,-32317,0,0,0,3944,0,32046,0
25018,-74,-8276,492,-48,40,7,-11619,0,-3,-1001,-296,37371,276,25,79,0,0,0,0,0,0,0,0,-32317,0,0,0,3943,0,32066,0
25028,-16,-8282,524,-53,42,9,-11620,-4,-3,-997,-296,37378,281,25,79,0,0,0,0,0,0,0,0,-32317,0,0,0,3943,0,32086,0
25038,-34,-8288,490,-48,41,9,-11621,-11,-4,-1001,-296,37381,281,25,79,0,0,0,0,0,0,0,0,-32317,0,0,0,3943,0,32106,0
25048,-2,-8292,484,-52,45,11,-11618,5,1,-994,-280,37381,283,25,79,0,0,0,0,0,0,0,0,-32317,0,0,0,3943,0,32126,0
25058,-88,-8264,454,-56,41,15,-11620,-1,0,-1006,-280,37378,290,25,79,0,0,0,0,0,0,0,0,-32317,0,0,0,3943,0,32147,0
25068,-50,-8314,460,-44,34,15,-11618,-7,0,-1003,-288,37378,297,25,79,0,0,0,0,0,0,0,0,-32317,0,0,0,3943,0,32167,0
25078,20,-8314,468,-42,38,14,-11621,-3,-10,-1004,-288,37377,299,25,79,0,0,0,0,0,0,0,0,-32317,0,0,0,3944,0,32187,0
25088,-38,-8294,474,-40,43,16,-11619,1,2,-1003,-272,37374,295,25,79,0,0,0,0,0,0,0,0,-32317,0,0,0,3943,0,32207,0
25098,-22,-8312,494,-41,43,13,-11617,6,5,-996,-272,37368,293,25,79,0,0,0,0,0,0,0,0,-32317,0,0,0,3943,0,32227,0
25108,-6,-8268,516,-39,40,11,-11619,0,1,-1000,-280,37367,294,25,79,0,0,0,0,0,0,0,0,-32317,0,0,0,3943,0,32247,0
25118,-36,-8294,512,-44,36,13,-11619,0,1,-1001,-288,37367,295,25,79,0,0,0,0,0,0,0,0,-32317,0,0,0,3943,0,32267,0
25128,12,-8274,492,-49,39,15,-11619,3,2,-1004,-296,37371,293,25,79,0,0,0,0,0,0,0,0,-32317,0,0,0,3943,0,32287,0
25138,-28,-8294,494,-48,41,22,-11620,-7,-2,-1003,-288,37371,289,25,79,0,0,0,0,0,0,0,0,-32317,0,0,0,3943,0,32308,0
25148,-82,-8270,504,-52,40,27,-11620,-6,-5,-1000,-288,37369,291,25,79,0,0,0,0,0,0,0,0,-32317,0,0,0,3943,0,32328,0
25158,-74,-8296,516,-53,46,24,-11618,7,-3,-998,-280,37367,288,25,79,0,0,0,0,0,0,0,0,-32317,0,0,0,3943,0,32348,0
25168,-14,-8284,512,-59,41,18,-11618,-3,-5,-1004,-272,37368,284,25,79,0,0,0,0,0,0,0,0,-32317,0,0,0,3943,0,32368,0
25178,-20,-8264,538,-53,43,22,-11619,2,2,-999,-288,37369,283,25,79,0,0,0,0,0,0,0,0,-32317,0,0,0,3944,0,32388,0
25188,-68,-8310,478,-54,48,19,-11620,-6,2,-1009,-272,37367,292,25,79,0,0,0,0,0,0,0,0,-32317,0,0,0,3943,0,32407,0
25198,36,-8292,448,-58,44,19,-11619,-5,1,-999,-288,37366,299,25,79,0,0,0,0,0,0,0,0,-32317,0,0,0,3945,0,32428,0
25208,-24,-8274,458,-47,39,19,-11618,7,-3,-997,-288,37366,300,25,79,0,0,0,0,0,0,0,0,-32317,0,0,0,3943,0,32448,0
25218,-126,-8302,440,-54,39,23,-11618,10,0,-1003,-280,37368,299,25,79,0,0,0,0,0,0,0,0,-32317,0,0,0,3944,0,32468,0
25228,-106,-8256,448,-45,38,16,-11619,-2,-3,-1003,-280,37367,299,25,79,0,0,0,0,0,0,0,0,-32317,0,0,0,3944,0,32488,0
25238,-48,-8274,476,-43,37,12,-11619,6,0,-1001,-288,37372,292,25,79,0,0,0,0,0,0,0,0,-32317,0,0,0,3943,0,32508,0
25248,-86,-8318,496,-41,39,9,-11618,5,-2,-1001,-280,37371,290,25,79,0,0,0,0,0,0,0,0,-32317,0,0,0,3943,0,32528,0
25258,-12,-8264,508,-46,38,6,-11618,4,-4,-1003,-272,37371,295,25,79,0,0,0,0,0,0,0,0,-32317,0,0,0,3943,0,32548,0
25268,-26,-8294,468,-46,38,6,-11619,-3,2,-1000,-296,37364,286,25,79,0,0,0,0,0,0,0,0,-32317,0,0,0,3943,0,32568,0
25278,-2,-8294,482,-45,41,11,-11618,6,2,-999,-288,37363,281,25,79,0,0,0,0,0,0,0,0,-32317,0,0,0,3944,0,32588,0
25288,22,-8300,536,-49,42,10,-11620,-4,-1,-1002,-288,37362,277,25,79,0,0,0,0,0,0,0,0,-32317,0,0,0,3943,0,32608,0
25298,-82,-8274,526,-47,44,11,-11619,0,0,-999,-296,37362,284,25,79,0,0,0,0,0,0,0,0,-32318,0,0,0,3943,0,32629,0
25308,-16,-8288,518,-52,40,13,-11618,3,-3,-998,-280,37363,285,25,79,0,0,0,0,0,0,0,0,-32317,0,0,0,3944,0,32649,0
25318,-46,-8274,514,-54,47,11,-11621,-1,3,-1000,-280,37362,287,25,79,0,0,0,0,0,0,0,0,-32317,0,0,0,3943,0,32669,0
25328,-32,-8276,498,-55,46,15,-11619,4,2,-1005,-272,37364,291,25,79,0,0,0,0,0,0,0,0,-32317,0,0,0,3943,0,32689,0
25338,0,-8268,492,-53,41,19,-11618,0,-5,-1001,-288,37367,290,25,79,0,0,0,0,0,0,0,0,-32317,0,0,0,3944,0,32709,0
25348,-72,-8280,468,-50,40,17,-11620,-3,-3,-999,-280,37366,288,25,79,0,0,0,0,0,0,0,0,-32317,0,0,0,3943,0,32729,0
25358,-24,-8292,486,-50,40,18,-11619,-9,-4,-1003,-288,37367,288,25,79,0,0,0,0,0,0,0,0,-32317,0,0,0,3944,0,32749,0
25368,-24,-8312,462,-48,40,10,-11619,-6,-3,-1000,-296,37364,292,25,79,0,0,0,0,0,0,0,0,-32317,0,0,0,3945,0,32769,0
25378,-80,-8304,468,-46,36,7,-11619,2,0,-1006,-288,37361,294,25,79,0,0,0,0,0,0,0,0,-32317,0,0,0,3945,0,32789,0
25388,10,-8300,488,-44,34,11,-11620,-4,2,-1003,-280,37361,290,25,79,0,0,0,0,0,0,0,0,-32317,0,0,0,3944,0,32809,0
25398,-52,-8240,492,-40,42,13,-11618,1,4,-1000,-280,37362,286,25,79,0,0,0,0,0,0,0,0,-32317,0,0,0,3944,0,32829,0
25408,-22,-8300,520,-48,42,10,-11618,-1,0,-1004,-272,37362,290,25,79,0,0,0,0,0,0,0,0,-32317,0,0,0,3945,0,32849,0
25418,6,-8282,518,-43,43,10,-11618,10,-4,-1003,-272,37362,285,25,79,0,0,0,0,0,0,0,0,-32317,0,0,0,3943,0,32869,0
25428,-24,-8286,478,-51,45,18,-11620,-6,-1,-1001,-288,37362,289,25,79,0,0,0,0,0,0,0,0,-32317,0,0,0,3944,0,32889,0
25438,-18,-8310,504,-53,42,17,-11619,4,-1,-1000,-280,37368,281,25,79,0,0,0,0,0,0,0,0,-32317,0,0,0,3944,0,32909,0
25448,-64,-8310,472,-53,39,18,-11619,0,3,-998,-296,37368,283,25,79,0,0,0,0,0,0,0,0,-32317,0,0,0,3943,0,32929,0
25458,18,-8268,474,-52,41,18,-11619,-1,-2,-999,-288,37369,279,25,79,0,0,0,0,0,0,0,0,-32317,0,0,0,3943,0,32949,0
25468,-40,-8298,500,-56,43,15,-11619,-1,-3,-1001,-288,37366,278,25,79,0,0,0,0,0,0,0,0,-32317,0,0,0,3943,0,32969,0
25478,-76,-8288,492,-52,45,18,-11618,4,0,-1000,-288,37362,282,25,79,0,0,0,0,0,0,0,0,-32317,0,0,0,3944,0,32989,0
25488,-64,-8294,474,-55,41,18,-11620,2,-2,-1006,-272,37363,285,25,79,0,0,0,0,0,0,0,0,-32317,0,0,0,3943,0,33009,0
25498,-90,-8302,486,-43,43,19,-11619,7,1,-1003,-280,37365,285,25,79,0,0,0,0,0,0,0,0,-32317,0,0,0,3944,0,33029,0
25508,-62,-8302,484,-52,37,11,-11619,6,-1,-1000,-288,37366,289,25,79,0,0,0,0,0,0,0,0,-32317,0,0,0,3944,0,33049,0
25518,-74,-8284,510,-55,34,14,-11617,1,0,-998,-280,37366,292,25,79,0,0,0,0,0,0,0,0,-32317,0,0,0,3945,0,33069,0
25528,8,-8286,490,-50,36,11,-11618,6,1,-997,-280,37365,291,25,79,0,0,0,0,0,0,0,0,-32317,0,0,0,3945,0,33089,0
25538,-32,-8292,504,-53,36,16,-11619,1,6,-1001,-296,37364,289,25,79,0,0,0,0,0,0,0,0,-32317,0,0,0,3943,0,33109,0
25548,-2,-8282,518,-59,42,18,-11619,5,3,-997,-280,37368,289,25,79,0,0,0,0,0,0,0,0,-32318,0,0,0,3944,0,33129,0
25558,18,-8290,494,-53,42,11,-11619,4,1,-999,-280,37370,288,25,79,0,0,0,0,0,0,0,0,-32317,0,0,0,3943,0,33149,0
25568,22,-8282,488,-57,41,16,-11618,1,-1,-1002,-280,37370,286,25,79,0,0,0,0,0,0,0,0,-32317,0,0,0,3943,0,33169,0
25578,-42,-8284,470,-62,38,19,-11619,6,-1,-1002,-280,37369,281,25,79,0,0,0,0,0,0,0,0,-32317,0,0,0,3945,0,33189,0
25588,-946,-8442,642,-30,-30,164,-11596,114,38,-423,0,37368,283,25,79,0,0,0,0,0,0,0,0,-32318,0,0,0,3945,0,33210,0
25598,1862,-8156,-88,-52,-76,220,-11517,156,169,-298,0,37370,282,25,79,0,0,0,0,0,0,0,0,-32317,0,0,0,3952,0,33230,0
25608,230,-8508,410,-29,-238,245,-11468,82,43,-175,0,37369,277,25,79,0,0,0,0,0,0,0,0,-32317,0,0,0,3957,0,33250,0
25618,-426,-8408,624,-7,-234,241,-11427,92,-78,-178,0,37374,268,25,79,0,0,0,0,0,0,0,0,-32317,0,0,0,3964,1,33271,0
25628,-590,-8266,536,-35,-109,142,-11396,61,-31,-127,0,37379,283,25,79,0,0,0,0,0,0,0,0,-32317,0,0,0,3968,0,33291,0
25638,-328,-8246,538,-54,-15,96,-11379,26,-43,-102,0,37380,293,25,79,0,0,0,0,0,0,0,0,-32317,0,0,0,3972,0,33311,0
25648,-376,-8284,518,-56,69,24,-11373,-3,-55,-17,0,37379,303,25,79,0,0,0,0,0,0,0,0,-32318,0,0,0,3973,0,33331,0
25658,-224,-8298,506,-58,69,9,-11373,9,-40,0,0,37379,304,25,79,0,0,0,0,0,0,0,0,-32318,0,0,0,3973,0,33351,0
25668,-48,-8256,604,-67,70,4,-11374,-3,-7,0,0,37381,305,25,79,0,0,0,0,0,0,0,0,-32317,0,0,0,3972,0,33371,0
25678,-18,-8310,534,-72,49,10,-11373,1,-2,-1,0,37382,311,25,79,0,0,0,0,0,0,0,0,-32317,0,0,0,3972,0,33391,0
25688,-8,-8260,416,-73,38,16,-11371,4,-1,0,0,37379,314,25,79,0,0,0,0,0,0,0,0,-32317,0,0,0,3972,0,33411,0
25698,-16,-8292,358,-62,36,23,-11371,7,-1,-4,0,37377,315,25,79,0,0,0,0,0,0,0,0,-32317,0,0,0,3972,0,33431,0
25708,-40,-8268,398,-56,47,32,-11372,5,0,-7,0,37377,311,25,79,0,0,0,0,0,0,0,0,-32318,0,0,0,3973,0,33451,0
25718,-70,-8292,450,-48,48,32,-11370,2,3,-9,0,37375,308,25,79,0,0,0,0,0,0,0,0,-32318,0,0,0,3972,0,33471,0
25728,-84,-8282,538,-49,48,32,-11369,-1,3,-13,0,37374,310,25,79,0,0,0,0,0,0,0,0,-32317,0,0,0,3970,0,33491,0
25738,-86,-8300,550,-56,50,35,-11366,-5,0,-13,0,37372,319,25,79,0,0,0,0,0,0,0,0,-32317,0,0,0,3972,0,33511,0
25748,-90,-8266,528,-54,42,33,-11363,2,-2,-19,0,37373,316,25,79,0,0,0,0,0,0,0,0,-32317,0,0,0,3972,0,33531,0
25758,-120,-8274,492,-56,46,36,-11360,8,1,-18,0,37381,313,25,79,0,0,0,0,0,0,0,0,-32317,0,0,0,3972,0,33551,0
25768,-76,-8304,458,-57,38,43,-11354,11,7,-32,0,37381,312,25,79,0,0,0,0,0,0,0,0,-32317,0,0,0,3973,0,33571,0
25778,-72,-8304,410,-50,38,49,-11346,25,6,-51,0,37382,310,25,79,0,0,0,0,0,0,0,0,-32318,0,0,0,3972,0,33591,0
25788,42,-8282,454,-42,5,80,-11328,35,17,-82,0,37378,309,25,79,0,0,0,0,0,0,0,0,-32318,0,0,0,3974,0,33611,0
25798,94,-8266,496,-41,-13,75,-11315,18,22,-65,0,37379,299,25,79,0,0,0,0,0,0,0,0,-32318,0,0,0,3976,0,33631,0
25808,-282,-8294,550,-42,12,45,-11312,0,-26,-15,0,37379,298,25,79,0,0,0,0,0,0,0,0,-32317,0,0,0,3977,0,33651,0
25818,-316,-8272,550,-51,49,33,-11312,-8,-22,-12,0,37379,295,25,79,0,0,0,0,0,0,0,0,-32318,0,0,0,3977,0,33671,0
25828,-98,-8282,498,-50,51,16,-11308,0,-2,-9,0,37380,298,25,79,0,0,0,0,0,0,0,0,-32318,0,0,0,3977,0,33691,0
25838,-18,-8308,456,-47,45,20,-11308,8,0,-5,0,37382,301,25,79,0,0,0,0,0,0,0,0,-32318,0,0,0,3977,0,33711,0
25848,-56,-8310,492,-49,41,28,-11307,4,1,-6,0,37382,307,25,79,0,0,0,0,0,0,0,0,-32318,0,0,0,3977,0,33731,0
25858,-124,-8290,528,-48,33,30,-11306,0,3,-9,0,37387,304,25,79,0,0,0,0,0,0,0,0,-32317,0,0,0,3977,0,33751,0
25868,-112,-8316,490,-53,38,21,-11305,-1,-2,-12,0,37386,290,25,79,0,0,0,0,0,0,0,0,-32318,0,0,0,3977,0,33771,0
25878,-62,-8308,442,-52,47,19,-11302,5,1,-10,0,37387,284,25,79,0,0,0,0,0,0,0,0,-32317,0,0,0,3977,0,33791,0
25888,-60,-8294,422,-42,40,21,-11302,7,-1,-8,0,37383,294,25,79,0,0,0,0,0,0,0,0,-32318,0,0,0,3978,0,33811,0
25898,-86,-8302,468,-43,33,24,-11301,-2,0,-11,0,37382,302,25,79,0,0,0,0,0,0,0,0,-32317,0,0,0,3979,0,33831,0
25908,-124,-8282,508,-39,35,26,-11298,9,5,-14,0,37379,301,25,79,0,0,0,0,0,0,0,0,-32317,0,0,0,3979,0,33851,0
25918,-108,-8288,514,-49,32,25,-11295,11,6,-18,0,37378,286,25,79,0,0,0,0,0,0,0,0,-32317,0,0,0,3978,0,33871,0
25928,-110,-8306,484,-44,28,30,-11291,18,7,-23,0,37378,282,25,79,0,0,0,0,0,0,0,0,-32317,0,0,0,3979,0,33891,0
25938,-86,-8298,452,-42,19,28,-11287,15,6,-31,0,37379,281,25,79,0,0,0,0,0,0,0,0,-32317,0,0,0,3979,0,33911,0
25948,-56,-8278,460,-35,2,45,-11279,22,7,-48,0,37378,285,25,79,0,0,0,0,0,0,0,0,-32317,0,0,0,3980,0,33931,0
25958,-52,-8286,480,-39,-15,48,-11267,25,13,-54,0,37376,288,25,79,0,0,0,0,0,0,0,0,-32318,0,0,0,3981,0,33951,0
25968,-68,-8268,480,-32,-35,39,-11261,11,-8,-31,0,37381,294,25,79,0,0,0,0,0,0,0,0,-32318,0,0,0,3983,0,33971,0
25978,-182,-8270,484,-38,-13,31,-11257,0,-11,-14,0,37382,305,25,79,0,0,0,0,0,0,0,0,-32317,0,0,0,3984,0,33991,0
25988,-202,-8300,540,-38,28,17,-11257,7,-13,-10,0,37382,307,25,79,0,0,0,0,0,0,0,0,-32317,0,0,0,3985,0,34011,0
25998,-168,-8322,514,-45,47,7,-11254,9,-2,-7,0,37379,307,25,79,0,0,0,0,0,0,0,0,-32318,0,0,0,3984,0,34031,0
26008,-56,-8276,496,-45,38,10,-11256,-4,-4,0,0,37376,305,25,79,0,0,0,0,0,0,0,0,-32318,0,0,0,3985,0,34051,0
26018,-24,-8272,502,-48,41,16,-11257,-4,-7,-1,0,37376,313,25,79,0,0,0,0,0,0,0,0,-32318,0,0,0,3984,0,34071,0
26028,-88,-8290,540,-53,43,20,-11255,-5,4,-3,0,37378,312,25,79,0,0,0,0,0,0,0,0,-32318,0,0,0,3985,0,34091,0
26038,-112,-8304,514,-55,39,18,-11254,3,1,-2,0,37388,319,25,79,0,0,0,0,0,0,0,0,-32317,0,0,0,3984,0,34111,0
26048,-92,-8284,480,-55,44,18,-11255,3,-1,-4,0,37396,315,26,79,0,0,0,0,0,0,0,0,-32318,0,0,0,3985,0,34131,0
26058,-80,-8282,454,-52,41,20,-11255,0,0,-1,0,37401,304,25,79,0,0,0,0,0,0,0,0,-32317,0,0,0,3984,0,34151,0
26068,-108,-8288,438,-46,41,21,-11254,6,-1,-3,0,37395,303,25,79,0,0,0,0,0,0,0,0,-32317,0,0,0,3985,0,34171,0
26078,-152,-8272,474,-45,36,15,-11256,-9,-2,-5,0,37391,301,25,79,0,0,0,0,0,0,0,0,-32317,0,0,0,3985,0,34191,0
26088,-140,-8278,510,-44,39,11,-11253,2,1,0,0,37382,298,25,79,0,0,0,0,0,0,0,0,-32318,0,0,0,3986,0,34212,0
26098,-120,-8298,514,-45,38,12,-11253,-1,5,-1,0,37376,298,25,79,0,0,0,0,0,0,0,0,-32317,0,0,0,3984,0,34232,0
26108,-92,-8302,498,-49,41,10,-11252,7,2,0,0,37370,305,25,79,0,0,0,0,0,0,0,0,-32318,0,0,0,3984,0,34252,0
26118,-54,-8260,470,-46,41,7,-11254,-3,3,-2,0,37373,306,25,79,0,0,0,0,0,0,0,0,-32318,0,0,0,3984,0,34277,0
26128,-40,-8294,500,-49,38,12,-11252,5,0,-2,0,37376,304,25,79,0,0,0,0,0,0,0,0,-32317,0,0,0,3984,0,34297,0
26138,-50,-8258,504,-49,39,18,-11254,-5,0,0,0,37375,308,25,79,0,0,0,0,0,0,0,0,-32318,0,0,0,3984,0,34317,0
26148,-88,-8324,518,-52,42,20,-11254,-10,0,-3,0,37372,312,25,79,0,0,0,0,0,0,0,0,-32317,0,0,0,3984,0,34337,0
26158,-98,-8268,500,-48,37,24,-11253,-1,1,-3,0,37371,313,25,79,0,0,0,0,0,0,0,0,-32317,0,0,0,3985,0,34357,0
26168,-140,-8304,496,-49,41,18,-11252,0,3,-4,0,37371,307,25,79,0,0,0,0,0,0,0,0,-32317,0,0,0,3984,0,34377,0
26178,-116,-8276,494,-48,44,22,-11251,4,5,-4,0,37380,308,25,79,0,0,0,0,0,0,0,0,-32318,0,0,0,3984,0,34397,0
26188,-112,-8284,518,-50,38,13,-11253,-4,0,-1,0,37380,312,25,79,0,0,0,0,0,0,0,0,-32318,0,0,0,3986,0,34417,0
26198,-114,-8290,498,-55,43,14,-11251,13,0,-1,0,37378,307,25,79,0,0,0,0,0,0,0,0,-32318,0,0,0,3984,0,34437,0
26208,-104,-8290,490,-57,40,15,-11252,-2,3,0,0,37370,301,25,79,0,0,0,0,0,0,0,0,-32318,0,0,0,3986,0,34457,0
26218,-82,-8292,488,-57,40,17,-11252,-7,-2,-2,0,37370,294,25,79,0,0,0,0,0,0,0,0,-32317,0,0,0,3986,0,34478,0
26228,-84,-8292,508,-52,41,17,-11253,-3,-2,-3,0,37372,290,25,79,0,0,0,0,0,0,0,0,-32318,0,0,0,3986,0,34498,0
26238,-80,-8300,484,-56,39,18,-11252,2,1,1,0,37371,294,25,79,0,0,0,0,0,0,0,0,-32318,0,0,0,3986,0,34518,0
26248,-72,-8260,496,-51,40,19,-11252,-7,2,-3,0,37371,289,25,79,0,0,0,0,0,0,0,0,-32317,0,0,0,3986,0,34538,0
26258,-122,-8306,498,-51,42,17,-11250,9,0,-2,0,37373,297,25,79,0,0,0,0,0,0,0,0,-32318,0,0,0,3986,0,34558,0
26268,-122,-8284,500,-57,43,19,-11250,3,5,-3,0,37377,296,25,79,0,0,0,0,0,0,0,0,-32318,0,0,0,3986,0,34578,0
26278,-142,-8294,480,-47,43,15,-11250,2,-2,-1,0,37377,301,25,79,0,0,0,0,0,0,0,0,-32318,0,0,0,3986,0,34598,0
26288,-136,-8284,486,-55,39,8,-11250,0,-1,0,0,37380,302,25,79,0,0,0,0,0,0,0,0,-32318,0,0,0,3985,0,34618,0
26298,-118,-8288,502,-52,41,9,-11250,0,-3,0,0,37378,315,25,79,0,0,0,0,0,0,0,0,-32318,0,0,0,3986,0,34638,0
26308,-96,-8268,492,-53,33,8,-11250,-6,1,0,0,37374,313,25,79,0,0,0,0,0,0,0,0,-32317,0,0,0,3984,0,34658,0
26318,-110,-8300,484,-55,40,5,-11250,9,2,0,0,37365,318,25,79,0,0,0,0,0,0,0,0,-32318,0,0,0,3986,0,34678,0
26328,-62,-8288,492,-50,37,16,-11251,0,5,0,0,37365,316,25,79,0,0,0,0,0,0,0,0,-32317,0,0,0,3985,0,34698,0
26338,-112,-8294,466,-55,38,9,-11250,6,1,1,0,37365,312,25,79,0,0,0,0,0,0,0,0,-32318,0,0,0,3986,0,34718,0
26348,-92,-8284,492,-44,41,15,-11251,2,3,-1,0,37365,304,25,79,0,0,0,0,0,0,0,0,-32318,0,0,0,3986,0,34738,0
26358,-88,-8282,458,-50,34,8,-11251,-7,0,-1,0,37365,292,25,79,0,0,0,0,0,0,0,0,-32318,0,0,0,3984,0,34758,0
26368,-104,-8284,492,-53,31,12,-11251,0,1,0,0,37366,293,25,79,0,0,0,0,0,0,0,0,-32317,0,0,0,3984,0,34778,0
26378,-86,-8276,490,-46,25,11,-11250,5,2,0,0,37365,305,25,79,0,0,0,0,0,0,0,0,-32318,0,0,0,3986,0,34798,0
26388,-80,-8276,522,-45,31,8,-11252,-8,-4,-2,0,37370,305,25,79,0,0,0,0,0,0,0,0,-32318,0,0,0,3985,0,34818,0
26398,-68,-8290,514,-55,37,17,-11251,-4,3,0,0,37368,307,25,79,0,0,0,0,0,0,0,0,-32317,0,0,0,3986,0,34838,0
26408,-80,-8282,514,-52,42,14,-11252,-1,2,-1,0,37371,304,25,79,0,0,0,0,0,0,0,0,-32317,0,0,0,3986,0,34858,0
26418,-44,-8294,498,-57,41,13,-11250,3,2,0,0,37368,305,25,79,0,0,0,0,0,0,0,0,-32318,0,0,0,3985,0,34878,0
26428,-66,-8290,498,-56,41,15,-11250,7,3,0,0,37367,303,25,79,0,0,0,0,0,0,0,0,-32318,0,0,0,3985,0,34898,0
26438,-84,-8266,476,-61,45,14,-11251,1,3,1,0,37366,307,25,79,0,0,0,0,0,0,0,0,-32318,0,0,0,3986,0,34918,0
26448,-110,-8306,504,-57,45,17,-11249,12,-1,-2,0,37366,308,25,79,0,0,0,0,0,0,0,0,-32318,0,0,0,3985,0,34938,0
26458,-142,-8292,494,-61,38,13,-11250,-4,3,0,0,37367,308,25,79,0,0,0,0,0,0,0,0,-32317,0,0,0,3986,0,34958,0
26468,-118,-8264,462,-55,37,13,-11251,0,4,0,0,37369,310,25,79,0,0,0,0,0,0,0,0,-32317,0,0,0,3984,0,34978,0
26478,-108,-8302,472,-53,45,13,-11250,2,-1,0,0,37369,318,25,79,0,0,0,0,0,0,0,0,-32318,0,0,0,3986,0,34998,0
26488,-118,-8276,484,-52,41,9,-11250,1,3,0,0,37370,318,25,79,0,0,0,0,0,0,0,0,-32318,0,0,0,3986,0,35019,0
26498,-108,-8284,490,-54,34,15,-11250,6,0,0,0,37375,307,25,79,0,0,0,0,0,0,0,0,-32317,0,0,0,3985,0,35039,0
26508,-118,-8316,508,-54,33,10,-11251,1,-2,0,0,37374,295,25,79,0,0,0,0,0,0,0,0,-32317,0,0,0,3986,0,35059,0
26518,-72,-8264,506,-59,33,9,-11249,14,-1,0,0,37373,299,25,79,0,0,0,0,0,0,0,0,-32318,0,0,0,3987,0,35079,0
26528,-76,-8280,484,-57,40,8,-11250,0,-3,-1,0,37368,306,25,79,0,0,0,0,0,0,0,0,-32318,0,0,0,3986,0,35099,0
26538,-82,-8298,490,-56,38,11,-11251,-13,3,1,0,37369,306,25,79,0,0,0,0,0,0,0,0,-32318,0,0,0,3986,0,35118,0
26548,-104,-8276,460,-54,38,15,-11251,0,0,0,0,37371,307,25,79,0,0,0,0,0,0,0,0,-32318,0,0,0,3986,0,35138,0
26558,-82,-8300,474,-54,35,15,-11249,-8,-5,-1,0,37370,304,25,79,0,0,0,0,0,0,0,0,-32318,0,0,0,3986,0,35158,0
26568,-96,-8286,496,-52,47,18,-11251,4,2,0,0,37370,303,25,79,0,0,0,0,0,0,0,0,-32317,0,0,0,3986,0,35179,0
26578,-104,-8280,482,-52,39,14,-11249,5,1,-1,0,37371,295,25,79,0,0,0,0,0,0,0,0,-32318,0,0,0,3986,0,35199,0
26588,-74,-8276,484,-44,41,15,-11250,-1,0,1,0,37374,296,25,79,0,0,0,0,0,0,0,0,-32317,0,0,0,3986,0,35219,0
26598,-110,-8266,498,-52,38,12,-11251,-1,1,1,0,37379,297,25,79,0,0,0,0,0,0,0,0,-32317,0,0,0,3986,0,35239,0
26608,-116,-8300,492,-53,37,12,-11250,6,4,-1,0,37376,295,25,79,0,0,0,0,0,0,0,0,-32317,0,0,0,3986,0,35259,0
26618,-72,-8278,488,-55,46,12,-11250,4,5,0,0,37376,294,25,79,0,0,0,0,0,0,0,0,-32317,0,0,0,3986,0,35279,0
26628,-90,-8290,468,-54,40,14,-11251,-3,-3,-1,0,37375,303,25,79,0,0,0,0,0,0,0,0,-32318,0,0,0,3986,0,35299,0
26638,-84,-8290,492,-47,43,12,-11251,-4,8,0,0,37377,313,25,79,0,0,0,0,0,0,0,0,-32317,0,0,0,3985,0,35319,0
26648,-88,-8282,478,-51,41,14,-11249,9,2,-1,0,37374,312,25,79,0,0,0,0,0,0,0,0,-32317,0,0,0,3986,0,35339,0
26658,-88,-8320,492,-47,45,16,-11250,1,-1,0,0,37371,313,25,79,0,0,0,0,0,0,0,0,-32318,0,0,0,3986,0,35359,0
26668,-100,-8286,488,-50,40,21,-11251,-5,6,0,0,37374,304,25,79,0,0,0,0,0,0,0,0,-32317,0,0,0,3985,0,35379,0
26678,-116,-8284,486,-47,39,18,-11250,14,2,-1,0,37376,305,25,79,0,0,0,0,0,0,0,0,-32318,0,0,0,3986,0,35399,0
26688,-56,-8258,508,-49,43,19,-11250,4,3,0,0,37373,302,25,79,0,0,0,0,0,0,0,0,-32318,0,0,0,3986,0,35419,0
26698,-82,-8306,504,-55,45,21,-11251,-2,0,0,0,37372,308,25,79,0,0,0,0,0,0,0,0,-32317,0,0,0,3986,0,35439,0
26708,-104,-8274,470,-54,41,22,-11250,3,1,0,0,37382,303,25,79,0,0,0,0,0,0,0,0,-32317,0,0,0,3986,0,35459,0
26718,-120,-8296,468,-53,38,19,-11248,0,-7,0,0,37385,299,25,79,0,0,0,0,0,0,0,0,-32318,0,0,0,3986,0,35479,0
26728,-92,-8256,472,-48,42,18,-11250,0,0,-1,0,37385,296,25,79,0,0,0,0,0,0,0,0,-32318,0,0,0,3984,0,35499,0
26738,-108,-8270,482,-49,42,17,-11249,3,-3,-1,0,37375,305,25,79,0,0,0,0,0,0,0,0,-32317,0,0,0,3986,0,35519,0
26748,-100,-8290,506,-50,46,19,-11251,-5,-1,-1,0,37374,308,25,79,0,0,0,0,0,0,0,0,-32317,0,0,0,3985,0,35539,0
26758,-80,-8304,498,-51,42,17,-11251,-4,-3,-2,0,37376,310,25,79,0,0,0,0,0,0,0,0,-32317,0,0,0,3986,0,35559,0
26768,-86,-8322,520,-51,43,18,-11249,2,1,-3,0,37379,315,25,79,0,0,0,0,0,0,0,0,-32318,0,0,0,3984,0,35579,0
26778,-86,-8292,510,-55,44,20,-11251,-7,-3,-2,0,37379,318,25,79,0,0,0,0,0,0,0,0,-32317,0,0,0,3986,0,35599,0
26788,-110,-8300,470,-57,38,23,-11249,-5,4,-3,0,37380,308,25,79,0,0,0,0,0,0,0,0,-32318,0,0,0,3987,0,35619,0
26798,-90,-8284,472,-60,41,24,-11248,5,-3,-2,0,37380,300,25,79,0,0,0,0,0,0,0,0,-32318,0,0,0,3986,0,35639,0
26808,-110,-8292,472,-55,45,19,-11249,-1,4,-4,0,37385,289,25,79,0,0,0,0,0,0,0,0,-32318,0,0,0,3985,0,35659,0
26818,-114,-8342,478,-51,40,20,-11249,-4,7,-2,0,37387,304,25,79,0,0,0,0,0,0,0,0,-32318,0,0,0,3986,0,35679,0
26828,-102,-8290,474,-50,35,17,-11248,-5,-3,-2,0,37388,307,25,79,0,0,0,0,0,0,0,0,-32317,0,0,0,3986,0,35699,0
26838,-114,-8274,494,-48,38,17,-11247,8,1,-3,0,37387,308,25,79,0,0,0,0,0,0,0,0,-32317,0,0,0,3985,0,35719,0
26848,-148,-8302,478,-45,41,10,-11247,0,1,0,0,37387,310,25,79,0,0,0,0,0,0,0,0,-32317,0,0,0,3986,0,35739,0
26858,-82,-8278,518,-49,43,11,-11248,-4,-2,-1,0,37387,306,25,79,0,0,0,0,0,0,0,0,-32317,0,0,0,3986,0,35759,0
26868,-88,-8290,524,-44,42,13,-11247,7,0,2,0,37386,305,25,79,0,0,0,0,0,0,0,0,-32317,0,0,0,3986,0,35779,0
26878,-80,-8292,514,-49,42,14,-11247,-5,2,-1,0,37384,309,25,79,0,0,0,0,0,0,0,0,-32317,0,0,0,3986,0,35799,0
26888,-66,-8268,530,-51,40,13,-11248,4,-2,-1,0,37381,310,25,79,0,0,0,0,0,0,0,0,-32318,0,0,0,3984,0,35819,0
26898,-74,-8284,506,-49,41,18,-11246,4,8,0,0,37379,312,25,79,0,0,0,0,0,0,0,0,-32317,0,0,0,3985,0,35839,0
26908,-100,-8308,482,-55,40,23,-11248,-9,0,-1,0,37378,306,25,79,0,0,0,0,0,0,0,0,-32317,0,0,0,3984,0,35859,0
26918,-106,-8278,500,-56,37,17,-11247,3,-4,-2,0,37384,306,25,79,0,0,0,0,0,0,0,0,-32317,0,0,0,3985,0,35879,0
26928,-108,-8280,492,-49,38,18,-11247,1,-1,-2,0,37385,310,25,79,0,0,0,0,0,0,0,0,-32317,0,0,0,3986,0,35899,0
26938,-134,-8298,484,-55,38,13,-11248,-4,0,-3,0,37386,318,25,79,0,0,0,0,0,0,0,0,-32317,0,0,0,3985,0,35919,0
26948,-114,-8278,476,-51,39,18,-11248,-9,-6,-2,0,37378,317,25,79,0,0,0,0,0,0,0,0,-32317,0,0,0,3986,0,35939,0
26958,-112,-8314,478,-46,41,10,-11246,0,-2,-3,0,37377,312,25,79,0,0,0,0,0,0,0,0,-32317,0,0,0,3986,0,35959,0
26968,-118,-8306,482,-53,45,8,-11246,3,3,0,0,37379,313,25,79,0,0,0,0,0,0,0,0,-32318,0,0,0,3986,0,35979,0
26978,-122,-8284,488,-49,43,12,-11246,-4,-3,-2,0,37379,311,25,79,0,0,0,0,0,0,0,0,-32317,0,0,0,3986,0,35999,0
26988,-98,-8308,488,-52,33,9,-11247,-7,-4,0,0,37379,314,25,79,0,0,0,0,0,0,0,0,-32317,0,0,0,3987,0,36019,0
26998,-106,-8304,462,-51,39,7,-11245,9,3,1,0,37377,308,25,79,0,0,0,0,0,0,0,0,-32317,0,0,0,3986,0,36039,0
27008,-86,-8318,484,-48,42,13,-11248,-1,-1,0,0,37376,306,25,79,0,0,0,0,0,0,0,0,-32318,0,0,0,3986,0,36059,0
27018,-90,-8298,504,-51,43,13,-11246,-2,0,-2,0,37381,303,25,79,0,0,0,0,0,0,0,0,-32317,0,0,0,3986,0,36079,0
27028,-88,-8294,508,-53,42,14,-11247,3,-3,-1,0,37381,304,25,79,0,0,0,0,0,0,0,0,-32317,0,0,0,3986,0,36100,0
27038,-76,-8304,498,-54,39,11,-11248,-10,1,0,0,37380,309,25,79,0,0,0,0,0,0,0,0,-32318,0,0,0,3986,0,36120,0
27048,-80,-8284,480,-56,42,13,-11247,-5,0,0,0,37374,307,25,79,0,0,0,0,0,0,0,0,-32317,0,0,0,3986,0,36140,0
27058,-80,-8310,492,-57,45,16,-11247,-5,-4,0,0,37373,300,25,79,0,0,0,0,0,0,0,0,-32317,0,0,0,3985,0,36160,0
27068,-92,-8290,496,-55,40,16,-11247,1,-1,-1,0,37373,304,25,79,0,0,0,0,0,0,0,0,-32317,0,0,0,3986,0,36180,0
27078,-82,-8288,472,-49,41,20,-11246,0,0,-1,0,37376,309,26,79,0,0,0,0,0,0,0,0,-32318,0,0,0,3986,0,36200,0
27088,-110,-8312,468,-55,34,15,-11247,6,-1,-1,0,37376,306,25,79,0,0,0,0,0,0,0,0,-32317,0,0,0,3986,0,36220,0
27098,-124,-8314,472,-53,34,12,-11247,-2,2,0,0,37373,305,25,79,0,0,0,0,0,0,0,0,-32317,0,0,0,3986,0,36240,0
27108,-104,-8274,468,-47,35,10,-11248,-1,-1,0,0,37371,308,25,79,0,0,0,0,0,0,0,0,-32317,0,0,0,3987,0,36261,0
27118,-110,-8288,480,-50,41,12,-11248,2,3,1,0,37375,313,25,79,0,0,0,0,0,0,0,0,-32317,0,0,0,3986,0,36281,0
27128,-86,-8298,462,-46,37,9,-11247,2,5,0,0,37377,318,25,79,0,0,0,0,0,0,0,0,-32318,0,0,0,3986,0,36301,0
27138,-58,-8278,496,-52,41,8,-11248,-3,-3,0,0,37378,310,25,79,0,0,0,0,0,0,0,0,-32318,0,0,0,3986,0,36321,0
27148,-86,-8298,480,-50,40,14,-11248,-5,-2,0,0,37373,302,25,79,0,0,0,0,0,0,0,0,-32317,0,0,0,3986,0,36341,0
27158,-72,-8252,512,-51,38,13,-11246,4,-7,0,0,37371,300,25,79,0,0,0,0,0,0,0,0,-32317,0,0,0,3986,0,36361,0
27168,-82,-8294,510,-55,42,14,-11247,0,0,0,0,37371,300,25,79,0,0,0,0,0,0,0,0,-32318,0,0,0,3986,0,36381,0
27178,-76,-8276,534,-51,42,17,-11249,-9,-2,-2,0,37371,308,25,79,0,0,0,0,0,0,0,0,-32317,0,0,0,3986,0,36401,0
27188,-78,-8284,528,-61,43,17,-11247,0,0,-1,0,37372,310,25,79,0,0,0,0,0,0,0,0,-32317,0,0,0,3986,0,36421,0
27198,-84,-8298,490,-60,46,20,-11248,0,5,0,0,37369,304,25,79,0,0,0,0,0,0,0,0,-32317,0,0,0,3986,0,36441,0
27208,-64,-8284,454,-58,48,23,-11246,2,-3,-2,0,37367,302,25,79,0,0,0,0,0,0,0,0,-32318,0,0,0,3986,0,36461,0
27218,-108,-8294,448,-60,45,20,-11247,-4,-3,0,0,37370,307,25,79,0,0,0,0,0,0,0,0,-32317,0,0,0,3986,0,36481,0
27228,-84,-8312,498,-55,49,26,-11247,1,2,0,0,37378,311,25,79,0,0,0,0,0,0,0,0,-32317,0,0,0,3984,0,36501,0
27238,-110,-8274,492,-60,46,16,-11248,-3,3,0,0,37377,308,26,79,0,0,0,0,0,0,0,0,-32318,0,0,0,3986,0,36521,0
27248,-94,-8284,460,-57,49,22,-11247,-3,-1,-2,0,37372,310,25,79,0,0,0,0,0,0,0,0,-32317,0,0,0,3986,0,36542,0
27258,-112,-8270,458,-59,44,18,-11247,3,-2,-2,0,37366,305,25,79,0,0,0,0,0,0,0,0,-32317,0,0,0,3986,0,36562,0
27268,-106,-8300,474,-50,36,19,-11247,-2,-4,-3,0,37368,312,25,79,0,0,0,0,0,0,0,0,-32317,0,0,0,3984,0,36582,0
27278,-90,-8302,472,-56,40,15,-11248,-2,6,0,0,37370,314,25,79,0,0,0,0,0,0,0,0,-32317,0,0,0,3985,0,36602,0
27288,-130,-8296,480,-53,39,15,-11246,-1,-3,-2,0,37369,313,25,79,0,0,0,0,0,0,0,0,-32317,0,0,0,3985,0,36622,0
27298,-134,-8284,470,-51,45,11,-11247,-3,2,0,0,37368,310,25,79,0,0,0,0,0,0,0,0,-32317,0,0,0,3987,0,36643,0
27308,-120,-8304,488,-52,46,12,-11247,-4,-2,-2,0,37369,306,25,79,0,0,0,0,0,0,0,0,-32317,0,0,0,3986,0,36663,0
27318,-80,-8302,498,-52,36,11,-11247,7,-2,0,0,37380,307,25,79,0,0,0,0,0,0,0,0,-32317,0,0,0,3986,0,36683,0
27328,-86,-8300,492,-51,41,11,-11246,3,2,1,0,37381,308,26,79,0,0,0,0,0,0,0,0,-32317,0,0,0,3984,0,36703,0
27338,-62,-8312,492,-51,43,17,-11246,3,1,1,0,37382,310,25,79,0,0,0,0,0,0,0,0,-32317,0,0,0,3985,0,36723,0
27348,-72,-8286,484,-49,44,17,-11247,8,-1,-1,0,37374,309,25,79,0,0,0,0,0,0,0,0,-32318,0,0,0,3986,0,36743,0
27358,-58,-8274,482,-54,37,20,-11247,-1,-6,0,0,37368,306,25,79,0,0,0,0,0,0,0,0,-32317,0,0,0,3986,0,36763,0
27368,-108,-8298,476,-45,39,14,-11245,8,4,-1,0,37368,304,25,79,0,0,0,0,0,0,0,0,-32317,0,0,0,3986,0,36783,0
27378,-122,-8320,478,-44,40,11,-11247,-1,0,0,0,37367,302,25,79,0,0,0,0,0,0,0,0,-32317,0,0,0,3986,0,36803,0
27388,-96,-8288,494,-51,44,17,-11247,-8,5,0,0,37367,297,25,79,0,0,0,0,0,0,0,0,-32318,0,0,0,3986,0,36823,0
27398,-108,-8286,498,-51,42,14,-11247,-4,-4,-1,0,37365,294,25,79,0,0,0,0,0,0,0,0,-32317,0,0,0,3986,0,36843,0
27408,-54,-8286,500,-51,40,18,-11247,3,2,-1,0,37369,299,25,79,0,0,0,0,0,0,0,0,-32317,0,0,0,3986,0,36863,0
27418,-94,-8270,494,-51,41,15,-11247,-8,2,0,0,37374,305,25,79,0,0,0,0,0,0,0,0,-32317,0,0,0,3986,0,36883,0
27428,-106,-8288,478,-53,41,16,-11247,-9,1,0,0,37376,314,25,79,0,0,0,0,0,0,0,0,-32317,0,0,0,3987,0,36903,0
27438,-114,-8286,496,-51,40,16,-11247,-3,3,-1,0,37379,312,25,79,0,0,0,0,0,0,0,0,-32318,0,0,0,3985,0,36923,0
27448,-122,-8280,472,-50,44,18,-11247,-1,0,-1,0,37379,313,25,79,0,0,0,0,0,0,0,0,-32317,0,0,0,3986,0,36943,0
27458,-106,-8298,478,-49,35,15,-11247,-1,-4,-1,0,37379,315,25,79,0,0,0,0,0,0,0,0,-32317,0,0,0,3985,0,36963,0
27468,-80,-8284,464,-51,37,13,-11246,-3,-4,-1,0,37373,322,25,79,0,0,0,0,0,0,0,0,-32317,0,0,0,3986,0,36983,0
27478,-100,-8296,464,-43,38,13,-11247,-3,-4,1,0,37370,317,25,79,0,0,0,0,0,0,0,0,-32317,0,0,0,3987,0,37003,0
27488,-90,-8318,460,-44,35,11,-11246,2,-4,0,0,37367,318,25,79,0,0,0,0,0,0,0,0,-32317,0,0,0,3986,0,37023,0
27498,-100,-8306,474,-44,36,14,-11248,-8,-8,0,0,37367,313,25,79,0,0,0,0,0,0,0,0,-32317,0,0,0,3986,0,37043,0
27508,-104,-8310,490,-38,32,14,-11246,9,3,0,0,37368,304,25,79,0,0,0,0,0,0,0,0,-32317,0,0,0,3984,0,37063,0
27518,-120,-8244,486,-43,33,10,-11247,-4,1,-1,0,37369,309,25,79,0,0,0,0,0,0,0,0,-32317,0,0,0,3986,0,37083,0
27528,-106,-8312,524,-40,39,12,-11247,0,-3,1,0,37370,305,25,79,0,0,0,0,0,0,0,0,-32317,0,0,0,3986,0,37103,0
27538,-84,-8264,536,-45,41,12,-11247,-4,2,-1,0,37370,302,25,79,0,0,0,0,0,0,0,0,-32317,0,0,0,3986,0,37123,0
27548,-86,-8284,540,-50,44,14,-11246,3,3,1,0,37375,299,25,79,0,0,0,0,0,0,0,0,-32318,0,0,0,3986,0,37143,0
27558,-90,-8244,494,-55,38,16,-11247,-1,-3,-1,0,37377,303,25,79,0,0,0,0,0,0,0,0,-32317,0,0,0,3986,0,37163,0
27568,-76,-8308,472,-52,46,24,-11246,0,2,0,0,37376,308,25,79,0,0,0,0,0,0,0,0,-32318,0,0,0,3987,0,37183,0
27578,-96,-8270,460,-51,41,16,-11248,-7,2,0,0,37371,313,26,79,0,0,0,0,0,0,0,0,-32317,0,0,0,3986,0,37203,0
27588,-104,-8300,492,-44,41,12,-11245,0,-4,-1,0,37371,304,25,79,0,0,0,0,0,0,0,0,-32317,0,0,0,3987,0,37223,0
27598,-120,-8272,488,-51,43,14,-11248,-3,-1,-1,0,37372,312,25,79,0,0,0,0,0,0,0,0,-32318,0,0,0,3986,0,37243,0
27608,-102,-8266,468,-51,40,14,-11246,2,5,0,0,37372,311,25,79,0,0,0,0,0,0,0,0,-32317,0,0,0,3986,0,37263,0
27618,-102,-8268,490,-50,41,14,-11246,5,-5,0,0,37371,311,25,79,0,0,0,0,0,0,0,0,-32318,0,0,0,3986,0,37283,0
27628,-70,-8296,500,-53,45,15,-11246,0,1,0,0,37372,310,25,79,0,0,0,0,0,0,0,0,-32318,0,0,0,3986,0,37303,0
27638,-68,-8278,492,-46,44,11,-11246,0,3,0,0,37374,309,25,79,0,0,0,0,0,0,0,0,-32318,0,0,0,3986,0,37323,0
27648,-86,-8300,484,-52,39,20,-11246,0,1,0,0,37375,316,25,79,0,0,0,0,0,0,0,0,-32317,0,0,0,3986,0,37343,0
27658,-112,-8294,472,-49,40,14,-11247,-6,1,2,0,37373,315,25,79,0,0,0,0,0,0,0,0,-32318,0,0,0,3986,0,37363,0
27668,-122,-8280,494,-50,43,15,-11246,0,-5,-1,0,37373,312,25,79,0,0,0,0,0,0,0,0,-32317,0,0,0,3986,0,37383,0
27678,-92,-8302,502,-46,43,19,-11248,-8,-6,2,0,37375,309,25,79,0,0,0,0,0,0,0,0,-32317,0,0,0,3986,0,37404,0
27688,-82,-8286,496,-50,36,16,-11247,-5,0,-1,0,37376,309,25,79,0,0,0,0,0,0,0,0,-32317,0,0,0,3986,0,37424,0
27698,-96,-8266,490,-46,42,17,-11247,4,-1,-2,0,37372,306,25,79,0,0,0,0,0,0,0,0,-32318,0,0,0,3986,0,37444,0
27708,-128,-8282,484,-50,37,16,-11247,-3,-3,-1,0,37371,308,25,79,0,0,0,0,0,0,0,0,-32317,0,0,0,3986,0,37464,0
27718,-114,-8282,502,-52,42,14,-11246,-2,-1,-1,0,37376,307,25,79,0,0,0,0,0,0,0,0,-32318,0,0,0,3987,0,37484,0
27728,-104,-8292,478,-50,41,13,-11246,-9,-1,0,0,37379,310,25,79,0,0,0,0,0,0,0,0,-32317,0,0,0,3986,0,37504,0
27738,-78,-8300,464,-47,39,14,-11248,0,0,0,0,37376,310,25,79,0,0,0,0,0,0,0,0,-32317,0,0,0,3985,0,37524,0
27748,-90,-8300,466,-40,32,11,-11247,-5,3,0,0,37374,314,25,79,0,0,0,0,0,0,0,0,-32318,0,0,0,3986,0,37544,0
27758,-108,-8288,482,-48,41,14,-11248,-5,1,0,0,37381,319,25,79,0,0,0,0,0,0,0,0,-32318,0,0,0,3986,0,37564,0
27768,-92,-8278,504,-48,37,17,-11247,-1,-4,0,0,37382,315,25,79,0,0,0,0,0,0,0,0,-32317,0,0,0,3986,0,37584,0
27778,-108,-8300,504,-47,42,15,-11247,-4,-5,0,0,37380,321,25,79,0,0,0,0,0,0,0,0,-32317,0,0,0,3986,0,37604,0
27788,-100,-8282,510,-51,39,15,-11246,-2,0,-1,0,37375,309,25,79,0,0,0,0,0,0,0,0,-32317,0,0,0,3986,0,37624,0
27798,-96,-8282,540,-50,37,12,-11247,0,-3,0,0,37376,308,26,79,0,0,0,0,0,0,0,0,-32317,0,0,0,3987,0,37644,0
27808,-88,-8302,492,-50,38,16,-11246,1,-4,1,0,37380,294,25,79,0,0,0,0,0,0,0,0,-32317,0,0,0,3986,0,37664,0
27818,-66,-8272,496,-50,36,16,-11246,-7,-1,-1,0,37380,299,25,79,0,0,0,0,0,0,0,0,-32317,0,0,0,3987,0,37684,0
27828,-92,-8304,466,-52,36,17,-11246,2,-1,0,0,37379,305,25,79,0,0,0,0,0,0,0,0,-32317,0,0,0,3986,0,37704,0
27838,-88,-8282,476,-50,45,17,-11246,0,-5,0,0,37377,306,25,79,0,0,0,0,0,0,0,0,-32317,0,0,0,3986,0,37724,0
27848,-94,-8270,494,-47,42,12,-11246,7,-2,-1,0,37379,304,25,79,0,0,0,0,0,0,0,0,-32317,0,0,0,3986,0,37744,0
27858,-102,-8298,506,-48,45,17,-11246,4,0,-1,0,37382,304,25,79,0,0,0,0,0,0,0,0,-32317,0,0,0,3987,0,37764,0
27868,-100,-8262,500,-46,42,10,-11248,-9,-4,0,0,37387,304,25,79,0,0,0,0,0,0,0,0,-32317,0,0,0,3986,0,37784,0
27878,-110,-8258,492,-50,45,15,-11245,6,-1,-1,0,37385,307,25,79,0,0,0,0,0,0,0,0,-32317,0,0,0,3986,0,37804,0
27888,-108,-8296,474,-55,38,17,-11244,15,4,-1,0,37384,300,25,79,0,0,0,0,0,0,0,0,-32317,0,0,0,3986,0,37824,0
27898,-100,-8312,488,-50,39,13,-11247,-1,2,-1,0,37381,303,26,79,0,0,0,0,0,0,0,0,-32317,0,0,0,3984,0,37844,0
27908,-154,-8286,474,-49,34,12,-11246,0,0,0,0,37382,307,26,79,0,0,0,0,0,0,0,0,-32317,0,0,0,3987,0,37864,0
27918,-142,-8286,456,-46,36,11,-11247,-5,-5,0,0,37382,315,25,79,0,0,0,0,0,0,0,0,-32317,0,0,0,3986,0,37884,0
27928,-86,-8270,472,-39,30,8,-11247,-2,-3,-1,0,37380,315,25,79,0,0,0,0,0,0,0,0,-32317,0,0,0,3986,0,37904,0
27938,-94,-8290,486,-39,22,12,-11245,2,3,0,0,37379,315,25,79,0,0,0,0,0,0,0,0,-32317,0,0,0,3986,0,37924,0
27948,-82,-8282,494,-40,26,13,-11245,6,6,0,0,37379,314,25,79,0,0,0,0,0,0,0,0,-32318,0,0,0,3986,0,37944,0
27958,-112,-8262,504,-43,21,12,-11247,2,3,1,0,37378,307,25,79,0,0,0,0,0,0,0,0,-32318,0,0,0,3986,0,37964,0
27968,-104,-8298,512,-41,31,12,-11246,-2,3,0,0,37379,295,25,79,0,0,0,0,0,0,0,0,-32317,0,0,0,3987,0,37984,0
27978,-98,-8276,516,-44,27,9,-11247,0,-4,0,0,37383,290,25,79,0,0,0,0,0,0,0,0,-32317,0,0,0,3987,0,38004,0
27988,-112,-8284,508,-49,39,7,-11246,1,3,0,0,37385,297,25,79,0,0,0,0,0,0,0,0,-32318,0,0,0,3987,0,38024,0
27998,-86,-8264,496,-47,36,7,-11246,-4,1,-2,0,37390,298,25,79,0,0,0,0,0,0,0,0,-32318,0,0,0,3987,0,38044,0
28008,-102,-8308,476,-49,32,12,-11248,-1,-2,0,0,37383,307,25,79,0,0,0,0,0,0,0,0,-32317,0,0,0,3987,0,38064,0
28018,-78,-8300,470,-43,28,10,-11246,-5,-1,-1,0,37382,310,25,79,0,0,0,0,0,0,0,0,-32318,0,0,0,3987,0,38084,0
28028,-100,-8280,458,-46,14,12,-11246,3,0,0,0,37380,305,25,79,0,0,0,0,0,0,0,0,-32317,0,0,0,3987,0,38104,0
28038,-110,-8302,456,-31,-2,11,-11248,-2,-2,2,0,37381,309,25,79,0,0,0,0,0,0,0,0,-32317,0,0,0,3988,0,38124,0
28048,-90,-8308,484,-33,-19,16,-11245,10,5,0,0,37380,318,25,79,0,0,0,0,0,0,0,0,-32317,0,0,0,3988,0,38144,0
28058,-98,-8296,512,-30,-18,10,-11248,-7,-1,0,0,37379,328,25,79,0,0,0,0,0,0,0,0,-32317,0,0,0,3989,0,38164,0
28068,-90,-8302,494,-32,-7,8,-11247,-2,1,0,0,37374,325,25,79,0,0,0,0,0,0,0,0,-32318,0,0,0,3989,0,38184,0
28078,-100,-8302,488,-33,2,7,-11247,-5,2,0,0,37373,322,25,79,0,0,0,0,0,0,0,0,-32317,0,0,0,3990,0,38204,0
28088,-72,-8292,500,-43,20,10,-11246,6,-1,1,0,37372,315,25,79,0,0,0,0,0,0,0,0,-32317,0,0,0,3992,0,38224,0
28098,-72,-8296,502,-34,24,10,-11247,0,-1,-1,0,37372,310,25,79,0,0,0,0,0,0,0,0,-32317,0,0,0,3992,0,38244,0
28108,-84,-8278,496,-36,19,11,-11247,-1,-6,1,0,37370,304,25,79,0,0,0,0,0,0,0,0,-32318,0,0,0,3991,0,38264,0
28118,-106,-8300,500,-32,8,15,-11245,5,3,0,0,37371,307,25,79,0,0,0,0,0,0,0,0,-32317,0,0,0,3992,0,38284,0
28128,-112,-8294,448,-29,-19,16,-11248,-3,-12,0,0,37373,312,25,79,0,0,0,0,0,0,0,0,-32317,0,0,0,3992,0,38304,0
28138,-140,-8298,476,-31,-22,13,-11247,3,2,0,0,37373,312,25,79,0,0,0,0,0,0,0,0,-32317,0,0,0,3992,0,38324,0
28148,-124,-8322,492,-29,-24,8,-11246,4,5,0,0,37373,312,25,79,0,0,0,0,0,0,0,0,-32317,0,0,0,3992,0,38344,0
28158,-124,-8294,490,-23,-36,4,-11247,-3,-4,3,0,37372,314,25,79,0,0,0,0,0,0,0,0,-32317,0,0,0,3994,0,38364,0
28168,-100,-8288,424,-30,-40,-4,-11247,-1,3,0,0,37370,318,25,79,0,0,0,0,0,0,0,0,-32318,0,0,0,3994,0,38384,0
28178,-154,-8274,510,-28,0,-5,-11246,5,2,3,0,37374,311,25,79,0,0,0,0,0,0,0,0,-32318,0,0,0,3994,0,38404,0
28188,-112,-8290,504,-33,30,-8,-11246,3,0,4,0,37374,309,26,79,0,0,0,0,0,0,0,0,-32317,0,0,0,3996,0,38424,0
28198,-50,-8272,518,-30,40,-9,-11247,3,0,1,0,37373,305,25,79,0,0,0,0,0,0,0,0,-32317,0,0,0,3995,0,38445,0
28208,32,-8308,520,-32,41,-2,-11248,6,-2,3,0,37368,303,25,79,0,0,0,0,0,0,0,0,-32318,0,0,0,3995,0,38465,0
28218,20,-8278,498,-35,39,9,-11247,6,-2,0,0,37367,307,25,79,0,0,0,0,0,0,0,0,-32317,0,0,0,3995,0,38485,0
28228,-38,-8274,524,-34,34,18,-11248,-4,-2,-1,0,37368,310,25,79,0,0,0,0,0,0,0,0,-32318,0,0,0,3995,0,38505,0
28238,-94,-8314,538,-39,40,19,-11249,-4,4,0,0,37369,308,25,79,0,0,0,0,0,0,0,0,-32317,0,0,0,3996,0,38525,0
28248,-108,-8284,538,-38,50,15,-11248,-1,-2,-3,0,37368,306,25,79,0,0,0,0,0,0,0,0,-32317,0,0,0,3994,0,38545,0
28258,-90,-8310,522,-45,50,19,-11249,0,3,0,0,37367,298,25,79,0,0,0,0,0,0,0,0,-32317,0,0,0,3995,0,38565,0
28268,-110,-8302,538,-35,53,16,-11248,2,5,0,0,37366,307,25,79,0,0,0,0,0,0,0,0,-32318,0,0,0,3994,0,38585,0
28278,-60,-8262,538,-40,58,17,-11247,2,6,1,0,37368,313,25,79,0,0,0,0,0,0,0,0,-32317,0,0,0,3994,0,38605,0
28288,-94,-8350,488,-47,48,23,-11247,1,-3,1,0,37374,310,25,79,0,0,0,0,0,0,0,0,-32317,0,0,0,3994,0,38625,0
28298,-82,-8290,470,-38,40,19,-11248,-10,-2,-2,0,37373,309,25,79,0,0,0,0,0,0,0,0,-32317,0,0,0,3995,0,38645,0
28308,-110,-8280,462,-34,44,17,-11248,-3,2,0,0,37373,304,25,79,0,0,0,0,0,0,0,0,-32317,0,0,0,3995,0,38665,0
28318,-122,-8300,526,-35,50,15,-11248,6,4,0,0,37367,309,25,79,0,0,0,0,0,0,0,0,-32317,0,0,0,3996,0,38686,0
28328,-64,-8298,558,-35,51,12,-11249,0,4,1,0,37367,304,25,79,0,0,0,0,0,0,0,0,-32318,0,0,0,3994,0,38706,0
28338,-70,-8286,566,-35,52,15,-11248,5,-1,1,0,37366,306,25,79,0,0,0,0,0,0,0,0,-32317,0,0,0,3993,0,38726,0
28348,-82,-8292,552,-47,55,17,-11249,-7,1,0,0,37365,310,25,79,0,0,0,0,0,0,0,0,-32317,0,0,0,3994,0,38746,0
28358,-92,-8288,540,-45,51,15,-11249,-6,1,2,0,37364,311,26,79,0,0,0,0,0,0,0,0,-32317,0,0,0,3994,0,38765,0
28368,-74,-8282,532,-50,46,19,-11249,0,-1,1,0,37364,307,25,79,0,0,0,0,0,0,0,0,-32317,0,0,0,3994,0,38786,0
28378,-80,-8274,528,-52,47,19,-11248,1,1,2,0,37366,307,25,79,0,0,0,0,0,0,0,0,-32317,0,0,0,3993,0,38806,0
28388,-92,-8282,478,-51,49,17,-11247,1,-3,0,0,37366,311,25,79,0,0,0,0,0,0,0,0,-32317,0,0,0,3993,0,38826,0
28398,-64,-8258,480,-48,43,15,-11247,2,10,-1,0,37373,304,25,79,0,0,0,0,0,0,0,0,-32317,0,0,0,3995,0,38846,0
28408,-106,-8262,464,-43,46,20,-11247,0,0,-1,0,37371,304,25,79,0,0,0,0,0,0,0,0,-32317,0,0,0,3993,0,38866,0
28418,-90,-8296,500,-40,42,16,-11248,-9,-2,-2,0,37371,298,26,79,0,0,0,0,0,0,0,0,-32317,0,0,0,3993,0,38886,0
28428,-134,-8274,516,-42,37,15,-11248,0,-10,-1,0,37362,306,25,79,0,0,0,0,0,0,0,0,-32317,0,0,0,3994,0,38906,0
28438,-110,-8266,510,-49,32,14,-11247,-1,-2,-2,0,37362,311,25,79,0,0,0,0,0,0,0,0,-32317,0,0,0,3994,0,38926,0
28448,-94,-8304,534,-44,38,11,-11249,-5,-2,-2,0,37363,315,25,79,0,0,0,0,0,0,0,0,-32317,0,0,0,3994,0,38946,0
28458,-94,-8304,548,-41,41,16,-11248,0,0,-1,0,37367,311,25,79,0,0,0,0,0,0,0,0,-32317,0,0,0,3993,0,38966,0
28468,-92,-8296,552,-49,40,9,-11248,-4,2,-1,0,37369,309,25,79,0,0,0,0,0,0,0,0,-32318,0,0,0,3994,0,38986,0
28478,-72,-8294,550,-54,42,11,-11247,0,-2,0,0,37369,307,25,79,0,0,0,0,0,0,0,0,-32317,0,0,0,3994,0,39006,0
28488,-92,-8296,562,-51,46,18,-11249,-2,2,-1,0,37365,310,25,79,0,0,0,0,0,0,0,0,-32318,0,0,0,3994,0,39026,0
28498,-72,-8272,518,-60,45,17,-11246,9,0,-1,0,37367,314,25,79,0,0,0,0,0,0,0,0,-32318,0,0,0,3993,0,39046,0
28508,-62,-8280,504,-57,45,22,-11248,1,-3,0,0,37375,309,25,79,0,0,0,0,0,0,0,0,-32317,0,0,0,3993,0,39066,0
28518,-90,-8260,474,-55,38,20,-11247,1,-5,-1,0,37377,307,26,79,0,0,0,0,0,0,0,0,-32317,0,0,0,3994,0,39086,0
28528,-138,-8314,476,-54,38,17,-11247,-5,-2,0,0,37376,306,25,79,0,0,0,0,0,0,0,0,-32317,0,0,0,3994,0,39106,0
28538,-118,-8306,506,-58,42,12,-11248,-3,-1,0,0,37370,304,25,79,0,0,0,0,0,0,0,0,-32317,0,0,0,3993,0,39126,0
28548,-114,-8314,528,-56,34,13,-11248,-4,-4,-1,0,37371,304,25,79,0,0,0,0,0,0,0,0,-32317,0,0,0,3993,0,39146,0
28558,-124,-8276,528,-54,41,10,-11245,3,-5,0,0,37373,302,25,79,0,0,0,0,0,0,0,0,-32317,0,0,0,3993,0,39166,0
28568,-92,-8272,528,-55,40,11,-11247,-1,0,-1,0,37375,303,25,79,0,0,0,0,0,0,0,0,-32317,0,0,0,3994,0,39186,0
28578,-68,-8274,500,-52,42,9,-11246,4,-2,1,0,37376,310,25,79,0,0,0,0,0,0,0,0,-32317,0,0,0,3993,0,39206,0
28588,-68,-8294,500,-59,43,13,-11247,1,-3,-1,0,37377,313,25,79,0,0,0,0,0,0,0,0,-32317,0,0,0,3994,0,39226,0
28598,-78,-8264,502,-55,41,11,-11248,-5,-3,-2,0,37388,308,25,79,0,0,0,0,0,0,0,0,-32317,0,0,0,3993,0,39246,0
28608,-82,-8312,512,-57,34,13,-11247,2,3,2,0,37398,322,25,79,0,0,0,0,0,0,0,0,-32317,0,0,0,3994,0,39266,0
28618,-110,-8296,534,-57,34,11,-11246,4,-4,0,0,37408,319,25,79,0,0,0,0,0,0,0,0,-32317,0,0,0,3993,0,39286,0
28628,-90,-8296,538,-54,38,15,-11249,-3,0,0,0,37398,330,25,79,0,0,0,0,0,0,0,0,-32317,0,0,0,3994,0,39306,0
28638,-110,-8304,540,-60,41,14,-11248,-6,-2,0,0,37386,326,25,79,0,0,0,0,0,0,0,0,-32317,0,0,0,3994,0,39326,0
28648,-66,-8288,518,-57,43,21,-11248,-4,1,-1,0,37374,321,25,79,0,0,0,0,0,0,0,0,-32317,0,0,0,3993,0,39346,0
28658,-34,-8282,542,-63,43,23,-11250,-4,2,-1,0,37368,308,25,79,0,0,0,0,0,0,0,0,-32317,0,0,0,3994,0,39366,0
28668,-82,-8312,542,-63,49,21,-11248,0,-4,-2,0,37369,307,25,79,0,0,0,0,0,0,0,0,-32317,0,0,0,3993,0,39386,0
28678,-68,-8278,532,-61,45,26,-11247,0,-2,1,0,37372,314,25,79,0,0,0,0,0,0,0,0,-32317,0,0,0,3993,0,39406,0
28688,-92,-8316,490,-66,49,21,-11248,0,2,-2,0,37375,315,25,79,0,0,0,0,0,0,0,0,-32317,0,0,0,3994,0,39426,0
28698,-102,-8278,494,-66,47,27,-11248,-3,0,-1,0,37374,321,25,79,0,0,0,0,0,0,0,0,-32317,0,0,0,3993,0,39446,0
28708,-116,-8270,468,-64,52,22,-11246,5,1,-3,0,37376,320,25,79,0,0,0,0,0,0,0,0,-32318,0,0,0,3993,0,39466,0
28718,-100,-8288,494,-63,48,18,-11247,3,2,-1,0,37376,314,26,79,0,0,0,0,0,0,0,0,-32317,0,0,0,3993,0,39486,0
28728,-122,-8314,496,-62,37,20,-11247,0,3,0,0,37379,311,26,79,0,0,0,0,0,0,0,0,-32317,0,0,0,3993,0,39506,0
28738,-120,-8270,500,-54,41,22,-11248,-3,5,0,0,37376,310,25,79,0,0,0,0,0,0,0,0,-32317,0,0,0,3993,0,39526,0
28748,-116,-8324,526,-59,38,14,-11247,-2,-1,-1,0,37376,308,25,79,0,0,0,0,0,0,0,0,-32317,0,0,0,3994,0,39546,0
28758,-120,-8280,530,-58,36,16,-11247,1,-1,0,0,37376,308,25,79,0,0,0,0,0,0,0,0,-32317,0,0,0,3994,0,39566,0
28768,-110,-8292,502,-57,40,12,-11247,0,1,0,0,37378,308,26,79,0,0,0,0,0,0,0,0,-32318,0,0,0,3994,0,39586,0
28778,-102,-8284,514,-59,42,11,-11247,0,1,0,0,37377,306,25,79,0,0,0,0,0,0,0,0,-32318,0,0,0,3994,0,39606,0
28788,-84,-8292,500,-62,44,15,-11247,-4,-2,-1,0,37376,310,25,79,0,0,0,0,0,0,0,0,-32317,0,0,0,3993,0,39626,0
28798,-88,-8282,510,-58,46,15,-11247,-4,-1,0,0,37376,310,25,79,0,0,0,0,0,0,0,0,-32317,0,0,0,3993,0,39646,0
28808,-60,-8276,522,-57,40,17,-11247,-4,0,1,0,37379,308,25,79,0,0,0,0,0,0,0,0,-32318,0,0,0,3994,0,39666,0
28818,-76,-8286,506,-62,44,16,-11247,-1,2,0,0,37385,300,25,79,0,0,0,0,0,0,0,0,-32317,0,0,0,3994,0,39686,0
28828,-100,-8278,518,-60,40,15,-11247,0,1,-1,0,37386,312,25,79,0,0,0,0,0,0,0,0,-32317,0,0,0,3994,0,39706,0
28838,-102,-8306,510,-62,43,20,-11247,6,7,0,0,37386,315,25,79,0,0,0,0,0,0,0,0,-32317,0,0,0,3993,0,39726,0
28848,-98,-8296,508,-57,46,19,-11247,-5,-1,-2,0,37381,317,25,79,0,0,0,0,0,0,0,0,-32317,0,0,0,3994,0,39746,0
28858,-108,-8256,500,-62,42,12,-11247,0,-5,0,0,37382,315,26,79,0,0,0,0,0,0,0,0,-32317,0,0,0,3993,0,39766,0
28868,-90,-8302,494,-69,44,17,-11247,-4,3,-1,0,37382,317,25,79,0,0,0,0,0,0,0,0,-32318,0,0,0,3993,0,39786,0
28878,-106,-8308,480,-58,43,22,-11248,-7,-7,0,0,37379,320,25,79,0,0,0,0,0,0,0,0,-32317,0,0,0,3992,0,39806,0
28888,-96,-8288,490,-54,45,18,-11247,6,-1,0,0,37380,317,25,79,0,0,0,0,0,0,0,0,-32317,0,0,0,3993,0,39826,0
28898,-78,-8280,462,-56,44,13,-11246,0,3,0,0,37379,308,25,79,0,0,0,0,0,0,0,0,-32317,0,0,0,3993,0,39846,0
28908,-90,-8296,488,-56,45,18,-11245,0,4,2,0,37380,316,26,79,0,0,0,0,0,0,0,0,-32317,0,0,0,3993,0,39866,0
28918,-124,-8282,502,-59,42,14,-11247,-3,-5,-5,0,37381,312,26,79,0,0,0,0,0,0,0,0,-32317,0,0,0,3993,0,39886,0
28928,-94,-8284,514,-54,45,19,-11246,1,-1,-2,0,37380,308,26,79,0,0,0,0,0,0,0,0,-32318,0,0,0,3993,0,39906,0
28938,-92,-8294,534,-59,48,13,-11247,8,-3,0,0,37379,304,25,79,0,0,0,0,0,0,0,0,-32317,0,0,0,3993,0,39926,0
28948,-102,-8282,504,-56,58,16,-11248,-6,2,-2,0,37377,300,25,79,0,0,0,0,0,0,0,0,-32317,0,0,0,3993,0,39946,0
28958,-62,-8276,502,-54,54,18,-11246,-1,-2,0,0,37376,302,25,79,0,0,0,0,0,0,0,0,-32317,0,0,0,3992,0,39966,0
28968,-106,-8288,508,-57,47,19,-11248,-7,-5,0,0,37377,306,26,79,0,0,0,0,0,0,0,0,-32317,0,0,0,3993,0,39986,0
28978,-94,-8270,498,-57,43,17,-11247,-8,1,-1,0,37377,313,25,79,0,0,0,0,0,0,0,0,-32317,0,0,0,3993,0,40006,0
28988,-100,-8296,488,-50,36,17,-11247,1,-7,-1,0,37376,313,25,79,0,0,0,0,0,0,0,0,-32318,0,0,0,3992,0,40026,0
28998,-126,-8290,504,-51,32,16,-11247,0,-2,-1,0,37376,317,25,79,0,0,0,0,0,0,0,0,-32317,0,0,0,3993,0,40046,0
29008,-128,-8298,486,-52,39,13,-11246,0,5,1,0,37376,318,25,79,0,0,0,0,0,0,0,0,-32317,0,0,0,3993,0,40066,0
29018,-92,-8318,500,-56,35,10,-11246,-1,0,0,0,37384,315,25,79,0,0,0,0,0,0,0,0,-32317,0,0,0,3993,0,40086,0
29028,-86,-8292,476,-50,35,12,-11247,-2,3,0,0,37383,315,25,79,0,0,0,0,0,0,0,0,-32317,0,0,0,3993,0,40106,0
29038,-78,-8296,504,-47,38,14,-11246,0,0,0,0,37382,305,25,79,0,0,0,0,0,0,0,0,-32318,0,0,0,3993,0,40126,0
29048,-64,-8252,532,-46,39,17,-11246,-2,-1,-3,0,37380,306,25,79,0,0,0,0,0,0,0,0,-32318,0,0,0,3993,0,40146,0
29058,-98,-8310,532,-50,37,12,-11246,0,-1,1,0,37374,315,26,79,0,0,0,0,0,0,0,0,-32317,0,0,0,3993,0,40166,0
29068,-96,-8314,520,-55,48,15,-11246,5,2,-2,0,37373,308,25,79,0,0,0,0,0,0,0,0,-32317,0,0,0,3993,0,40186,0
29078,-98,-8278,502,-55,48,16,-11247,-7,5,0,0,37371,313,25,79,0,0,0,0,0,0,0,0,-32317,0,0,0,3993,0,40206,0
29088,-68,-8308,472,-53,43,17,-11246,-5,0,0,0,37373,315,25,79,0,0,0,0,0,0,0,0,-32317,0,0,0,3992,0,40226,0
29098,-90,-8322,480,-46,42,19,-11245,2,4,-1,0,37373,320,25,79,0,0,0,0,0,0,0,0,-32317,0,0,0,3993,0,40246,0
