state_time,accelx,accely,accelz,gyrox,gyroy,gyroz,mot_ang,mot_vel,mot_acc,mot_cur,mot_volt,batt_volt,batt_curr,temperature,status_mn,status_ex,status_re,genvar_0,genvar_1,genvar_2,genvar_3,genvar_4,genvar_5,genvar_6,genvar_7,genvar_8,genvar_9,ank_ang,ank_vel,sys_time,event flags
17602,8,-8198,682,-39,11,14,9106,-6,6,0,0,37269,93,25,144,0,0,0,0,0,0,0,0,-32294,0,0,0,4144,0,2467,0
17612,-16,-8242,704,-45,13,11,9106,-1,2,1,0,37270,90,25,144,0,0,0,0,0,0,0,0,-32294,0,0,0,4144,0,17602,0
17622,-22,-8190,708,-49,10,5,9105,-4,3,1,0,37273,89,25,144,0,0,0,0,0,0,0,0,-32294,0,0,0,4144,0,17602,0
17632,-16,-8214,722,-50,14,3,9108,8,-4,1,0,37275,92,25,144,0,0,0,0,0,0,0,0,-32294,0,0,0,4144,0,17602,0
17642,-24,-8242,696,-44,10,-1,9107,-6,-2,2,0,37274,89,25,144,0,0,0,0,0,0,0,0,-32295,0,0,0,4144,0,17602,0
17652,2,-8204,716,-49,12,-7,9107,0,0,0,0,37280,84,25,144,0,0,0,0,0,0,0,0,-32294,0,0,0,4143,0,17602,0
17662,-6,-8220,710,-55,12,-7,9105,-3,1,1,0,37282,86,25,144,0,0,0,0,0,0,0,0,-32295,0,0,0,4143,0,17602,0
17672,20,-8214,728,-56,7,-7,9106,-1,0,3,0,37283,93,25,144,0,0,0,0,0,0,0,0,-32295,0,0,0,4144,0,17602,0
17682,-20,-8220,720,-55,10,-5,9106,-2,2,0,0,37277,97,25,144,0,0,0,0,0,0,0,0,-32295,0,0,0,4143,0,17602,0
17692,42,-8228,706,-59,9,-3,9106,-1,3,2,0,37270,99,25,144,0,0,0,0,0,0,0,0,-32294,0,0,0,4143,0,17602,0
17702,-10,-8230,720,-57,5,-10,9107,8,0,0,0,37272,96,25,144,0,0,0,0,0,0,0,0,-32295,0,0,0,4143,0,17602,0
17712,12,-8222,704,-58,12,-9,9106,-2,-1,0,0,37276,92,25,144,0,0,0,0,0,0,0,0,-32295,0,0,0,4143,0,17602,0
17722,48,-8200,706,-60,12,-9,9105,-7,-3,1,0,37276,94,25,144,0,0,0,0,0,0,0,0,-32295,0,0,0,4143,0,17602,0
17732,-16,-8238,658,-52,5,-12,9107,3,-4,0,0,37272,97,25,144,0,0,0,0,0,0,0,0,-32294,0,0,0,4143,0,17612,0
17742,34,-8224,676,-49,10,-5,9106,0,-1,0,0,37272,104,25,144,0,0,0,0,0,0,0,0,-32295,0,0,0,4143,0,17622,0
17752,46,-8224,708,-56,14,-2,9107,6,0,2,0,37276,107,25,144,0,0,0,0,0,0,0,0,-32295,0,0,0,4142,0,17632,0
17762,90,-8234,698,-57,14,11,9106,-4,4,0,0,37280,101,25,144,0,0,0,0,0,0,0,0,-32295,0,0,0,4142,0,17642,0
17772,60,-8236,680,-49,16,13,9107,5,0,1,0,37280,97,25,144,0,0,0,0,0,0,0,0,-32295,0,0,0,4143,0,17652,0
17782,50,-8226,672,-52,19,18,9107,-2,3,0,0,37280,93,25,144,0,0,0,0,0,0,0,0,-32294,0,0,0,4142,0,17662,0
17792,18,-8250,686,-46,14,17,9106,-3,-2,1,0,37277,95,25,144,0,0,0,0,0,0,0,0,-32295,0,0,0,4143,0,17672,0
17802,38,-8218,674,-49,18,19,9106,-5,-3,0,0,37277,95,25,144,0,0,0,0,0,0,0,0,-32294,0,0,0,4142,0,17691,0
17812,38,-8234,692,-49,17,14,9107,8,4,0,0,37273,97,25,144,0,0,0,0,0,0,0,0,-32295,0,0,0,4142,0,17711,0
17822,22,-8242,722,-48,20,20,9106,-5,0,3,0,37274,98,25,144,0,0,0,0,0,0,0,0,-32294,0,0,0,4142,0,17731,0
17832,16,-8214,722,-52,15,16,9107,2,0,2,0,37278,109,25,144,0,0,0,0,0,0,0,0,-32294,0,0,0,4142,0,17748,0
17842,16,-8190,726,-47,19,13,9106,-6,-3,1,0,37282,103,25,144,0,0,0,0,0,0,0,0,-32294,0,0,0,4142,0,17758,0
17852,16,-8236,720,-51,12,12,9105,-6,4,4,0,37283,93,25,144,0,0,0,0,0,0,0,0,-32294,0,0,0,4143,0,17768,0
17862,-14,-8216,716,-47,14,11,9107,6,-3,0,0,37284,89,25,144,0,0,0,0,0,0,0,0,-32294,0,0,0,4142,0,17778,0
17872,-12,-8220,726,-52,14,8,9107,0,1,2,0,37281,97,25,144,0,0,0,0,0,0,0,0,-32294,0,0,0,4142,0,17788,0
17882,6,-8220,718,-52,11,7,9106,-2,-3,-1,0,37282,90,25,144,0,0,0,0,0,0,0,0,-32294,0,0,0,4143,0,17798,0
17892,-10,-8204,702,-55,11,5,9107,6,10,1,0,37278,88,25,144,0,0,0,0,0,0,0,0,-32294,0,0,0,4142,0,17808,0
17902,-10,-8208,706,-55,17,2,9106,1,1,2,0,37280,95,25,144,0,0,0,0,0,0,0,0,-32293,0,0,0,4143,0,17818,0
17912,24,-8228,676,-53,12,7,9107,5,0,0,0,37281,91,25,144,0,0,0,0,0,0,0,0,-32294,0,0,0,4142,0,17828,0
17922,14,-8208,702,-55,13,5,9107,4,-6,0,0,37282,100,25,144,0,0,0,0,0,0,0,0,-32294,0,0,0,4142,0,17839,0
17932,34,-8228,706,-52,11,11,9106,-5,1,1,0,37281,91,25,144,0,0,0,0,0,0,0,0,-32294,0,0,0,4142,0,17849,0
17942,44,-8218,698,-50,14,7,9107,4,2,4,0,37280,102,25,144,0,0,0,0,0,0,0,0,-32294,0,0,0,4143,0,17865,0
17952,6,-8218,704,-52,16,12,9108,0,2,2,0,37279,105,25,144,0,0,0,0,0,0,0,0,-32294,0,0,0,4143,0,17879,0
17962,34,-8226,684,-52,10,11,9106,3,4,-1,0,37282,102,25,144,0,0,0,0,0,0,0,0,-32294,0,0,0,4143,0,17889,0
17972,-2,-8206,666,-51,14,7,9107,1,1,1,0,37291,111,25,144,0,0,0,0,0,0,0,0,-32294,0,0,0,4143,0,17901,0
17982,18,-8230,708,-50,14,5,9107,-3,2,1,0,37289,111,25,144,0,0,0,0,0,0,0,0,-32294,0,0,0,4142,0,17911,0
17992,18,-8230,690,-44,11,10,9107,0,1,0,0,37287,111,25,144,0,0,0,0,0,0,0,0,-32294,0,0,0,4142,0,17921,0
18002,22,-8218,696,-49,12,10,9106,-7,1,2,0,37279,100,25,144,0,0,0,0,0,0,0,0,-32294,0,0,0,4142,0,17931,0
18012,-26,-8246,742,-50,11,10,9106,-2,7,0,0,37280,102,25,144,0,0,0,0,0,0,0,0,-32294,0,0,0,4143,0,17941,0
18022,-20,-8222,716,-50,9,2,9106,-1,5,2,0,37282,92,25,144,0,0,0,0,0,0,0,0,-32295,0,0,0,4142,0,17954,0
18032,-20,-8210,706,-52,15,1,9108,5,-2,2,0,37283,92,25,144,0,0,0,0,0,0,0,0,-32294,0,0,0,4142,0,17964,0
18042,8,-8240,694,-51,10,2,9108,5,1,2,0,37283,96,25,144,0,0,0,0,0,0,0,0,-32295,0,0,0,4142,0,17973,0
18052,18,-8214,702,-55,13,4,9106,-12,-1,0,0,37280,101,25,144,0,0,0,0,0,0,0,0,-32294,0,0,0,4142,0,17983,0
18062,8,-8178,694,-52,7,4,9106,-2,-1,1,0,37278,93,25,144,0,0,0,0,0,0,0,0,-32295,0,0,0,4143,0,17996,0
18072,20,-8274,692,-48,17,5,9107,0,0,1,0,37281,96,25,144,0,0,0,0,0,0,0,0,-32294,0,0,0,4142,0,18006,0
18082,14,-8234,706,-53,12,3,9108,0,1,1,0,37282,102,25,144,0,0,0,0,0,0,0,0,-32294,0,0,0,4143,0,18016,0
18092,34,-8180,702,-55,10,4,9107,0,1,1,0,37282,106,25,144,0,0,0,0,0,0,0,0,-32294,0,0,0,4143,0,18026,0
18102,34,-8210,694,-49,9,-1,9107,0,-2,0,0,37276,97,25,144,0,0,0,0,0,0,0,0,-32294,0,0,0,4142,0,18038,0
18112,22,-8236,722,-49,12,0,9107,-1,-1,0,0,37275,91,25,144,0,0,0,0,0,0,0,0,-32294,0,0,0,4143,0,18048,0
18122,44,-8200,726,-54,16,5,9108,7,1,2,0,37277,102,25,144,0,0,0,0,0,0,0,0,-32294,0,0,0,4142,0,18058,0
18132,54,-8220,740,-50,8,5,9107,5,-2,0,0,37276,104,25,144,0,0,0,0,0,0,0,0,-32294,0,0,0,4142,0,18068,0
18142,22,-8218,716,-56,11,1,9106,-6,-2,0,0,37276,101,25,144,0,0,0,0,0,0,0,0,-32294,0,0,0,4143,0,18081,0
18152,-20,-8202,690,-53,15,5,9106,-1,-2,2,0,37275,88,25,144,0,0,0,0,0,0,0,0,-32294,0,0,0,4143,0,18091,0
18162,8,-8224,682,-55,13,2,9107,6,-7,-4,0,37276,89,25,144,0,0,0,0,0,0,0,0,-32294,0,0,0,4143,0,18101,0
18172,12,-8206,674,-52,14,0,9107,0,-1,1,0,37279,94,25,144,0,0,0,0,0,0,0,0,-32294,0,0,0,4142,0,18111,0
18182,40,-8206,696,-53,17,5,9105,-3,-1,0,0,37276,102,25,144,0,0,0,0,0,0,0,0,-32295,0,0,0,4142,0,18125,0
18192,26,-8234,730,-53,10,5,9106,0,-3,0,0,37274,99,25,144,0,0,0,0,0,0,0,0,-32294,0,0,0,4142,0,18135,0
18202,42,-8244,698,-45,17,2,9108,6,0,1,0,37272,97,25,144,0,0,0,0,0,0,0,0,-32295,0,0,0,4142,0,18145,0
18212,30,-8196,708,-53,10,8,9107,2,2,0,0,37274,94,25,144,0,0,0,0,0,0,0,0,-32294,0,0,0,4142,0,18155,0
18222,32,-8226,674,-53,10,7,9105,-3,4,2,0,37275,89,25,144,0,0,0,0,0,0,0,0,-32294,0,0,0,4142,0,18168,0
18232,0,-8216,704,-49,12,7,9106,1,4,0,0,37277,97,25,144,0,0,0,0,0,0,0,0,-32294,0,0,0,4142,0,18178,0
18242,16,-8212,678,-48,15,3,9107,7,7,0,0,37276,102,25,144,0,0,0,0,0,0,0,0,-32295,0,0,0,4142,0,18188,0
18252,-6,-8206,652,-53,13,3,9107,-1,-7,1,0,37274,111,25,144,0,0,0,0,0,0,0,0,-32294,0,0,0,4142,0,18198,0
18262,10,-8192,710,-51,7,6,9107,0,-1,0,0,37273,106,25,144,0,0,0,0,0,0,0,0,-32294,0,0,0,4143,0,18212,0
18272,18,-8214,712,-53,11,2,9106,-6,-2,5,0,37277,98,25,144,0,0,0,0,0,0,0,0,-32294,0,0,0,4142,0,18223,0
18282,6,-8216,722,-52,12,-1,9107,9,6,0,0,37275,99,25,144,0,0,0,0,0,0,0,0,-32294,0,0,0,4142,0,18233,0
18292,38,-8242,724,-56,16,1,9106,1,2,0,0,37274,93,25,144,0,0,0,0,0,0,0,0,-32294,0,0,0,4142,0,18243,0
18302,44,-8214,678,-55,13,3,9106,0,5,2,0,37275,92,25,144,0,0,0,0,0,0,0,0,-32294,0,0,0,4143,0,18256,0
18312,24,-8220,698,-46,13,6,9106,0,1,1,0,37272,101,25,144,0,0,0,0,0,0,0,0,-32294,0,0,0,4142,0,18266,0
18322,62,-8218,686,-49,11,9,9106,2,-3,1,0,37270,96,25,144,0,0,0,0,0,0,0,0,-32294,0,0,0,4142,0,18276,0
18332,22,-8204,684,-55,12,5,9107,7,0,1,0,37268,100,25,144,0,0,0,0,0,0,0,0,-32294,0,0,0,4142,0,18286,0
18342,22,-8186,674,-54,13,16,9107,0,1,0,0,37269,100,25,144,0,0,0,0,0,0,0,0,-32294,0,0,0,4142,0,18300,0
18352,24,-8228,680,-45,18,5,9106,1,4,1,0,37270,103,25,144,0,0,0,0,0,0,0,0,-32295,0,0,0,4142,0,18311,0
18362,38,-8206,688,-45,14,12,9108,5,-2,1,0,37270,95,25,144,0,0,0,0,0,0,0,0,-32294,0,0,0,4142,0,18320,0
18372,24,-8208,710,-44,15,5,9106,-3,1,0,0,37267,91,25,144,0,0,0,0,0,0,0,0,-32294,0,0,0,4142,0,18331,0
18382,48,-8236,730,-49,17,11,9107,-2,-2,0,0,37274,94,25,144,0,0,0,0,0,0,0,0,-32294,0,0,0,4142,0,18344,0
18392,14,-8228,702,-50,17,7,9107,0,1,1,0,37275,102,25,144,0,0,0,0,0,0,0,0,-32294,0,0,0,4141,0,18354,0
18402,-8,-8204,712,-46,15,10,9105,-8,-2,0,0,37273,90,25,144,0,0,0,0,0,0,0,0,-32294,0,0,0,4142,0,18364,0
18412,4,-8226,698,-46,18,10,9107,-3,-4,0,0,37267,82,25,144,0,0,0,0,0,0,0,0,-32295,0,0,0,4143,0,18374,0
18422,28,-8222,670,-50,17,8,9108,0,-1,1,0,37270,83,25,144,0,0,0,0,0,0,0,0,-32294,0,0,0,4142,0,18387,0
18432,20,-8206,702,-48,15,12,9106,-1,0,2,0,37273,90,25,144,0,0,0,0,0,0,0,0,-32294,0,0,0,4143,0,18397,0
18442,24,-8236,690,-46,13,9,9106,-6,4,1,0,37283,98,25,144,0,0,0,0,0,0,0,0,-32294,0,0,0,4142,0,18407,0
18452,12,-8214,700,-47,12,9,9106,2,1,1,0,37294,102,25,144,0,0,0,0,0,0,0,0,-32294,0,0,0,4142,0,18417,0
18462,10,-8204,726,-49,14,7,9107,2,-3,0,0,37294,103,25,144,0,0,0,0,0,0,0,0,-32294,0,0,0,4143,0,18430,0
18472,10,-8256,694,-47,17,7,9107,0,1,1,0,37282,103,25,144,0,0,0,0,0,0,0,0,-32295,0,0,0,4143,0,18440,0
18482,4,-8204,714,-49,15,10,9107,-2,-5,2,0,37272,93,25,144,0,0,0,0,0,0,0,0,-32294,0,0,0,4143,0,18450,0
18492,12,-8222,688,-54,19,5,9108,4,-3,1,0,37270,92,25,144,0,0,0,0,0,0,0,0,-32294,0,0,0,4142,0,18460,0
18502,0,-8204,678,-55,13,7,9106,-1,-3,2,0,37269,91,25,144,0,0,0,0,0,0,0,0,-32294,0,0,0,4143,0,18472,0
18512,40,-8200,704,-45,12,7,9107,0,2,0,0,37271,88,25,144,0,0,0,0,0,0,0,0,-32294,0,0,0,4143,0,18482,0
18522,30,-8218,686,-46,13,11,9106,0,-6,0,0,37267,89,25,144,0,0,0,0,0,0,0,0,-32294,0,0,0,4142,0,18492,0
18532,10,-8212,696,-47,15,15,9107,4,0,1,0,37268,89,25,144,0,0,0,0,0,0,0,0,-32294,0,0,0,4142,0,18503,0
18542,56,-8220,688,-46,20,16,9107,-2,0,1,0,37268,88,25,144,0,0,0,0,0,0,0,0,-32294,0,0,0,4142,0,18514,0
18552,32,-8230,698,-49,18,17,9108,0,1,1,0,37269,81,25,144,0,0,0,0,0,0,0,0,-32294,0,0,0,4143,0,18524,0
18562,22,-8224,692,-49,11,17,9107,1,-3,1,0,37270,83,25,144,0,0,0,0,0,0,0,0,-32295,0,0,0,4142,0,18534,0
18572,12,-8184,684,-44,20,7,9107,1,-3,1,0,37271,90,25,144,0,0,0,0,0,0,0,0,-32294,0,0,0,4142,0,18546,0
18582,28,-8210,720,-45,11,12,9106,0,-4,0,0,37271,95,25,144,0,0,0,0,0,0,0,0,-32294,0,0,0,4143,0,18557,0
18592,22,-8246,714,-48,16,12,9107,2,3,0,0,37274,95,25,144,0,0,0,0,0,0,0,0,-32294,0,0,0,4142,0,18567,0
18602,8,-8234,722,-48,17,16,9108,6,0,1,0,37273,92,25,144,0,0,0,0,0,0,0,0,-32294,0,0,0,4143,0,18577,0
18612,20,-8216,694,-50,12,10,9106,2,3,0,0,37276,91,25,144,0,0,0,0,0,0,0,0,-32294,0,0,0,4142,0,18589,0
18622,-10,-8226,712,-50,16,11,9106,5,1,1,0,37273,98,25,144,0,0,0,0,0,0,0,0,-32294,0,0,0,4143,0,18599,0
18632,26,-8190,694,-49,13,3,9106,-5,0,2,0,37274,97,25,144,0,0,0,0,0,0,0,0,-32294,0,0,0,4143,0,18609,0
18642,4,-8198,696,-57,12,3,9108,3,2,0,0,37270,98,25,144,0,0,0,0,0,0,0,0,-32294,0,0,0,4142,0,18619,0
18652,26,-8214,700,-44,7,8,9106,0,0,2,0,37268,92,25,144,0,0,0,0,0,0,0,0,-32294,0,0,0,4143,0,18632,0
18662,-8,-8228,716,-46,10,5,9107,-1,1,3,0,37268,89,25,144,0,0,0,0,0,0,0,0,-32294,0,0,0,4142,0,18642,0
18672,36,-8194,718,-51,11,1,9106,2,4,0,0,37271,89,25,144,0,0,0,0,0,0,0,0,-32294,0,0,0,4143,0,18652,0
18682,6,-8202,716,-53,16,6,9106,-4,-4,1,0,37271,93,25,144,0,0,0,0,0,0,0,0,-32295,0,0,0,4142,0,18662,0
18692,16,-8238,684,-49,11,3,9107,5,4,0,0,37273,102,25,144,0,0,0,0,0,0,0,0,-32295,0,0,0,4142,0,18674,0
18702,6,-8220,712,-54,15,6,9106,-7,2,1,0,37270,102,25,144,0,0,0,0,0,0,0,0,-32294,0,0,0,4143,0,18684,0
18712,18,-8204,696,-55,8,3,9105,-11,0,0,0,37272,102,25,144,0,0,0,0,0,0,0,0,-32294,0,0,0,4142,0,18694,0
18722,30,-8230,706,-50,12,6,9107,-4,2,0,0,37271,98,25,144,0,0,0,0,0,0,0,0,-32294,0,0,0,4142,0,18704,0
18732,32,-8194,692,-50,16,4,9108,0,2,2,0,37272,96,25,144,0,0,0,0,0,0,0,0,-32294,0,0,0,4143,0,18717,0
18742,48,-8202,704,-54,11,10,9106,-1,-4,1,0,37271,100,25,144,0,0,0,0,0,0,0,0,-32294,0,0,0,4143,0,18727,0
18752,2,-8232,696,-53,14,5,9106,-1,1,2,0,37273,102,25,144,0,0,0,0,0,0,0,0,-32294,0,0,0,4142,0,18737,0
18762,8,-8212,672,-54,13,9,9106,-1,1,1,0,37275,109,25,144,0,0,0,0,0,0,0,0,-32294,0,0,0,4143,0,18747,0
18772,8,-8228,696,-52,13,6,9108,7,2,0,0,37274,99,25,144,0,0,0,0,0,0,0,0,-32295,0,0,0,4144,0,18761,0
18782,-10,-8218,694,-50,13,6,9106,-2,0,0,0,37273,103,25,144,0,0,0,0,0,0,0,0,-32294,0,0,0,4142,0,18771,0
18792,22,-8198,706,-52,11,0,9106,0,-3,2,0,37276,105,25,144,0,0,0,0,0,0,0,0,-32294,0,0,0,4142,0,18781,0
18802,14,-8210,726,-50,14,13,9107,0,0,1,0,37280,99,25,144,0,0,0,0,0,0,0,0,-32294,0,0,0,4142,0,18791,0
18812,16,-8234,714,-49,12,1,9107,2,2,1,0,37283,96,25,144,0,0,0,0,0,0,0,0,-32294,0,0,0,4143,0,18804,0
18822,22,-8248,684,-52,12,2,9106,-2,-2,0,0,37284,96,25,144,0,0,0,0,0,0,0,0,-32295,0,0,0,4143,0,18814,0
18832,16,-8192,692,-53,15,5,9108,4,-2,2,0,37279,104,25,144,0,0,0,0,0,0,0,0,-32294,0,0,0,4142,0,18824,0
18842,26,-8212,702,-57,13,4,9108,2,2,1,0,37277,107,25,144,0,0,0,0,0,0,0,0,-32294,0,0,0,4142,0,18834,0
18852,16,-8190,698,-53,18,8,9106,-2,2,1,0,37274,99,25,144,0,0,0,0,0,0,0,0,-32294,0,0,0,4141,0,18847,0
18862,14,-8186,710,-46,14,4,9106,0,4,1,0,37276,96,25,144,0,0,0,0,0,0,0,0,-32294,0,0,0,4143,0,18857,0
18872,-16,-8234,684,-50,14,7,9106,-2,4,0,0,37277,99,25,144,0,0,0,0,0,0,0,0,-32294,0,0,0,4142,0,18867,0
18882,12,-8234,728,-48,13,5,9107,-6,0,0,0,37278,96,25,144,0,0,0,0,0,0,0,0,-32294,0,0,0,4142,0,18877,0
18892,14,-8204,714,-52,18,1,9107,-1,1,1,0,37277,108,25,144,0,0,0,0,0,0,0,0,-32294,0,0,0,4141,0,18891,0
18902,32,-8238,680,-51,8,5,9108,1,-2,0,0,37281,117,25,144,0,0,0,0,0,0,0,0,-32294,0,0,0,4141,0,18901,0
18912,20,-8204,690,-53,17,4,9107,8,-1,1,0,37280,113,25,144,0,0,0,0,0,0,0,0,-32294,0,0,0,4143,0,18911,0
18922,40,-8208,668,-53,14,6,9107,5,1,0,0,37280,112,25,144,0,0,0,0,0,0,0,0,-32294,0,0,0,4142,0,18922,0
18932,26,-8186,676,-49,12,4,9107,-2,2,1,0,37279,99,25,144,0,0,0,0,0,0,0,0,-32294,0,0,0,4142,0,18935,0
18942,34,-8172,682,-45,14,2,9106,-2,-2,1,0,37280,100,25,144,0,0,0,0,0,0,0,0,-32294,0,0,0,4142,0,18945,0
18952,22,-8230,698,-46,13,8,9107,-3,0,0,0,37279,100,25,144,0,0,0,0,0,0,0,0,-32295,0,0,0,4142,0,18955,0
18962,8,-8266,692,-53,12,2,9108,7,5,3,0,37277,98,25,144,0,0,0,0,0,0,0,0,-32294,0,0,0,4142,0,18966,0
18972,36,-8220,718,-51,10,3,9106,-5,-1,0,0,37278,101,25,144,0,0,0,0,0,0,0,0,-32294,0,0,0,4142,0,18978,0
18982,20,-8216,696,-51,14,6,9106,-1,4,1,0,37279,102,25,144,0,0,0,0,0,0,0,0,-32294,0,0,0,4142,0,18988,0
18992,40,-8226,686,-51,16,5,9108,2,-5,1,0,37280,92,25,144,0,0,0,0,0,0,0,0,-32294,0,0,0,4142,0,18998,0
19002,42,-8216,708,-46,13,3,9106,0,1,2,0,37280,87,25,144,0,0,0,0,0,0,0,0,-32294,0,0,0,4142,0,19011,0
19012,42,-8200,702,-53,14,7,9108,6,0,0,0,37287,99,25,144,0,0,0,0,0,0,0,0,-32294,0,0,0,4142,0,19022,0
19022,28,-8224,702,-51,15,10,9106,-3,-3,0,0,37289,105,25,144,0,0,0,0,0,0,0,0,-32294,0,0,0,4142,0,19032,0
19032,34,-8230,716,-50,13,7,9106,-3,7,1,0,37286,107,25,144,0,0,0,0,0,0,0,0,-32295,0,0,0,4143,0,19042,0
19042,8,-8194,690,-50,16,6,9106,-11,0,1,0,37280,108,25,144,0,0,0,0,0,0,0,0,-32295,0,0,0,4142,0,19055,0
19052,12,-8220,694,-53,10,8,9106,-6,1,0,0,37278,106,25,144,0,0,0,0,0,0,0,0,-32294,0,0,0,4142,0,19065,0
19062,-4,-8222,694,-52,14,9,9107,-4,2,0,0,37280,101,25,144,0,0,0,0,0,0,0,0,-32294,0,0,0,4142,0,19075,0
19072,4,-8192,712,-52,9,8,9106,-6,-1,1,0,37280,98,25,144,0,0,0,0,0,0,0,0,-32295,0,0,0,4142,0,19085,0
19082,38,-8206,712,-47,9,8,9107,-1,-3,0,0,37279,98,25,144,0,0,0,0,0,0,0,0,-32294,0,0,0,4142,0,19098,0
19092,8,-8236,682,-50,11,6,9105,-5,-2,1,0,37275,101,25,144,0,0,0,0,0,0,0,0,-32295,0,0,0,4142,0,19108,0
19102,-8,-8194,686,-48,16,2,9107,0,-2,0,0,37273,94,25,144,0,0,0,0,0,0,0,0,-32294,0,0,0,4141,0,19118,0
19112,34,-8212,692,-48,12,13,9107,-3,-1,0,0,37278,98,25,144,0,0,0,0,0,0,0,0,-32294,0,0,0,4143,0,19128,0
19122,34,-8230,696,-53,18,5,9107,-2,-2,0,0,37279,98,25,144,0,0,0,0,0,0,0,0,-32294,0,0,0,4143,0,19143,0
19132,20,-8184,692,-46,16,3,9106,0,-1,2,0,37280,106,25,144,0,0,0,0,0,0,0,0,-32294,0,0,0,4142,0,19153,0
19142,6,-8236,690,-53,15,2,9108,3,-5,1,0,37272,99,25,144,0,0,0,0,0,0,0,0,-32294,0,0,0,4143,0,19163,0
19152,16,-8208,704,-48,14,2,9107,5,1,0,0,37273,100,25,144,0,0,0,0,0,0,0,0,-32294,0,0,0,4142,0,19173,0
19162,18,-8224,710,-48,14,4,9107,3,-4,3,0,37274,96,25,144,0,0,0,0,0,0,0,0,-32294,0,0,0,4142,0,19186,0
19172,4,-8218,700,-49,16,5,9107,0,-1,1,0,37277,100,25,144,0,0,0,0,0,0,0,0,-32294,0,0,0,4142,0,19196,0
19182,8,-8230,684,-55,11,7,9106,-3,1,1,0,37274,95,25,144,0,0,0,0,0,0,0,0,-32294,0,0,0,4142,0,19206,0
19192,36,-8230,684,-54,18,3,9107,3,2,1,0,37273,93,25,144,0,0,0,0,0,0,0,0,-32294,0,0,0,4142,0,19216,0
19202,26,-8226,704,-49,15,7,9106,6,2,1,0,37277,94,25,144,0,0,0,0,0,0,0,0,-32294,0,0,0,4142,0,19229,0
19212,12,-8228,710,-44,16,2,9107,-4,0,1,0,37278,88,25,144,0,0,0,0,0,0,0,0,-32294,0,0,0,4142,0,19239,0
19222,36,-8224,706,-45,12,6,9106,-3,-2,0,0,37285,88,25,144,0,0,0,0,0,0,0,0,-32294,0,0,0,4142,0,19250,0
19232,36,-8198,698,-52,15,4,9105,-8,-2,2,0,37279,84,25,144,0,0,0,0,0,0,0,0,-32295,0,0,0,4143,0,19260,0
19242,26,-8200,684,-46,10,8,9106,-1,-1,1,0,37278,89,25,144,0,0,0,0,0,0,0,0,-32294,0,0,0,4143,0,19271,0
19252,30,-8234,730,-43,11,9,9106,-3,1,0,0,37270,94,25,144,0,0,0,0,0,0,0,0,-32294,0,0,0,4142,0,19283,0
19262,10,-8190,700,-49,10,8,9106,-7,-1,2,0,37270,99,25,144,0,0,0,0,0,0,0,0,-32294,0,0,0,4143,0,19293,0
19272,14,-8208,686,-54,12,10,9106,-6,-2,2,0,37271,109,25,144,0,0,0,0,0,0,0,0,-32294,0,0,0,4143,0,19304,0
19282,2,-8220,688,-45,11,7,9107,0,0,2,0,37270,113,25,144,0,0,0,0,0,0,0,0,-32294,0,0,0,4143,0,19314,0
19292,-10,-8196,712,-39,17,3,9107,1,2,2,0,37267,104,25,144,0,0,0,0,0,0,0,0,-32294,0,0,0,4144,0,19329,0
19302,-22,-8262,686,-46,13,3,9107,0,-1,0,0,37268,89,25,144,0,0,0,0,0,0,0,0,-32295,0,0,0,4143,0,19339,0
19312,14,-8194,702,-49,12,3,9106,5,5,4,0,37271,83,25,144,0,0,0,0,0,0,0,0,-32294,0,0,0,4141,0,19349,0
19322,14,-8192,688,-46,10,-4,9106,0,3,0,0,37271,87,25,144,0,0,0,0,0,0,0,0,-32294,0,0,0,4142,0,19360,0
19332,16,-8234,698,-46,13,-2,9107,2,3,1,0,37268,86,25,144,0,0,0,0,0,0,0,0,-32294,0,0,0,4142,0,19373,0
19342,38,-8216,714,-52,10,0,9107,2,-3,1,0,37267,95,25,144,0,0,0,0,0,0,0,0,-32294,0,0,0,4143,0,19383,0
19352,44,-8222,692,-50,10,2,9107,-1,0,0,0,37269,101,25,144,0,0,0,0,0,0,0,0,-32294,0,0,0,4143,0,19393,0
19362,34,-8232,682,-45,14,3,9107,-3,2,1,0,37269,90,25,144,0,0,0,0,0,0,0,0,-32294,0,0,0,4143,0,19403,0
19372,38,-8234,696,-51,12,-1,9107,4,-3,0,0,37269,84,25,144,0,0,0,0,0,0,0,0,-32294,0,0,0,4142,0,19417,0
19382,54,-8226,688,-45,14,7,9106,4,6,2,0,37268,80,25,144,0,0,0,0,0,0,0,0,-32294,0,0,0,4142,0,19427,0
19392,40,-8212,728,-45,12,8,9106,2,3,2,0,37268,86,25,144,0,0,0,0,0,0,0,0,-32294,0,0,0,4142,0,19437,0
19402,10,-8222,708,-53,10,4,9106,0,2,0,0,37271,93,25,144,0,0,0,0,0,0,0,0,-32294,0,0,0,4142,0,19447,0
19412,34,-8216,710,-54,12,4,9106,0,-1,2,0,37270,95,25,144,0,0,0,0,0,0,0,0,-32294,0,0,0,4141,0,19461,0
19422,10,-8234,694,-49,10,8,9105,-1,0,0,0,37274,118,25,144,0,0,0,0,0,0,0,0,-32294,0,0,0,4142,0,19471,0
19432,18,-8210,688,-52,13,7,9107,-1,0,0,0,37268,117,25,144,0,0,0,0,0,0,0,0,-32294,0,0,0,4142,0,19481,0
19442,18,-8202,708,-47,18,7,9108,9,3,3,0,37267,110,25,144,0,0,0,0,0,0,0,0,-32294,0,0,0,4142,0,19491,0
19452,50,-8206,724,-47,12,5,9106,1,-2,0,0,37263,99,25,144,0,0,0,0,0,0,0,0,-32294,0,0,0,4142,0,19503,0
19462,30,-8242,706,-46,14,7,9105,-7,0,1,0,37265,100,25,144,0,0,0,0,0,0,0,0,-32295,0,0,0,4142,0,19513,0
19472,14,-8200,712,-56,13,8,9107,-2,0,1,0,37264,94,25,144,0,0,0,0,0,0,0,0,-32294,0,0,0,4142,0,19524,0
19482,12,-8234,726,-48,15,10,9107,5,1,0,0,37262,92,25,144,0,0,0,0,0,0,0,0,-32294,0,0,0,4142,0,19534,0
19492,8,-8206,704,-48,13,5,9105,-8,-1,2,0,37262,93,25,144,0,0,0,0,0,0,0,0,-32294,0,0,0,4142,0,19544,0
19502,8,-8214,682,-47,16,3,9107,0,-2,0,0,37264,99,25,144,0,0,0,0,0,0,0,0,-32294,0,0,0,4142,0,19554,0
19512,68,-8228,706,-46,14,5,9106,0,2,1,0,37265,89,25,144,0,0,0,0,0,0,0,0,-32294,0,0,0,4142,0,19567,0
19522,34,-8244,698,-52,15,9,9107,4,4,0,0,37266,89,25,144,0,0,0,0,0,0,0,0,-32294,0,0,0,4142,0,19577,0
19532,56,-8216,708,-47,13,6,9107,-2,1,1,0,37268,96,25,144,0,0,0,0,0,0,0,0,-32294,0,0,0,4142,0,19587,0
19542,38,-8244,700,-51,18,10,9106,-2,-1,2,0,37270,104,25,144,0,0,0,0,0,0,0,0,-32294,0,0,0,4142,0,19597,0
19552,8,-8218,704,-50,14,4,9106,-6,-5,0,0,37264,102,25,144,0,0,0,0,0,0,0,0,-32294,0,0,0,4141,0,19611,0
19562,24,-8202,680,-49,11,8,9107,4,1,1,0,37266,99,25,144,0,0,0,0,0,0,0,0,-32294,0,0,0,4140,0,19621,0
19572,22,-8222,704,-50,11,9,9107,5,-2,0,0,37268,106,25,144,0,0,0,0,0,0,0,0,-32294,0,0,0,4141,0,19632,0
19582,30,-8216,682,-41,13,8,9107,4,-1,0,0,37271,107,25,144,0,0,0,0,0,0,0,0,-32294,0,0,0,4142,0,19642,0
19592,46,-8204,690,-41,16,12,9107,2,-3,2,0,37274,98,25,144,0,0,0,0,0,0,0,0,-32294,0,0,0,4142,0,19652,0
19602,36,-8212,716,-53,14,7,9107,4,2,0,0,37271,84,25,144,0,0,0,0,0,0,0,0,-32294,0,0,0,4143,0,19665,0
19612,40,-8240,684,-45,10,11,9107,1,0,0,0,37269,83,25,144,0,0,0,0,0,0,0,0,-32294,0,0,0,4142,0,19675,0
19622,62,-8230,710,-44,17,11,9106,-12,-3,4,0,37267,93,25,144,0,0,0,0,0,0,0,0,-32294,0,0,0,4142,0,19685,0
19632,42,-8218,698,-50,16,14,9108,2,-2,0,0,37273,108,25,144,0,0,0,0,0,0,0,0,-32295,0,0,0,4142,0,19696,0
19642,20,-8226,680,-49,12,15,9107,0,1,2,0,37274,103,25,144,0,0,0,0,0,0,0,0,-32294,0,0,0,4142,0,19708,0
19652,26,-8198,686,-51,10,13,9107,3,0,0,0,37275,99,25,144,0,0,0,0,0,0,0,0,-32294,0,0,0,4142,0,19718,0
19662,12,-8214,704,-50,11,17,9107,-1,1,0,0,37268,89,25,144,0,0,0,0,0,0,0,0,-32294,0,0,0,4142,0,19728,0
19672,8,-8248,676,-49,14,10,9107,7,6,2,0,37271,91,25,144,0,0,0,0,0,0,0,0,-32294,0,0,0,4142,0,19738,0
19682,28,-8216,688,-44,17,16,9106,-4,4,1,0,37273,97,25,144,0,0,0,0,0,0,0,0,-32294,0,0,0,4142,0,19748,0
19692,18,-8216,696,-43,13,10,9108,1,6,1,0,37272,93,25,144,0,0,0,0,0,0,0,0,-32295,0,0,0,4142,0,19760,0
19702,20,-8240,690,-49,10,13,9106,-3,-3,2,0,37270,91,25,144,0,0,0,0,0,0,0,0,-32294,0,0,0,4142,0,19770,0
19712,32,-8218,706,-47,19,11,9107,5,0,2,0,37273,95,25,144,0,0,0,0,0,0,0,0,-32294,0,0,0,4143,0,19780,0
19722,18,-8202,688,-46,14,11,9106,-9,-2,4,0,37287,100,25,144,0,0,0,0,0,0,0,0,-32294,0,0,0,4143,0,19790,0
19732,22,-8236,728,-50,16,7,9107,-2,1,3,0,37289,95,25,144,0,0,0,0,0,0,0,0,-32294,0,0,0,4143,0,19800,0
19742,20,-8210,722,-58,16,11,9108,3,-1,4,0,37287,93,25,144,0,0,0,0,0,0,0,0,-32294,0,0,0,4142,0,19810,0
19752,14,-8220,682,-50,14,9,9106,-2,0,1,0,37276,94,25,144,0,0,0,0,0,0,0,0,-32294,0,0,0,4142,0,19823,0
19762,50,-8232,684,-47,12,13,9106,-3,-3,2,0,37276,108,25,144,0,0,0,0,0,0,0,0,-32294,0,0,0,4141,0,19833,0
19772,6,-8214,700,-48,16,13,9106,-4,-1,0,0,37277,98,25,144,0,0,0,0,0,0,0,0,-32294,0,0,0,4143,0,19843,0
19782,12,-8208,716,-52,16,9,9107,0,4,-1,0,37275,99,25,144,0,0,0,0,0,0,0,0,-32295,0,0,0,4141,0,19853,0
19792,32,-8228,722,-50,13,10,9105,-6,-1,1,0,37276,99,25,144,0,0,0,0,0,0,0,0,-32294,0,0,0,4143,0,19863,0
19802,-10,-8204,704,-44,14,9,9107,-3,-2,0,0,37276,104,25,144,0,0,0,0,0,0,0,0,-32294,0,0,0,4142,0,19873,0
19812,-16,-8238,720,-51,14,10,9107,4,-6,1,0,37275,95,25,144,0,0,0,0,0,0,0,0,-32294,0,0,0,4142,0,19885,0
19822,-38,-8238,704,-48,17,9,9107,3,1,-1,0,37273,97,25,144,0,0,0,0,0,0,0,0,-32295,0,0,0,4143,0,19895,0
19832,18,-8216,688,-47,17,4,9107,2,4,1,0,37274,102,25,144,0,0,0,0,0,0,0,0,-32295,0,0,0,4142,0,19906,0
19842,-26,-8198,702,-47,13,-3,9106,2,-4,1,0,37282,106,25,144,0,0,0,0,0,0,0,0,-32294,0,0,0,4143,0,19916,0
19852,-2,-8232,710,-54,15,2,9106,-7,-4,0,0,37283,104,25,144,0,0,0,0,0,0,0,0,-32294,0,0,0,4142,0,19929,0
19862,24,-8234,712,-53,11,-2,9105,-8,2,0,0,37284,101,25,144,0,0,0,0,0,0,0,0,-32295,0,0,0,4142,0,19939,0
19872,60,-8180,684,-48,9,2,9109,2,-5,2,0,37277,98,25,144,0,0,0,0,0,0,0,0,-32295,0,0,0,4142,0,19949,0
19882,84,-8234,676,-58,12,8,9105,-2,3,3,0,37277,95,25,144,0,0,0,0,0,0,0,0,-32294,0,0,0,4143,0,19959,0
19892,48,-8208,696,-51,12,9,9107,1,1,1,0,37277,90,25,144,0,0,0,0,0,0,0,0,-32294,0,0,0,4142,0,19972,0
19902,6,-8216,682,-52,15,10,9107,5,-2,0,0,37277,93,25,144,0,0,0,0,0,0,0,0,-32294,0,0,0,4142,0,19982,0
19912,8,-8244,670,-47,15,12,9107,-2,3,0,0,37277,94,25,144,0,0,0,0,0,0,0,0,-32294,0,0,0,4143,0,19992,0
19922,20,-8244,676,-47,14,9,9106,0,5,0,0,37277,99,25,144,0,0,0,0,0,0,0,0,-32294,0,0,0,4142,0,20002,0
19932,30,-8202,706,-52,14,14,9107,4,-1,1,0,37277,102,25,144,0,0,0,0,0,0,0,0,-32295,0,0,0,4143,0,20012,0
19942,24,-8236,706,-48,12,8,9106,0,-2,0,0,37278,101,25,144,0,0,0,0,0,0,0,0,-32294,0,0,0,4143,0,20025,0
19952,-20,-8188,704,-50,14,11,9108,7,1,0,0,37280,101,25,144,0,0,0,0,0,0,0,0,-32294,0,0,0,4143,0,20035,0
19962,-12,-8226,702,-46,12,6,9106,-3,-1,3,0,37280,102,25,144,0,0,0,0,0,0,0,0,-32294,0,0,0,4142,0,20045,0
19972,24,-8250,704,-47,14,-1,9106,-8,0,1,0,37283,95,25,144,0,0,0,0,0,0,0,0,-32294,0,0,0,4142,0,20055,0
19982,12,-8230,692,-51,13,1,9106,-1,4,1,0,37283,102,25,144,0,0,0,0,0,0,0,0,-32294,0,0,0,4142,0,20070,0
19992,-2,-8188,730,-45,14,6,9105,0,2,0,0,37281,99,25,144,0,0,0,0,0,0,0,0,-32294,0,0,0,4143,0,20080,0
20002,22,-8202,724,-46,20,6,9106,0,2,0,0,37278,99,25,144,0,0,0,0,0,0,0,0,-32294,0,0,0,4143,0,20090,0
20012,4,-8242,696,-53,13,2,9107,0,0,1,0,37277,94,25,144,0,0,0,0,0,0,0,0,-32294,0,0,0,4143,0,20101,0
20022,16,-8230,724,-56,12,8,9106,0,1,0,0,37279,95,25,144,0,0,0,0,0,0,0,0,-32294,0,0,0,4143,0,20111,0
20032,34,-8200,686,-52,11,-1,9107,2,2,1,0,37278,88,25,144,0,0,0,0,0,0,0,0,-32295,0,0,0,4143,0,20122,0
20042,24,-8226,684,-51,13,4,9106,-2,-3,0,0,37279,90,25,144,0,0,0,0,0,0,0,0,-32294,0,0,0,4142,0,20131,0
20052,30,-8220,676,-48,12,4,9107,-5,-6,0,0,37284,92,25,144,0,0,0,0,0,0,0,0,-32294,0,0,0,4143,0,20141,0
20062,42,-8228,704,-48,12,7,9106,-3,0,1,0,37284,99,25,144,0,0,0,0,0,0,0,0,-32294,0,0,0,4142,0,20151,0
20072,32,-8224,718,-47,13,9,9106,5,1,1,0,37282,98,25,144,0,0,0,0,0,0,0,0,-32295,0,0,0,4142,0,20162,0
20082,14,-8196,674,-44,17,8,9107,-2,-1,1,0,37276,103,25,144,0,0,0,0,0,0,0,0,-32294,0,0,0,4142,0,20172,0
20092,-4,-8200,692,-50,12,14,9105,-6,-3,1,0,37276,103,25,144,0,0,0,0,0,0,0,0,-32295,0,0,0,4142,0,20182,0
20102,18,-8254,700,-47,15,9,9106,-1,2,1,0,37275,97,25,144,0,0,0,0,0,0,0,0,-32294,0,0,0,4142,0,20192,0
20112,-14,-8210,694,-45,12,6,9106,-2,-2,1,0,37273,88,25,144,0,0,0,0,0,0,0,0,-32294,0,0,0,4142,0,20202,0
20122,36,-8178,690,-49,8,4,9106,-8,-3,1,0,37275,90,25,144,0,0,0,0,0,0,0,0,-32295,0,0,0,4142,0,20212,0
20132,32,-8236,712,-49,14,0,9107,-2,0,1,0,37276,93,25,144,0,0,0,0,0,0,0,0,-32294,0,0,0,4143,0,20222,0
20142,16,-8178,716,-50,13,2,9107,0,2,4,0,37275,90,25,144,0,0,0,0,0,0,0,0,-32294,0,0,0,4142,0,20232,0
20152,24,-8232,710,-54,17,5,9108,10,-1,0,0,37275,82,25,144,0,0,0,0,0,0,0,0,-32295,0,0,0,4142,0,20242,0
20162,32,-8232,706,-49,13,4,9106,0,-1,0,0,37279,79,25,144,0,0,0,0,0,0,0,0,-32294,0,0,0,4142,0,20252,0
20172,42,-8212,698,-50,15,3,9106,-1,0,1,0,37280,76,25,144,0,0,0,0,0,0,0,0,-32294,0,0,0,4143,0,20262,0
20182,18,-8210,704,-53,13,5,9106,-4,-4,0,0,37280,88,25,144,0,0,0,0,0,0,0,0,-32294,0,0,0,4142,0,20272,0
20192,20,-8210,690,-43,11,2,9107,0,-1,0,0,37275,91,25,144,0,0,0,0,0,0,0,0,-32295,0,0,0,4142,0,20282,0
20202,38,-8200,712,-52,13,3,9106,1,2,0,0,37273,101,25,144,0,0,0,0,0,0,0,0,-32295,0,0,0,4142,0,20292,0
20212,26,-8222,700,-44,8,4,9106,-1,0,1,0,37272,106,25,144,0,0,0,0,0,0,0,0,-32294,0,0,0,4142,0,20302,0
20222,14,-8248,700,-45,12,5,9107,0,-1,1,0,37273,106,25,144,0,0,0,0,0,0,0,0,-32294,0,0,0,4142,0,20312,0
20232,56,-8218,710,-49,9,-1,9106,-3,3,3,0,37274,103,25,144,0,0,0,0,0,0,0,0,-32294,0,0,0,4142,0,20322,0
20242,42,-8202,710,-49,5,4,9108,1,1,2,0,37270,99,25,144,0,0,0,0,0,0,0,0,-32294,0,0,0,4142,0,20332,0
20252,16,-8244,674,-43,13,9,9106,5,-1,0,0,37272,99,25,144,0,0,0,0,0,0,0,0,-32295,0,0,0,4142,0,20342,0
20262,48,-8240,694,-48,9,11,9106,-6,-4,2,0,37276,94,25,144,0,0,0,0,0,0,0,0,-32295,0,0,0,4142,0,20352,0
20272,20,-8196,724,-47,17,8,9106,-4,-5,1,0,37276,94,25,144,0,0,0,0,0,0,0,0,-32294,0,0,0,4142,0,20362,0
20282,-10,-8210,680,-48,13,11,9107,0,-3,0,0,37275,94,25,144,0,0,0,0,0,0,0,0,-32294,0,0,0,4142,0,20372,0
20292,-20,-8220,698,-45,15,6,9107,-2,0,0,0,37269,95,25,144,0,0,0,0,0,0,0,0,-32294,0,0,0,4143,0,20382,0
20302,-8,-8182,708,-43,16,7,9106,-5,0,0,0,37268,87,25,144,0,0,0,0,0,0,0,0,-32294,0,0,0,4143,0,20392,0
20312,4,-8232,698,-43,15,7,9106,4,3,1,0,37271,86,25,144,0,0,0,0,0,0,0,0,-32294,0,0,0,4142,0,20402,0
20322,30,-8218,722,-50,11,6,9106,-5,2,0,0,37271,90,25,144,0,0,0,0,0,0,0,0,-32294,0,0,0,4143,0,20412,0
20332,40,-8190,712,-45,14,4,9106,-1,-2,0,0,37269,92,25,144,0,0,0,0,0,0,0,0,-32294,0,0,0,4142,0,20422,0
20342,24,-8212,726,-55,15,4,9108,3,0,3,0,37267,102,25,144,0,0,0,0,0,0,0,0,-32294,0,0,0,4142,0,20432,0
20352,28,-8210,696,-51,14,6,9106,-3,3,0,0,37269,95,25,144,0,0,0,0,0,0,0,0,-32294,0,0,0,4142,0,20442,0
20362,10,-8208,700,-52,8,6,9107,2,4,2,0,37282,91,25,144,0,0,0,0,0,0,0,0,-32294,0,0,0,4142,0,20452,0
20372,38,-8228,704,-43,13,6,9107,1,2,0,0,37279,98,25,144,0,0,0,0,0,0,0,0,-32294,0,0,0,4142,0,20462,0
20382,14,-8220,682,-47,17,11,9108,3,0,-1,0,37279,102,25,144,0,0,0,0,0,0,0,0,-32294,0,0,0,4142,0,20472,0
20392,16,-8194,732,-50,15,7,9106,0,-1,2,0,37272,105,25,144,0,0,0,0,0,0,0,0,-32294,0,0,0,4142,0,20482,0
20402,-10,-8224,698,-51,12,10,9105,-1,3,0,0,37268,99,25,144,0,0,0,0,0,0,0,0,-32294,0,0,0,4142,0,20492,0
20412,16,-8216,722,-54,15,9,9106,-1,-2,1,0,37267,96,25,144,0,0,0,0,0,0,0,0,-32294,0,0,0,4143,0,20502,0
20422,26,-8196,686,-47,17,2,9107,0,1,2,0,37267,96,25,144,0,0,0,0,0,0,0,0,-32294,0,0,0,4142,0,20512,0
20432,14,-8232,682,-49,15,7,9106,0,3,1,0,37265,99,25,144,0,0,0,0,0,0,0,0,-32294,0,0,0,4142,0,20522,0
20442,18,-8200,698,-49,11,4,9106,0,3,1,0,37264,93,25,144,0,0,0,0,0,0,0,0,-32294,0,0,0,4142,0,20532,0
20452,-12,-8198,702,-45,17,8,9106,-7,1,0,0,37264,88,25,144,0,0,0,0,0,0,0,0,-32294,0,0,0,4142,0,20542,0
20462,-4,-8216,662,-47,13,6,9106,-1,-3,3,0,37265,93,25,144,0,0,0,0,0,0,0,0,-32294,0,0,0,4142,0,20552,0
20472,4,-8246,686,-46,13,5,9107,4,4,1,0,37270,96,25,144,0,0,0,0,0,0,0,0,-32294,0,0,0,4142,0,20562,0
20482,32,-8210,706,-49,14,2,9108,0,1,0,0,37268,98,25,144,0,0,0,0,0,0,0,0,-32294,0,0,0,4142,0,20572,0
20492,46,-8220,712,-52,12,8,9108,5,-2,3,0,37267,99,25,144,0,0,0,0,0,0,0,0,-32295,0,0,0,4142,0,20582,0
20502,24,-8232,698,-51,10,9,9107,4,0,2,0,37262,102,25,144,0,0,0,0,0,0,0,0,-32294,0,0,0,4142,0,20592,0
20512,26,-8180,726,-46,14,9,9106,-1,2,3,0,37265,102,25,144,0,0,0,0,0,0,0,0,-32294,0,0,0,4142,0,20602,0
20522,6,-8208,712,-50,10,6,9107,8,-1,1,0,37265,97,25,144,0,0,0,0,0,0,0,0,-32295,0,0,0,4142,0,20612,0
20532,6,-8246,724,-49,11,10,9107,-3,3,0,0,37267,91,25,144,0,0,0,0,0,0,0,0,-32294,0,0,0,4142,0,20622,0
20542,-8,-8188,706,-56,15,6,9107,0,1,1,0,37266,89,25,144,0,0,0,0,0,0,0,0,-32295,0,0,0,4143,0,20632,0
20552,8,-8218,702,-53,13,5,9107,-3,0,0,0,37268,83,25,144,0,0,0,0,0,0,0,0,-32295,0,0,0,4143,0,20642,0
20562,30,-8238,694,-51,14,7,9108,1,-6,0,0,37273,83,25,144,0,0,0,0,0,0,0,0,-32295,0,0,0,4142,0,20652,0
20572,20,-8236,698,-55,5,7,9106,-5,-1,3,0,37272,86,25,144,0,0,0,0,0,0,0,0,-32295,0,0,0,4142,0,20662,0
20582,34,-8186,708,-52,6,10,9105,-9,-4,0,0,37277,104,25,144,0,0,0,0,0,0,0,0,-32294,0,0,0,4142,0,20672,0
20592,-14,-8224,672,-48,14,15,9106,-3,2,1,0,37274,102,25,144,0,0,0,0,0,0,0,0,-32294,0,0,0,4142,0,20682,0
20602,2,-8224,698,-48,13,8,9106,-7,-1,0,0,37274,103,25,144,0,0,0,0,0,0,0,0,-32294,0,0,0,4142,0,20692,0
20612,-10,-8218,706,-54,13,3,9106,0,-1,2,0,37266,96,25,144,0,0,0,0,0,0,0,0,-32294,0,0,0,4143,0,20702,0
20622,10,-8206,710,-47,10,6,9107,0,-3,2,0,37266,100,25,144,0,0,0,0,0,0,0,0,-32294,0,0,0,4143,0,20712,0
20632,4,-8248,712,-53,11,-1,9105,-4,0,0,0,37267,97,25,144,0,0,0,0,0,0,0,0,-32294,0,0,0,4142,0,20722,0
20642,-30,-8234,704,-53,10,0,9108,0,-3,2,0,37269,96,25,144,0,0,0,0,0,0,0,0,-32294,0,0,0,4142,0,20732,0
20652,-12,-8210,690,-56,12,-5,9106,0,4,0,0,37270,97,25,144,0,0,0,0,0,0,0,0,-32294,0,0,0,4142,0,20742,0
20662,14,-8230,702,-58,9,-3,9108,9,0,1,0,37269,99,25,144,0,0,0,0,0,0,0,0,-32294,0,0,0,4142,0,20752,0
20672,24,-8192,678,-51,9,-6,9106,-7,-3,2,0,37270,104,25,144,0,0,0,0,0,0,0,0,-32294,0,0,0,4143,0,20762,0
20682,24,-8242,676,-48,12,-2,9106,-6,-3,-2,0,37270,104,25,144,0,0,0,0,0,0,0,0,-32295,0,0,0,4142,0,20775,0
20692,16,-8268,728,-48,6,-5,9107,-1,1,3,0,37274,108,25,144,0,0,0,0,0,0,0,0,-32294,0,0,0,4142,0,20785,0
20702,18,-8228,702,-55,6,-3,9106,-1,-4,0,0,37271,101,25,144,0,0,0,0,0,0,0,0,-32294,0,0,0,4142,0,20794,0
20712,0,-8220,722,-53,8,-6,9108,1,4,0,0,37269,101,25,144,0,0,0,0,0,0,0,0,-32294,0,0,0,4142,0,20804,0
20722,40,-8240,726,-52,9,-8,9107,-1,2,2,0,37268,90,25,144,0,0,0,0,0,0,0,0,-32294,0,0,0,4142,0,20815,0
20732,50,-8176,704,-53,6,-2,9107,3,2,0,0,37271,91,25,144,0,0,0,0,0,0,0,0,-32294,0,0,0,4140,0,20825,0
20742,58,-8238,660,-52,14,-5,9107,4,0,2,0,37271,85,25,144,0,0,0,0,0,0,0,0,-32294,0,0,0,4141,0,20834,0
20752,2,-8208,634,-47,23,1,9106,0,3,2,0,37271,80,25,144,0,0,0,0,0,0,0,0,-32294,0,0,0,4142,0,20844,0
20762,46,-8206,664,-42,19,0,9107,-4,0,1,0,37276,91,25,144,0,0,0,0,0,0,0,0,-32294,0,0,0,4142,0,20854,0
20772,76,-8248,714,-42,14,4,9107,-6,-2,1,0,37276,96,25,144,0,0,0,0,0,0,0,0,-32294,0,0,0,4141,0,20865,0
20782,58,-8214,692,-46,12,7,9107,-1,-1,0,0,37274,98,25,144,0,0,0,0,0,0,0,0,-32294,0,0,0,4142,0,20875,0
20792,30,-8216,702,-44,13,14,9106,-1,2,2,0,37270,95,25,144,0,0,0,0,0,0,0,0,-32294,0,0,0,4141,0,20884,0
20802,24,-8224,692,-49,14,7,9107,4,-4,1,0,37276,107,25,144,0,0,0,0,0,0,0,0,-32294,0,0,0,4140,0,20894,0
20812,-4,-8220,688,-51,16,6,9106,0,-3,1,0,37277,97,25,144,0,0,0,0,0,0,0,0,-32294,0,0,0,4139,0,20904,0
20822,38,-8216,676,-48,14,13,9107,-6,-3,1,0,37279,92,25,144,0,0,0,0,0,0,0,0,-32294,0,0,0,4140,0,20915,0
20832,38,-8234,672,-43,15,10,9107,3,1,0,0,37274,82,25,144,0,0,0,0,0,0,0,0,-32294,0,0,0,4140,0,20925,0
20842,28,-8228,706,-46,14,8,9106,0,2,3,0,37271,93,25,144,0,0,0,0,0,0,0,0,-32294,0,0,0,4142,0,20934,0
20852,42,-8198,684,-44,13,11,9108,4,0,1,0,37274,98,25,144,0,0,0,0,0,0,0,0,-32294,0,0,0,4140,0,20944,0
20862,56,-8190,688,-40,14,7,9107,-1,-1,0,0,37277,95,25,144,0,0,0,0,0,0,0,0,-32294,0,0,0,4140,0,20954,0
20872,18,-8232,696,-46,16,8,9106,1,0,2,0,37279,97,25,144,0,0,0,0,0,0,0,0,-32295,0,0,0,4140,0,20965,0
20882,32,-8204,680,-48,12,7,9108,-2,-4,-1,0,37277,101,25,144,0,0,0,0,0,0,0,0,-32294,0,0,0,4140,0,20974,0
20892,8,-8246,716,-46,15,11,9107,2,3,3,0,37275,101,25,144,0,0,0,0,0,0,0,0,-32294,0,0,0,4142,0,20984,0
20902,-6,-8204,704,-49,10,2,9107,0,1,2,0,37283,96,25,144,0,0,0,0,0,0,0,0,-32294,0,0,0,4142,0,20994,0
20912,6,-8208,702,-48,13,6,9107,0,1,0,0,37284,93,25,144,0,0,0,0,0,0,0,0,-32294,0,0,0,4141,0,21004,0
20922,38,-8200,702,-45,13,9,9106,0,3,3,0,37283,88,25,144,0,0,0,0,0,0,0,0,-32294,0,0,0,4139,0,21015,0
20932,28,-8234,692,-46,15,3,9107,4,-2,1,0,37276,83,25,144,0,0,0,0,0,0,0,0,-32294,0,0,0,4140,0,21025,0
20942,-4,-8202,696,-45,9,7,9106,-2,-1,2,0,37277,75,25,144,0,0,0,0,0,0,0,0,-32294,0,0,0,4141,0,21035,0
20952,22,-8210,700,-47,13,4,9107,0,-1,1,0,37283,86,25,144,0,0,0,0,0,0,0,0,-32294,0,0,0,4140,0,21045,0
20962,36,-8214,686,-47,9,9,9107,3,4,0,0,37282,86,25,144,0,0,0,0,0,0,0,0,-32294,0,0,0,4141,0,21055,0
20972,30,-8232,706,-42,14,5,9107,5,3,1,0,37282,96,25,144,0,0,0,0,0,0,0,0,-32294,0,0,0,4139,0,21065,0
20982,8,-8224,684,-48,14,10,9106,0,2,0,0,37279,97,25,144,0,0,0,0,0,0,0,0,-32294,0,0,0,4141,0,21075,0
20992,18,-8204,702,-45,11,10,9107,-1,-3,1,0,37283,107,25,144,0,0,0,0,0,0,0,0,-32294,0,0,0,4141,0,21085,0
21002,20,-8232,702,-53,14,8,9106,-2,0,2,0,37291,106,25,144,0,0,0,0,0,0,0,0,-32294,0,0,0,4141,0,21095,0
21012,22,-8206,694,-47,11,3,9107,7,1,-1,0,37302,111,25,144,0,0,0,0,0,0,0,0,-32294,0,0,0,4141,0,21105,0
21022,18,-8200,692,-49,11,9,9107,4,-1,2,0,37309,113,25,144,0,0,0,0,0,0,0,0,-32294,0,0,0,4140,0,21115,0
21032,14,-8216,698,-50,12,7,9106,-4,3,2,0,37299,109,25,144,0,0,0,0,0,0,0,0,-32295,0,0,0,4142,0,21125,0
21042,14,-8182,724,-47,13,6,9106,-1,-2,2,0,37289,105,25,144,0,0,0,0,0,0,0,0,-32294,0,0,0,4140,0,21135,0
21052,6,-8194,696,-49,7,3,9108,2,-4,2,0,37278,92,25,144,0,0,0,0,0,0,0,0,-32295,0,0,0,4140,0,21145,0
21062,48,-8226,702,-47,10,4,9106,0,-3,0,0,37275,90,25,144,0,0,0,0,0,0,0,0,-32294,0,0,0,4140,0,21155,0
21072,58,-8216,706,-48,18,7,9106,-5,1,1,0,37274,94,25,144,0,0,0,0,0,0,0,0,-32294,0,0,0,4142,0,21165,0
21082,52,-8246,700,-48,11,7,9106,2,1,1,0,37273,97,25,144,0,0,0,0,0,0,0,0,-32294,0,0,0,4142,0,21175,0
21092,40,-8218,716,-47,10,7,9107,1,1,1,0,37274,94,25,144,0,0,0,0,0,0,0,0,-32294,0,0,0,4140,0,21185,0
21102,18,-8184,718,-43,12,9,9107,14,8,0,0,37274,95,25,144,0,0,0,0,0,0,0,0,-32294,0,0,0,4142,0,21195,0
21112,20,-8244,668,-51,20,11,9106,4,1,0,0,37281,98,25,144,0,0,0,0,0,0,0,0,-32294,0,0,0,4140,0,21205,0
21122,30,-8214,712,-48,13,6,9106,3,-1,1,0,37280,99,25,144,0,0,0,0,0,0,0,0,-32295,0,0,0,4139,0,21215,0
21132,10,-8202,724,-48,14,7,9106,-2,-2,0,0,37283,94,25,144,0,0,0,0,0,0,0,0,-32294,0,0,0,4140,0,21225,0
21142,2,-8242,728,-52,7,2,9106,0,-1,2,0,37275,93,25,144,0,0,0,0,0,0,0,0,-32294,0,0,0,4142,0,21235,0
21152,32,-8218,714,-46,13,2,9108,2,4,1,0,37275,94,25,144,0,0,0,0,0,0,0,0,-32295,0,0,0,4142,0,21245,0
21162,26,-8200,722,-49,9,5,9106,0,2,0,0,37271,92,25,144,0,0,0,0,0,0,0,0,-32294,0,0,0,4140,0,21255,0
21172,8,-8276,702,-51,13,-1,9106,0,-1,1,0,37273,98,25,144,0,0,0,0,0,0,0,0,-32294,0,0,0,4142,0,21265,0
21182,32,-8216,730,-53,17,1,9106,-1,-2,0,0,37270,101,25,144,0,0,0,0,0,0,0,0,-32294,0,0,0,4141,0,21275,0
21192,38,-8218,698,-51,10,3,9107,2,1,1,0,37271,104,25,144,0,0,0,0,0,0,0,0,-32294,0,0,0,4140,0,21285,0
21202,32,-8214,698,-51,18,7,9106,-6,4,1,0,37269,99,25,144,0,0,0,0,0,0,0,0,-32294,0,0,0,4141,0,21295,0
21212,26,-8208,694,-56,17,4,9107,-5,0,0,0,37273,97,25,144,0,0,0,0,0,0,0,0,-32294,0,0,0,4142,0,21305,0
21222,0,-8194,710,-55,12,3,9106,-3,1,2,0,37274,95,25,144,0,0,0,0,0,0,0,0,-32294,0,0,0,4140,0,21315,0
21232,18,-8234,718,-54,11,0,9106,0,-1,2,0,37274,93,25,144,0,0,0,0,0,0,0,0,-32294,0,0,0,4140,0,21325,0
21242,16,-8214,692,-51,10,2,9106,0,3,1,0,37271,94,25,144,0,0,0,0,0,0,0,0,-32294,0,0,0,4141,0,21335,0
21252,42,-8208,700,-52,14,0,9106,-7,-1,1,0,37269,99,25,144,0,0,0,0,0,0,0,0,-32294,0,0,0,4140,0,21345,0
21262,40,-8228,714,-52,11,0,9106,-2,-1,0,0,37268,88,25,144,0,0,0,0,0,0,0,0,-32294,0,0,0,4141,0,21355,0
21272,64,-8224,682,-48,18,3,9106,0,-3,2,0,37269,82,25,144,0,0,0,0,0,0,0,0,-32294,0,0,0,4140,0,21365,0
21282,50,-8210,684,-51,14,7,9106,0,1,0,0,37271,94,25,144,0,0,0,0,0,0,0,0,-32294,0,0,0,4139,0,21375,0
21292,42,-8210,704,-55,14,10,9107,0,2,0,0,37271,101,25,144,0,0,0,0,0,0,0,0,-32294,0,0,0,4141,0,21385,0
21302,30,-8196,690,-47,11,7,9108,6,-3,2,0,37268,99,25,144,0,0,0,0,0,0,0,0,-32294,0,0,0,4140,0,21395,0
21312,8,-8222,706,-50,14,10,9106,-1,3,1,0,37269,87,25,144,0,0,0,0,0,0,0,0,-32295,0,0,0,4140,0,21405,0
21322,54,-8234,702,-54,19,11,9106,1,1,2,0,37273,87,25,144,0,0,0,0,0,0,0,0,-32294,0,0,0,4142,0,21415,0
21332,32,-8216,694,-46,10,9,9106,-1,6,1,0,37276,96,25,144,0,0,0,0,0,0,0,0,-32294,0,0,0,4141,0,21425,0
21342,22,-8204,706,-47,13,8,9107,-5,-3,1,0,37273,89,25,144,0,0,0,0,0,0,0,0,-32295,0,0,0,4140,0,21435,0
21352,20,-8200,718,-55,15,7,9109,10,2,2,0,37267,92,25,144,0,0,0,0,0,0,0,0,-32294,0,0,0,4140,0,21445,0
21362,20,-8212,692,-53,12,1,9107,4,2,0,0,37265,86,25,144,0,0,0,0,0,0,0,0,-32294,0,0,0,4141,0,21455,0
21372,8,-8226,694,-54,8,3,9107,2,1,2,0,37266,89,25,144,0,0,0,0,0,0,0,0,-32294,0,0,0,4139,0,21465,0
21382,12,-8230,690,-49,6,3,9107,1,-6,1,0,37266,93,25,144,0,0,0,0,0,0,0,0,-32294,0,0,0,4139,0,21475,0
21392,16,-8202,668,-50,14,0,9107,-4,0,1,0,37264,90,25,144,0,0,0,0,0,0,0,0,-32294,0,0,0,4140,0,21485,0
21402,18,-8202,706,-51,8,-4,9106,-2,-3,1,0,37264,89,25,144,0,0,0,0,0,0,0,0,-32294,0,0,0,4140,0,21495,0
21412,32,-8262,716,-55,14,-1,9107,5,-1,0,0,37267,93,25,144,0,0,0,0,0,0,0,0,-32294,0,0,0,4139,0,21505,0
21422,12,-8208,708,-54,18,-6,9107,-1,4,1,0,37266,91,25,144,0,0,0,0,0,0,0,0,-32294,0,0,0,4139,0,21515,0
21432,34,-8208,702,-55,17,-4,9107,4,-1,0,0,37266,96,25,144,0,0,0,0,0,0,0,0,-32294,0,0,0,4138,0,21525,0
21442,48,-8212,710,-57,13,-6,9106,2,-1,1,0,37265,89,25,144,0,0,0,0,0,0,0,0,-32294,0,0,0,4138,0,21535,0
21452,54,-8214,702,-55,13,-1,9107,3,-5,0,0,37263,83,25,144,0,0,0,0,0,0,0,0,-32294,0,0,0,4138,0,21545,0
21462,60,-8222,690,-53,15,5,9107,0,2,0,0,37264,84,25,144,0,0,0,0,0,0,0,0,-32294,0,0,0,4138,0,21555,0
21472,46,-8176,714,-50,10,5,9106,-2,7,2,0,37264,88,25,144,0,0,0,0,0,0,0,0,-32294,0,0,0,4138,0,21565,0
21482,22,-8228,672,-47,11,0,9105,-4,3,0,0,37262,89,25,144,0,0,0,0,0,0,0,0,-32294,0,0,0,4139,0,21575,0
21492,34,-8236,698,-52,12,7,9106,-3,-1,0,0,37262,91,25,144,0,0,0,0,0,0,0,0,-32294,0,0,0,4139,0,21585,0
21502,42,-8202,686,-52,12,3,9107,1,0,2,0,37263,99,25,144,0,0,0,0,0,0,0,0,-32294,0,0,0,4139,0,21595,0
21512,38,-8232,674,-52,12,7,9107,3,3,2,0,37268,97,25,144,0,0,0,0,0,0,0,0,-32294,0,0,0,4139,0,21605,0
21522,2,-8238,696,-49,15,7,9107,4,4,0,0,37274,93,25,144,0,0,0,0,0,0,0,0,-32294,0,0,0,4139,0,21615,0
21532,18,-8204,704,-55,14,10,9107,-1,-1,2,0,37274,95,25,144,0,0,0,0,0,0,0,0,-32295,0,0,0,4139,0,21625,0
21542,30,-8214,682,-46,15,8,9106,1,-2,1,0,37274,98,25,144,0,0,0,0,0,0,0,0,-32294,0,0,0,4139,0,21635,0
21552,42,-8212,702,-48,14,5,9107,-2,1,0,0,37266,95,25,144,0,0,0,0,0,0,0,0,-32294,0,0,0,4139,0,21645,0
21562,26,-8184,700,-51,14,5,9107,3,1,2,0,37265,83,25,144,0,0,0,0,0,0,0,0,-32295,0,0,0,4139,0,21655,0
21572,28,-8246,696,-49,15,10,9107,3,-2,1,0,37264,82,25,144,0,0,0,0,0,0,0,0,-32294,0,0,0,4139,0,21665,0
21582,30,-8212,696,-54,12,6,9106,-5,-1,1,0,37265,90,25,144,0,0,0,0,0,0,0,0,-32294,0,0,0,4139,0,21675,0
21592,14,-8176,718,-48,12,5,9107,2,-1,0,0,37266,88,25,144,0,0,0,0,0,0,0,0,-32294,0,0,0,4139,0,21685,0
21602,6,-8236,676,-50,14,4,9106,-6,1,2,0,37268,83,25,144,0,0,0,0,0,0,0,0,-32294,0,0,0,4139,0,21695,0
21612,28,-8226,696,-54,11,3,9107,0,-1,1,0,37270,85,25,144,0,0,0,0,0,0,0,0,-32294,0,0,0,4139,0,21705,0
21622,40,-8228,702,-51,16,6,9105,-4,-1,0,0,37272,88,25,144,0,0,0,0,0,0,0,0,-32294,0,0,0,4138,0,21715,0
21632,-2,-8242,706,-55,15,-1,9106,-4,-2,1,0,37271,91,25,144,0,0,0,0,0,0,0,0,-32294,0,0,0,4139,0,21725,0
21642,0,-8212,704,-50,15,1,9106,-4,3,0,0,37272,90,25,144,0,0,0,0,0,0,0,0,-32294,0,0,0,4139,0,21735,0
21652,36,-8210,720,-52,16,-2,9106,0,6,2,0,37266,93,25,144,0,0,0,0,0,0,0,0,-32294,0,0,0,4139,0,21745,0
21662,34,-8226,680,-48,10,2,9105,-6,2,1,0,37267,99,25,144,0,0,0,0,0,0,0,0,-32295,0,0,0,4138,0,21755,0
21672,76,-8218,696,-50,11,7,9106,1,3,1,0,37266,102,25,144,0,0,0,0,0,0,0,0,-32294,0,0,0,4138,0,21765,0
21682,62,-8246,676,-51,13,10,9106,-2,0,0,0,37270,100,25,144,0,0,0,0,0,0,0,0,-32294,0,0,0,4138,0,21776,0
21692,38,-8208,682,-48,13,8,9106,-4,1,0,0,37272,103,25,144,0,0,0,0,0,0,0,0,-32294,0,0,0,4138,0,21786,0
21702,44,-8222,694,-47,15,9,9106,-5,-3,3,0,37270,102,25,144,0,0,0,0,0,0,0,0,-32294,0,0,0,4138,0,21796,0
21712,30,-8206,708,-45,13,7,9107,4,-1,1,0,37270,94,25,144,0,0,0,0,0,0,0,0,-32294,0,0,0,4140,0,21806,0
21722,10,-8204,706,-48,13,7,9106,1,2,1,0,37271,93,25,144,0,0,0,0,0,0,0,0,-32294,0,0,0,4138,0,21816,0
21732,10,-8224,704,-45,16,9,9107,0,-1,2,0,37275,115,25,144,0,0,0,0,0,0,0,0,-32294,0,0,0,4138,0,21826,0
21742,26,-8236,680,-48,12,7,9106,-6,-1,2,0,37273,123,25,144,0,0,0,0,0,0,0,0,-32294,0,0,0,4139,0,21836,0
21752,38,-8192,684,-45,9,2,9107,0,3,0,0,37268,111,25,144,0,0,0,0,0,0,0,0,-32295,0,0,0,4138,0,21846,0
21762,32,-8242,690,-50,12,6,9107,4,2,0,0,37269,93,25,144,0,0,0,0,0,0,0,0,-32295,0,0,0,4139,0,21856,0
21772,40,-8234,694,-50,11,11,9107,0,3,0,0,37272,94,25,144,0,0,0,0,0,0,0,0,-32294,0,0,0,4138,0,21866,0
21782,26,-8226,686,-43,16,6,9108,4,2,1,0,37271,91,25,144,0,0,0,0,0,0,0,0,-32295,0,0,0,4139,0,21876,0
21792,12,-8242,694,-49,17,9,9106,0,5,0,0,37269,94,25,144,0,0,0,0,0,0,0,0,-32294,0,0,0,4139,0,21886,0
21802,26,-8212,686,-42,10,9,9106,0,3,2,0,37271,97,25,144,0,0,0,0,0,0,0,0,-32294,0,0,0,4139,0,21896,0
21812,20,-8200,670,-46,18,8,9106,0,0,0,0,37275,104,25,144,0,0,0,0,0,0,0,0,-32294,0,0,0,4139,0,21906,0
21822,28,-8200,674,-46,11,10,9107,5,-1,0,0,37276,112,25,144,0,0,0,0,0,0,0,0,-32294,0,0,0,4139,0,21926,0
21832,28,-8214,702,-46,14,11,9106,-4,2,2,0,37279,108,25,144,0,0,0,0,0,0,0,0,-32294,0,0,0,4139,0,21946,0
21842,42,-8200,716,-50,15,6,9106,0,0,1,0,37278,104,25,144,0,0,0,0,0,0,0,0,-32295,0,0,0,4138,0,21966,0
21852,34,-8208,686,-50,13,9,9107,0,-1,1,0,37280,95,25,144,0,0,0,0,0,0,0,0,-32294,0,0,0,4138,0,21986,0
21862,28,-8202,688,-46,15,7,9107,2,3,1,0,37280,95,25,144,0,0,0,0,0,0,0,0,-32294,0,0,0,4138,0,22006,0
21872,32,-8214,702,-45,10,9,9107,2,2,0,0,37274,94,25,144,0,0,0,0,0,0,0,0,-32294,0,0,0,4140,0,22026,0
21882,12,-8252,696,-52,14,13,9108,3,0,0,0,37274,96,25,144,0,0,0,0,0,0,0,0,-32294,0,0,0,4138,0,22046,0
21892,16,-8216,682,-50,14,6,9107,-1,0,0,0,37274,90,25,144,0,0,0,0,0,0,0,0,-32294,0,0,0,4139,0,22067,0
21902,26,-8226,708,-49,8,10,9106,-4,-1,1,0,37276,82,25,144,0,0,0,0,0,0,0,0,-32294,0,0,0,4139,0,22087,0
21912,24,-8256,684,-44,12,6,9106,-4,1,1,0,37280,92,25,144,0,0,0,0,0,0,0,0,-32294,0,0,0,4139,0,22107,0
21922,24,-8224,712,-50,14,3,9108,8,-3,0,0,37280,96,25,144,0,0,0,0,0,0,0,0,-32294,0,0,0,4138,0,22130,0
21932,52,-8224,696,-48,14,7,9107,3,0,2,0,37278,101,25,144,0,0,0,0,0,0,0,0,-32294,0,0,0,4138,0,22150,0
21942,18,-8218,688,-49,12,7,9107,0,4,2,0,37283,108,25,144,0,0,0,0,0,0,0,0,-32294,0,0,0,4139,0,22170,0
21952,50,-8218,690,-48,16,8,9107,-1,-4,1,0,37282,107,25,144,0,0,0,0,0,0,0,0,-32294,0,0,0,4139,0,22190,0
21962,38,-8208,696,-53,12,10,9106,5,7,0,0,37284,107,25,144,0,0,0,0,0,0,0,0,-32294,0,0,0,4139,0,22210,0
21972,14,-8216,684,-43,15,11,9106,0,-4,0,0,37277,94,25,144,0,0,0,0,0,0,0,0,-32294,0,0,0,4139,0,22230,0
21982,26,-8238,704,-48,12,10,9107,0,-4,1,0,37277,94,25,144,0,0,0,0,0,0,0,0,-32294,0,0,0,4139,0,22250,0
21992,70,-8240,688,-45,13,10,9107,0,-1,2,0,37276,97,25,144,0,0,0,0,0,0,0,0,-32294,0,0,0,4139,0,22270,0
22002,46,-8244,682,-51,15,11,9106,-1,2,1,0,37276,95,25,144,0,0,0,0,0,0,0,0,-32295,0,0,0,4139,0,22290,0
22012,38,-8206,672,-42,15,7,9107,-2,5,2,0,37276,85,25,144,0,0,0,0,0,0,0,0,-32294,0,0,0,4138,0,22310,0
22022,28,-8196,688,-43,13,12,9107,0,1,0,0,37276,89,25,144,0,0,0,0,0,0,0,0,-32294,0,0,0,4140,0,22330,0
22032,14,-8244,670,-44,15,9,9107,4,-2,2,0,37274,99,25,144,0,0,0,0,0,0,0,0,-32295,0,0,0,4139,0,22350,0
22042,4,-8216,726,-40,13,11,9108,5,-4,1,0,37281,102,25,144,0,0,0,0,0,0,0,0,-32294,0,0,0,4139,0,22370,0
22052,44,-8202,702,-43,19,6,9107,2,0,0,0,37281,102,25,144,0,0,0,0,0,0,0,0,-32294,0,0,0,4139,0,22390,0
22062,14,-8216,734,-49,13,13,9106,3,-1,1,0,37282,96,25,144,0,0,0,0,0,0,0,0,-32294,0,0,0,4139,0,22410,0
22072,-10,-8220,700,-50,13,11,9107,-2,1,1,0,37276,101,25,144,0,0,0,0,0,0,0,0,-32294,0,0,0,4140,0,22430,0
22082,34,-8210,714,-52,11,8,9106,-3,-4,-1,0,37272,97,25,144,0,0,0,0,0,0,0,0,-32294,0,0,0,4140,0,22450,0
22092,2,-8242,702,-53,11,6,9106,2,1,2,0,37273,98,25,144,0,0,0,0,0,0,0,0,-32294,0,0,0,4139,0,22470,0
22102,-10,-8242,692,-55,15,4,9108,7,4,1,0,37276,91,25,144,0,0,0,0,0,0,0,0,-32294,0,0,0,4139,0,22490,0
22112,40,-8192,692,-43,11,0,9107,0,-4,3,0,37278,92,25,144,0,0,0,0,0,0,0,0,-32294,0,0,0,4140,0,22510,0
22122,2,-8230,708,-48,12,5,9106,-1,-1,0,0,37276,96,25,144,0,0,0,0,0,0,0,0,-32294,0,0,0,4140,0,22530,0
22132,36,-8232,704,-47,13,-2,9105,-7,-3,2,0,37274,100,25,144,0,0,0,0,0,0,0,0,-32294,0,0,0,4140,0,22550,0
22142,24,-8212,704,-52,14,5,9107,3,0,1,0,37275,101,25,144,0,0,0,0,0,0,0,0,-32294,0,0,0,4139,0,22570,0
22152,36,-8234,692,-58,7,4,9106,-3,-7,1,0,37275,103,25,144,0,0,0,0,0,0,0,0,-32294,0,0,0,4139,0,22590,0
22162,38,-8212,698,-57,8,4,9107,2,-1,1,0,37273,105,25,144,0,0,0,0,0,0,0,0,-32294,0,0,0,4139,0,22610,0
22172,48,-8250,696,-50,13,7,9107,0,-7,0,0,37270,110,25,144,0,0,0,0,0,0,0,0,-32294,0,0,0,4140,0,22630,0
22182,28,-8206,682,-53,12,7,9106,-2,0,0,0,37271,104,25,144,0,0,0,0,0,0,0,0,-32294,0,0,0,4139,0,22650,0
22192,26,-8238,698,-53,19,9,9108,2,-5,3,0,37271,96,25,144,0,0,0,0,0,0,0,0,-32294,0,0,0,4139,0,22670,0
22202,26,-8226,682,-51,15,9,9108,5,0,0,0,37270,85,25,144,0,0,0,0,0,0,0,0,-32294,0,0,0,4139,0,22690,0
22212,16,-8214,698,-53,16,9,9107,4,6,2,0,37269,91,25,144,0,0,0,0,0,0,0,0,-32294,0,0,0,4139,0,22710,0
22222,50,-8234,664,-49,19,12,9108,-2,-4,0,0,37269,96,25,144,0,0,0,0,0,0,0,0,-32294,0,0,0,4140,0,22730,0
22232,48,-8196,688,-47,19,15,9106,2,-1,1,0,37271,96,25,144,0,0,0,0,0,0,0,0,-32294,0,0,0,4139,0,22750,0
22242,32,-8222,692,-48,17,10,9106,-7,-3,3,0,37273,98,25,144,0,0,0,0,0,0,0,0,-32294,0,0,0,4138,0,22770,0
22252,-8,-8228,674,-46,12,10,9107,0,2,1,0,37275,98,25,144,0,0,0,0,0,0,0,0,-32294,0,0,0,4139,0,22790,0
22262,32,-8236,674,-50,14,9,9105,0,1,1,0,37273,94,25,144,0,0,0,0,0,0,0,0,-32295,0,0,0,4138,0,22810,0
22272,8,-8250,694,-48,14,9,9106,-3,-1,1,0,37277,91,25,144,0,0,0,0,0,0,0,0,-32294,0,0,0,4139,0,22830,0
22282,28,-8276,700,-48,14,6,9106,1,-1,3,0,37286,91,25,144,0,0,0,0,0,0,0,0,-32294,0,0,0,4140,0,22850,0
22292,32,-8228,706,-52,15,6,9107,4,1,2,0,37285,95,25,144,0,0,0,0,0,0,0,0,-32294,0,0,0,4139,0,22870,0
22302,24,-8214,696,-53,14,11,9107,1,0,1,0,37284,97,25,144,0,0,0,0,0,0,0,0,-32294,0,0,0,4139,0,22890,0
22312,20,-8224,706,-51,12,8,9108,4,-3,1,0,37271,96,25,144,0,0,0,0,0,0,0,0,-32294,0,0,0,4139,0,22910,0
22322,14,-8234,688,-52,17,7,9105,-1,-2,0,0,37271,99,25,144,0,0,0,0,0,0,0,0,-32294,0,0,0,4139,0,22931,0
22332,22,-8206,686,-51,12,6,9107,1,1,0,0,37271,102,25,144,0,0,0,0,0,0,0,0,-32294,0,0,0,4139,0,22950,0
22342,38,-8230,702,-52,12,5,9107,0,1,3,0,37266,99,25,144,0,0,0,0,0,0,0,0,-32294,0,0,0,4140,0,22970,0
22352,40,-8236,672,-52,16,10,9107,-1,-1,-1,0,37270,92,25,144,0,0,0,0,0,0,0,0,-32294,0,0,0,4140,0,22987,0
22362,28,-8204,674,-56,16,10,9105,3,0,1,0,37271,99,25,144,0,0,0,0,0,0,0,0,-32294,0,0,0,4140,0,23007,0
22372,-10,-8250,686,-51,11,11,9107,3,-3,1,0,37273,94,25,144,0,0,0,0,0,0,0,0,-32294,0,0,0,4140,0,23027,0
22382,48,-8224,706,-54,16,11,9106,0,1,0,0,37264,91,25,144,0,0,0,0,0,0,0,0,-32294,0,0,0,4140,0,23047,0
22392,26,-8160,702,-49,12,7,9107,0,1,2,0,37263,87,25,144,0,0,0,0,0,0,0,0,-32294,0,0,0,4139,0,23068,0
22402,36,-8224,686,-55,31,12,9193,310,158,864,1168,37262,94,25,144,0,0,0,0,0,0,0,0,-32294,0,0,0,4139,0,23088,0
22412,6,-8180,692,-52,13,-14,9455,701,514,981,2256,37260,88,25,144,0,0,0,0,0,0,0,0,-32294,0,0,0,4139,0,23108,0
22422,-18,-8218,680,-52,4,4,9894,1072,672,1015,3088,37255,104,25,144,0,0,0,0,0,0,0,0,-32295,0,0,0,4139,0,23128,0
22432,-78,-8210,686,-58,17,11,10499,1438,655,1007,4088,37243,128,25,144,0,0,0,0,0,0,0,0,-32294,0,0,0,4139,0,23148,0
22442,-26,-8182,706,-56,6,13,11274,1824,637,1002,4936,37230,169,25,144,0,0,0,0,0,0,0,0,-32294,0,0,0,4139,0,23168,0
22452,-68,-8222,686,-45,21,2,12237,2247,690,1016,5888,37221,194,25,144,0,0,0,0,0,0,0,0,-32295,0,0,0,4139,0,23188,0
22462,118,-8244,574,-54,34,5,13378,2612,711,1013,6664,37205,228,25,144,0,0,0,0,0,0,0,0,-32294,0,0,0,4139,0,23208,0
22472,44,-8214,638,-77,38,11,14645,2870,580,993,7344,37189,257,25,144,0,0,0,0,0,0,0,0,-32294,0,0,0,4139,0,23228,0
22482,-8,-8200,712,-66,25,17,16065,3241,524,1051,8016,37169,284,25,144,0,0,0,0,0,0,0,0,-32294,0,0,0,4140,0,23248,0
22492,-84,-8254,568,-43,-45,10,17613,3426,551,1015,8440,37153,296,25,144,0,0,0,0,0,0,0,0,-32293,0,0,0,4139,0,23268,0
22502,-66,-8212,690,-18,-31,2,19181,3498,270,899,8992,37141,314,25,144,0,0,0,0,0,0,0,0,-32294,0,0,0,4141,0,23288,0
22512,-140,-8216,954,-61,7,4,20901,3924,322,1056,9760,37136,326,25,144,0,0,0,0,0,0,0,0,-32294,0,0,0,4139,0,23308,0
22522,-24,-8188,774,-31,0,6,22754,4133,573,965,10488,37122,355,25,144,0,0,0,0,0,0,0,0,-32294,0,0,0,4139,0,23328,0
22532,-32,-8148,430,-28,7,3,24777,4608,560,1073,11248,37109,365,25,144,0,0,0,0,0,0,0,0,-32293,0,0,0,4139,0,23348,0
22542,-232,-8136,638,-75,57,85,26883,4588,526,939,11168,37089,392,25,144,0,0,0,0,0,0,0,0,-32294,0,0,0,4141,0,23368,0
22552,14630,-6140,6082,-88,-2736,4501,28552,3119,-623,1369,5600,37077,420,25,144,0,0,0,0,0,0,0,0,-32295,0,0,0,4258,12,23388,0
22562,16754,-5958,4152,-167,-1983,3001,29071,260,-3041,925,-560,37074,448,25,144,0,0,0,0,0,0,0,0,-32295,0,0,0,4331,4,23408,0
22572,-24342,-9430,-2800,-313,144,-239,28560,-1447,-4293,677,-1944,37103,363,25,144,0,0,0,0,0,0,0,0,-32294,0,0,0,4308,-3,23428,0
22582,-21666,-7976,-4586,81,2475,-1711,27926,-1240,-2201,822,-440,37153,239,25,144,0,0,0,0,0,0,0,0,-32294,0,0,0,4258,-5,23448,0
22592,-1580,-9802,742,686,2847,-2022,27639,-350,483,1399,256,37208,86,25,144,0,0,0,0,0,0,0,0,-32295,0,0,0,4221,-3,23468,0
22602,13372,-7402,3522,340,602,-1076,27614,-15,1221,1019,280,37239,47,25,144,0,0,0,0,0,0,0,0,-32295,0,0,0,4211,0,23488,0
22612,10242,-8366,1996,202,-549,348,27581,-98,470,1012,176,37245,59,25,144,0,0,0,0,0,0,0,0,-32295,0,0,0,4208,0,23508,0
22622,1622,-8464,1698,160,-542,876,27557,9,-21,960,360,37243,73,25,144,0,0,0,0,0,0,0,0,-32294,0,0,0,4208,0,23528,0
22632,-3114,-8196,1680,7,-644,811,27652,290,251,876,1016,37239,76,25,144,0,0,0,0,0,0,0,0,-32294,0,0,0,4220,1,23548,0
22642,-4874,-8138,882,2,-61,474,27850,469,431,1001,1328,37242,83,25,144,0,0,0,0,0,0,0,0,-32294,0,0,0,4236,2,23568,0
22652,1366,-8236,1578,13,166,203,28022,304,163,1076,768,37241,94,25,144,0,0,0,0,0,0,0,0,-32293,0,0,0,4249,1,23588,0
22662,2288,-8214,2090,-93,-14,106,28052,-34,-331,1058,192,37239,119,25,144,0,0,0,0,0,0,0,0,-32294,0,0,0,4253,0,23608,0
22672,-1528,-8068,1760,-268,-105,16,27997,-133,-460,992,192,37241,108,25,144,0,0,0,0,0,0,0,0,-32294,0,0,0,4250,0,23628,0
22682,-2708,-8076,676,-306,5,-25,27983,17,-81,972,336,37246,90,25,144,0,0,0,0,0,0,0,0,-32294,0,0,0,4247,0,23648,0
22692,-910,-8248,-588,-223,16,-202,27997,22,151,1012,296,37255,80,25,144,0,0,0,0,0,0,0,0,-32294,0,0,0,4249,0,23668,0
22702,-636,-7982,-822,-105,-4,-294,27979,-55,-22,1016,208,37258,82,25,144,0,0,0,0,0,0,0,0,-32294,0,0,0,4247,0,23688,0
22712,-438,-8366,90,8,23,-404,27931,-139,-124,1013,144,37256,87,25,144,0,0,0,0,0,0,0,0,-32293,0,0,0,4243,0,23708,0
22722,-574,-8144,894,19,34,-464,27848,-202,-125,995,112,37255,88,25,144,0,0,0,0,0,0,0,0,-32294,0,0,0,4237,-1,23728,0
22732,-58,-8274,1396,-31,81,-527,27754,-212,-83,995,112,37257,96,25,144,0,0,0,0,0,0,0,0,-32294,0,0,0,4229,0,23748,0
22742,108,-8336,1388,-92,83,-505,27666,-171,1,1002,144,37263,94,25,144,0,0,0,0,0,0,0,0,-32295,0,0,0,4223,0,23768,0
22752,460,-8192,1152,-146,19,-382,27602,-126,69,995,168,37262,91,25,144,0,0,0,0,0,0,0,0,-32295,0,0,0,4215,0,23788,0
22762,588,-8036,844,-177,-6,-346,27541,-135,49,996,176,37264,86,25,144,0,0,0,0,0,0,0,0,-32294,0,0,0,4211,0,23808,0
22772,218,-8322,436,-192,-9,-250,27501,-75,49,992,216,37269,88,25,144,0,0,0,0,0,0,0,0,-32294,0,0,0,4207,0,23828,0
22782,102,-8346,306,-134,-11,-194,27475,-45,65,991,256,37273,79,25,144,0,0,0,0,0,0,0,0,-32294,0,0,0,4204,0,23848,0
22792,384,-8194,292,-63,-14,-169,27459,-33,50,1009,224,37271,68,25,144,0,0,0,0,0,0,0,0,-32294,0,0,0,4202,0,23868,0
22802,200,-8182,480,-39,4,-217,27418,-117,-26,1012,160,37269,75,25,144,0,0,0,0,0,0,0,0,-32294,0,0,0,4200,0,23888,0
22812,-376,-8252,756,-57,81,-242,27363,-117,-81,992,208,37264,83,25,144,0,0,0,0,0,0,0,0,-32294,0,0,0,4195,0,23908,0
22822,42,-8210,882,-59,80,-160,27340,-18,33,985,288,37267,81,25,144,0,0,0,0,0,0,0,0,-32294,0,0,0,4192,0,23928,0
22832,1122,-8230,774,-74,-16,-41,27340,2,119,1003,288,37268,72,25,144,0,0,0,0,0,0,0,0,-32294,0,0,0,4191,0,23949,0
22842,480,-8250,598,-76,-49,28,27337,-7,36,997,288,37266,65,25,144,0,0,0,0,0,0,0,0,-32294,0,0,0,4192,0,23967,0
22852,-416,-8240,398,-51,-6,22,27338,3,-1,1000,280,37265,66,25,144,0,0,0,0,0,0,0,0,-32294,0,0,0,4192,0,23987,0
22862,-384,-8194,442,-30,24,-27,27337,-3,10,998,288,37268,77,25,144,0,0,0,0,0,0,0,0,-32294,0,0,0,4192,0,24007,0
22872,128,-8282,632,-12,35,-18,27336,-4,-11,1000,288,37272,79,25,144,0,0,0,0,0,0,0,0,-32294,0,0,0,4193,0,24027,0
22882,386,-8200,824,-14,19,-9,27334,-4,-7,999,280,37274,82,25,144,0,0,0,0,0,0,0,0,-32294,0,0,0,4193,0,24047,0
22892,98,-8230,894,-42,7,9,27329,-7,-3,1001,264,37272,73,25,144,0,0,0,0,0,0,0,0,-32294,0,0,0,4192,0,24067,0
22902,-286,-8236,780,-60,17,-1,27318,-29,-8,997,264,37275,69,25,144,0,0,0,0,0,0,0,0,-32293,0,0,0,4192,0,24087,0
22912,-326,-8224,628,-49,45,-26,27311,-16,-12,998,240,37275,68,25,144,0,0,0,0,0,0,0,0,-32294,0,0,0,4192,0,24107,0
22922,-38,-8172,632,-44,38,-32,27307,-7,10,997,264,37273,72,25,144,0,0,0,0,0,0,0,0,-32294,0,0,0,4191,0,24128,0
22932,270,-8298,746,-37,5,7,27305,-9,16,1003,272,37268,74,25,144,0,0,0,0,0,0,0,0,-32294,0,0,0,4190,0,24148,0
22942,264,-8162,776,-46,3,31,27305,-1,3,1000,272,37265,70,25,144,0,0,0,0,0,0,0,0,-32294,0,0,0,4189,0,24168,0
22952,0,-8218,744,-56,10,38,27306,3,4,999,280,37268,74,25,144,0,0,0,0,0,0,0,0,-32294,0,0,0,4189,0,24188,0
22962,-26,-8246,680,-55,17,33,27306,1,4,1003,264,37271,76,25,144,0,0,0,0,0,0,0,0,-32294,0,0,0,4190,0,24208,0
22972,-34,-8214,648,-57,29,47,27306,2,1,995,264,37271,74,25,144,0,0,0,0,0,0,0,0,-32294,0,0,0,4189,0,24228,0
22982,88,-8190,626,-46,33,42,27308,11,0,994,272,37273,78,25,144,0,0,0,0,0,0,0,0,-32293,0,0,0,4189,0,24248,0
22992,34,-8240,604,-55,23,54,27308,4,-1,998,264,37271,79,25,144,0,0,0,0,0,0,0,0,-32294,0,0,0,4190,0,24268,0
23002,-34,-8218,638,-41,26,56,27310,7,0,997,264,37272,75,25,144,0,0,0,0,0,0,0,0,-32294,0,0,0,4189,0,24288,0
23012,-72,-8224,670,-31,30,48,27310,-2,3,994,280,37268,66,25,144,0,0,0,0,0,0,0,0,-32294,0,0,0,4190,0,24309,0
23022,-98,-8220,698,-39,30,44,27312,2,1,998,280,37267,69,25,144,0,0,0,0,0,0,0,0,-32294,0,0,0,4191,0,24329,0
23032,-78,-8220,722,-37,33,63,27314,4,2,997,288,37268,69,25,144,0,0,0,0,0,0,0,0,-32294,0,0,0,4191,0,24349,0
23042,-42,-8254,700,-43,32,61,27316,1,5,1000,296,37268,65,25,144,0,0,0,0,0,0,0,0,-32294,0,0,0,4192,0,24369,0
23052,-116,-8222,708,-41,23,52,27320,12,-2,998,288,37269,65,25,144,0,0,0,0,0,0,0,0,-32294,0,0,0,4192,0,24389,0
23062,-128,-8240,724,-38,24,44,27323,10,1,1001,288,37269,67,25,144,0,0,0,0,0,0,0,0,-32294,0,0,0,4192,0,24409,0
23072,-118,-8220,742,-48,21,43,27327,11,0,998,296,37269,70,25,144,0,0,0,0,0,0,0,0,-32294,0,0,0,4192,0,24429,0
23082,-60,-8208,774,-46,16,36,27336,26,12,998,328,37273,67,25,144,0,0,0,0,0,0,0,0,-32294,0,0,0,4191,0,24449,0
23092,166,-8246,778,-59,-7,73,27352,43,20,994,376,37275,61,25,144,0,0,0,0,0,0,0,0,-32294,0,0,0,4194,0,24469,0
23102,142,-8234,782,-68,-22,71,27365,14,8,1010,320,37277,67,25,144,0,0,0,0,0,0,0,0,-32294,0,0,0,4194,0,24489,0
23112,-498,-8196,654,-71,10,30,27362,-5,-33,1001,304,37271,75,25,144,0,0,0,0,0,0,0,0,-32294,0,0,0,4195,0,24509,0
23122,-336,-8236,662,-77,29,17,27365,1,-18,997,320,37267,83,25,144,0,0,0,0,0,0,0,0,-32294,0,0,0,4195,0,24529,0
23132,-64,-8162,648,-62,24,5,27363,0,3,1002,288,37265,78,25,144,0,0,0,0,0,0,0,0,-32294,0,0,0,4196,0,24549,0
23142,82,-8162,654,-58,13,10,27364,3,1,999,296,37266,75,25,144,0,0,0,0,0,0,0,0,-32294,0,0,0,4196,0,24569,0
23152,-58,-8264,650,-53,10,19,27364,3,0,999,288,37267,70,25,144,0,0,0,0,0,0,0,0,-32294,0,0,0,4194,0,24589,0
23162,-126,-8236,668,-51,12,18,27364,4,-3,998,296,37266,68,25,144,0,0,0,0,0,0,0,0,-32294,0,0,0,4195,0,24609,0
23172,-76,-8206,658,-45,24,2,27364,0,4,998,296,37263,71,25,144,0,0,0,0,0,0,0,0,-32294,0,0,0,4195,0,24629,0
23182,-14,-8222,692,-41,24,5,27365,3,3,1000,296,37263,72,25,144,0,0,0,0,0,0,0,0,-32294,0,0,0,4196,0,24649,0
23192,58,-8216,728,-48,23,24,27365,6,3,997,296,37269,72,25,144,0,0,0,0,0,0,0,0,-32294,0,0,0,4195,0,24669,0
23202,-4,-8222,742,-56,20,31,27365,-3,1,996,312,37269,69,25,144,0,0,0,0,0,0,0,0,-32294,0,0,0,4195,0,24689,0
23212,-84,-8200,696,-50,21,30,27365,-6,-5,999,320,37270,61,25,144,0,0,0,0,0,0,0,0,-32294,0,0,0,4194,0,24709,0
23222,-98,-8212,686,-51,20,36,27367,4,4,999,320,37263,63,25,144,0,0,0,0,0,0,0,0,-32294,0,0,0,4196,0,24729,0
23232,-20,-8256,690,-56,27,28,27369,6,4,1003,312,37262,62,25,144,0,0,0,0,0,0,0,0,-32294,0,0,0,4195,0,24749,0
23242,-36,-8214,718,-66,24,31,27370,1,-2,1005,296,37261,72,25,144,0,0,0,0,0,0,0,0,-32294,0,0,0,4195,0,24769,0
23252,-146,-8208,684,-53,20,32,27371,0,-5,999,288,37262,75,25,144,0,0,0,0,0,0,0,0,-32294,0,0,0,4196,0,24789,0
23262,-134,-8246,682,-58,24,32,27374,4,2,997,288,37261,79,25,144,0,0,0,0,0,0,0,0,-32294,0,0,0,4196,0,24809,0
23272,-86,-8216,670,-61,18,16,27375,2,3,1002,288,37262,81,25,144,0,0,0,0,0,0,0,0,-32294,0,0,0,4196,0,24829,0
23282,-168,-8204,680,-58,17,17,27375,1,-1,1000,288,37262,75,25,144,0,0,0,0,0,0,0,0,-32294,0,0,0,4196,0,24849,0
23292,-102,-8226,690,-61,20,11,27375,-3,-7,1001,296,37269,73,25,144,0,0,0,0,0,0,0,0,-32294,0,0,0,4195,0,24869,0
23302,-114,-8196,714,-52,18,0,27377,5,3,1000,280,37271,73,25,144,0,0,0,0,0,0,0,0,-32294,0,0,0,4197,0,24889,0
23312,-52,-8210,668,-63,13,10,27376,-3,-3,997,288,37268,71,25,144,0,0,0,0,0,0,0,0,-32294,0,0,0,4196,0,24909,0
23322,-58,-8230,694,-56,13,12,27377,1,0,1002,296,37262,67,25,144,0,0,0,0,0,0,0,0,-32294,0,0,0,4197,0,24930,0
23332,-54,-8212,708,-61,13,10,27377,2,-4,995,288,37261,66,25,144,0,0,0,0,0,0,0,0,-32294,0,0,0,4197,0,24950,0
23342,-18,-8228,676,-59,21,13,27376,-7,-2,998,288,37260,69,25,144,0,0,0,0,0,0,0,0,-32294,0,0,0,4196,0,24970,0
23352,-70,-8246,664,-55,19,20,27376,-3,2,998,280,37260,63,25,144,0,0,0,0,0,0,0,0,-32295,0,0,0,4197,0,24989,0
23362,-74,-8212,678,-59,23,18,27378,0,0,998,296,37260,75,25,144,0,0,0,0,0,0,0,0,-32295,0,0,0,4196,0,25009,0
23372,-76,-8224,674,-58,20,15,27380,5,4,999,280,37259,76,25,144,0,0,0,0,0,0,0,0,-32294,0,0,0,4196,0,25030,0
23382,-128,-8222,668,-56,24,18,27379,3,0,999,296,37259,77,25,144,0,0,0,0,0,0,0,0,-32295,0,0,0,4196,0,25050,0
23392,-74,-8212,676,-52,23,13,27380,0,0,998,296,37264,77,25,144,0,0,0,0,0,0,0,0,-32295,0,0,0,4196,0,25070,0
23402,-76,-8192,686,-52,17,12,27381,2,1,997,288,37264,75,25,144,0,0,0,0,0,0,0,0,-32294,0,0,0,4196,0,25090,0
23412,-70,-8242,662,-56,17,17,27381,-3,-6,1001,296,37264,82,25,144,0,0,0,0,0,0,0,0,-32294,0,0,0,4197,0,25110,0
23422,-32,-8190,682,-47,19,16,27382,-5,5,1000,288,37258,79,25,144,0,0,0,0,0,0,0,0,-32294,0,0,0,4196,0,25129,0
23432,-24,-8224,676,-45,21,24,27384,2,4,1002,272,37257,74,25,144,0,0,0,0,0,0,0,0,-32294,0,0,0,4196,0,25150,0
23442,-16,-8234,652,-50,22,25,27386,6,4,999,280,37256,77,25,144,0,0,0,0,0,0,0,0,-32294,0,0,0,4196,0,25169,0
23452,-40,-8222,672,-47,21,37,27390,16,5,1000,288,37256,78,25,144,0,0,0,0,0,0,0,0,-32294,0,0,0,4197,0,25189,0
23462,-36,-8220,650,-45,24,44,27394,15,4,991,328,37256,69,25,144,0,0,0,0,0,0,0,0,-32293,0,0,0,4197,0,25209,0
23472,-92,-8224,652,-44,22,62,27403,24,14,997,320,37256,74,25,144,0,0,0,0,0,0,0,0,-32294,0,0,0,4197,0,25230,0
23482,52,-8250,674,-50,3,73,27417,30,14,1000,320,37255,71,25,144,0,0,0,0,0,0,0,0,-32294,0,0,0,4199,0,25253,0
23492,16,-8208,736,-46,-6,60,27426,16,4,1006,280,37253,78,25,144,0,0,0,0,0,0,0,0,-32294,0,0,0,4200,0,25270,0
23502,-320,-8202,676,-51,14,41,27426,-6,-34,995,264,37258,83,25,144,0,0,0,0,0,0,0,0,-32294,0,0,0,4200,0,25290,0
23512,-258,-8256,688,-37,46,18,27427,11,-10,999,264,37261,95,25,144,0,0,0,0,0,0,0,0,-32294,0,0,0,4201,0,25310,0
23522,-98,-8220,674,-36,42,10,27428,-1,-2,999,272,37262,106,25,144,0,0,0,0,0,0,0,0,-32294,0,0,0,4200,0,25330,0
23532,-64,-8228,714,-31,20,24,27429,3,-8,1000,248,37257,104,25,144,0,0,0,0,0,0,0,0,-32294,0,0,0,4200,0,25350,0
23542,-86,-8224,690,-34,14,28,27429,-2,0,996,272,37254,102,25,144,0,0,0,0,0,0,0,0,-32294,0,0,0,4200,0,25370,0
23552,-182,-8226,688,-36,11,24,27431,9,3,994,280,37260,96,25,144,0,0,0,0,0,0,0,0,-32294,0,0,0,4200,0,25390,0
23562,-146,-8228,714,-36,23,13,27431,-7,-4,999,280,37274,98,25,144,0,0,0,0,0,0,0,0,-32294,0,0,0,4201,0,25410,0
23572,-68,-8224,730,-46,25,12,27432,-7,-2,1000,288,37287,101,25,144,0,0,0,0,0,0,0,0,-32294,0,0,0,4200,0,25430,0
23582,-72,-8176,698,-39,17,7,27433,0,-3,999,280,37286,99,25,144,0,0,0,0,0,0,0,0,-32294,0,0,0,4200,0,25450,0
23592,-58,-8176,680,-48,15,17,27433,-8,3,995,280,37271,95,25,144,0,0,0,0,0,0,0,0,-32295,0,0,0,4200,0,25470,0
23602,-168,-8252,672,-50,14,19,27435,0,10,1000,280,37267,97,25,144,0,0,0,0,0,0,0,0,-32294,0,0,0,4201,0,25490,0
23612,-120,-8222,678,-48,20,19,27436,5,2,998,288,37264,101,25,144,0,0,0,0,0,0,0,0,-32294,0,0,0,4200,0,25510,0
23622,-84,-8222,676,-52,20,18,27436,6,-2,1000,280,37265,101,25,144,0,0,0,0,0,0,0,0,-32294,0,0,0,4201,0,25530,0
23632,-102,-8238,700,-40,9,14,27437,5,0,998,272,37259,98,25,144,0,0,0,0,0,0,0,0,-32294,0,0,0,4201,0,25550,0
23642,-64,-8224,730,-41,13,16,27438,3,1,996,288,37260,95,25,144,0,0,0,0,0,0,0,0,-32294,0,0,0,4201,0,25570,0
23652,-122,-8218,672,-35,15,16,27439,1,-2,999,272,37262,93,25,144,0,0,0,0,0,0,0,0,-32294,0,0,0,4201,0,25590,0
23662,-132,-8232,702,-40,17,15,27441,0,1,1000,288,37263,97,25,144,0,0,0,0,0,0,0,0,-32294,0,0,0,4200,0,25610,0
23672,-86,-8218,662,-39,17,13,27442,9,3,998,272,37263,102,25,144,0,0,0,0,0,0,0,0,-32294,0,0,0,4201,0,25630,0
23682,-146,-8226,680,-37,17,14,27442,7,3,996,272,37259,98,25,144,0,0,0,0,0,0,0,0,-32294,0,0,0,4202,0,25650,0
23692,-86,-8212,688,-41,13,7,27443,3,1,998,280,37259,97,25,144,0,0,0,0,0,0,0,0,-32294,0,0,0,4201,0,25670,0
23702,-122,-8194,710,-32,16,13,27444,0,0,997,288,37272,106,25,144,0,0,0,0,0,0,0,0,-32294,0,0,0,4202,0,25690,0
23712,-120,-8200,700,-47,21,12,27446,7,1,997,288,37274,109,25,144,0,0,0,0,0,0,0,0,-32294,0,0,0,4201,0,25710,0
23722,-122,-8218,722,-40,15,17,27448,9,5,995,288,37271,115,25,144,0,0,0,0,0,0,0,0,-32294,0,0,0,4202,0,25730,0
23732,-102,-8222,704,-42,9,24,27450,0,1,998,288,37260,106,25,144,0,0,0,0,0,0,0,0,-32294,0,0,0,4201,0,25750,0
23742,-96,-8198,698,-44,6,25,27454,18,3,994,312,37261,106,25,144,0,0,0,0,0,0,0,0,-32294,0,0,0,4202,0,25770,0
23752,-78,-8230,702,-47,-15,46,27464,30,19,995,336,37262,104,25,144,0,0,0,0,0,0,0,0,-32294,0,0,0,4202,0,25790,0
23762,58,-8232,734,-51,-35,88,27486,67,40,983,416,37262,98,25,144,0,0,0,0,0,0,0,0,-32294,0,0,0,4205,0,25810,0
23772,296,-8218,716,-53,-63,103,27515,57,38,1022,320,37262,95,25,144,0,0,0,0,0,0,0,0,-32294,0,0,0,4207,0,25830,0
23782,-268,-8228,690,-61,-40,97,27527,24,-27,994,296,37264,91,25,144,0,0,0,0,0,0,0,0,-32294,0,0,0,4208,0,25850,0
23792,-410,-8252,626,-49,1,66,27542,34,-22,990,312,37265,81,25,144,0,0,0,0,0,0,0,0,-32294,0,0,0,4209,0,25870,0
23802,-170,-8220,656,-40,23,29,27551,6,-4,1003,288,37265,72,25,144,0,0,0,0,0,0,0,0,-32295,0,0,0,4210,0,25890,0
23812,-274,-8218,630,-34,31,9,27549,-2,-36,997,296,37268,63,25,144,0,0,0,0,0,0,0,0,-32295,0,0,0,4211,0,25910,0
23822,-46,-8228,698,-33,17,12,27549,-1,-14,1005,288,37271,59,25,144,0,0,0,0,0,0,0,0,-32294,0,0,0,4210,0,25930,0
23832,-106,-8196,688,-37,7,13,27549,0,1,996,280,37271,66,25,144,0,0,0,0,0,0,0,0,-32294,0,0,0,4211,0,25950,0
23842,-168,-8190,708,-35,11,2,27549,-4,1,998,272,37266,69,25,144,0,0,0,0,0,0,0,0,-32295,0,0,0,4210,0,25970,0
23852,-154,-8236,740,-36,11,-3,27550,1,-1,996,280,37266,68,25,144,0,0,0,0,0,0,0,0,-32294,0,0,0,4210,0,25990,0
23862,-86,-8220,768,-38,10,-4,27549,-1,3,991,280,37266,64,25,144,0,0,0,0,0,0,0,0,-32294,0,0,0,4211,0,26010,0
23872,-40,-8238,768,-52,3,3,27549,-5,-2,996,272,37269,68,25,144,0,0,0,0,0,0,0,0,-32294,0,0,0,4211,0,26030,0
23882,-92,-8212,728,-50,9,1,27550,3,-3,1000,272,37268,69,25,144,0,0,0,0,0,0,0,0,-32294,0,0,0,4211,0,26050,0
23892,-148,-8226,684,-62,11,1,27549,-1,-4,997,280,37268,74,25,144,0,0,0,0,0,0,0,0,-32295,0,0,0,4211,0,26070,0
23902,-180,-8202,674,-54,10,1,27548,-2,-1,1000,296,37268,69,25,144,0,0,0,0,0,0,0,0,-32295,0,0,0,4211,0,26090,0
23912,-106,-8188,670,-55,15,3,27549,0,2,996,280,37277,72,25,144,0,0,0,0,0,0,0,0,-32295,0,0,0,4209,0,26110,0
23922,-64,-8194,668,-51,10,10,27549,3,0,998,272,37277,74,25,144,0,0,0,0,0,0,0,0,-32295,0,0,0,4211,0,26131,0
23932,-82,-8214,702,-42,14,7,27549,0,0,997,288,37276,80,25,144,0,0,0,0,0,0,0,0,-32295,0,0,0,4210,0,26151,0
23942,-118,-8232,706,-50,11,9,27549,6,1,996,280,37271,73,25,144,0,0,0,0,0,0,0,0,-32295,0,0,0,4210,0,26171,0
23952,-106,-8216,740,-43,14,8,27550,1,-5,999,288,37268,72,25,144,0,0,0,0,0,0,0,0,-32294,0,0,0,4211,0,26191,0
23962,-84,-8218,678,-49,13,3,27549,3,-2,997,272,37268,68,25,144,0,0,0,0,0,0,0,0,-32295,0,0,0,4211,0,26211,0
23972,-116,-8246,698,-45,13,10,27550,0,-3,997,280,37269,70,25,144,0,0,0,0,0,0,0,0,-32294,0,0,0,4211,0,26231,0
23982,-138,-8236,676,-44,13,9,27551,11,0,999,272,37268,71,25,144,0,0,0,0,0,0,0,0,-32294,0,0,0,4211,0,26251,0
23992,-104,-8212,700,-49,15,8,27549,-1,-1,996,280,37269,66,25,144,0,0,0,0,0,0,0,0,-32294,0,0,0,4211,0,26271,0
24002,-170,-8240,712,-46,8,8,27549,-2,-4,998,288,37270,66,25,144,0,0,0,0,0,0,0,0,-32294,0,0,0,4210,0,26291,0
24012,-116,-8226,716,-60,14,9,27549,2,-2,998,296,37271,71,25,144,0,0,0,0,0,0,0,0,-32294,0,0,0,4211,0,26311,0
24022,-154,-8200,716,-58,14,6,27550,0,-3,998,272,37275,74,25,144,0,0,0,0,0,0,0,0,-32295,0,0,0,4209,0,26332,0
24032,-162,-8238,690,-63,14,6,27550,7,4,996,272,37273,77,25,144,0,0,0,0,0,0,0,0,-32294,0,0,0,4210,0,26352,0
24042,-136,-8198,716,-64,13,3,27550,0,1,997,272,37272,79,25,144,0,0,0,0,0,0,0,0,-32295,0,0,0,4211,0,26372,0
24052,-60,-8182,686,-55,10,9,27550,0,1,998,272,37269,75,25,144,0,0,0,0,0,0,0,0,-32294,0,0,0,4211,0,26392,0
24062,-106,-8230,686,-61,16,2,27550,-5,-5,997,280,37271,73,25,144,0,0,0,0,0,0,0,0,-32294,0,0,0,4211,0,26412,0
24072,-78,-8232,696,-53,16,5,27549,3,4,998,272,37271,69,25,144,0,0,0,0,0,0,0,0,-32295,0,0,0,4210,0,26432,0
24082,-122,-8190,692,-57,17,9,27549,-2,1,998,280,37267,66,25,144,0,0,0,0,0,0,0,0,-32294,0,0,0,4211,0,26452,0
24092,-70,-8206,682,-48,9,6,27549,2,1,994,264,37266,63,25,144,0,0,0,0,0,0,0,0,-32294,0,0,0,4211,0,26472,0
24102,-104,-8218,702,-50,14,9,27549,3,5,997,280,37269,53,25,144,0,0,0,0,0,0,0,0,-32294,0,0,0,4211,0,26493,0
24112,-146,-8192,698,-49,15,16,27550,2,-3,994,296,37272,61,25,144,0,0,0,0,0,0,0,0,-32294,0,0,0,4211,0,26513,0
24122,-78,-8210,680,-45,11,7,27551,6,1,997,280,37275,64,25,144,0,0,0,0,0,0,0,0,-32294,0,0,0,4211,0,26533,0
24132,-142,-8214,700,-57,13,10,27549,-2,-1,995,296,37269,65,25,144,0,0,0,0,0,0,0,0,-32294,0,0,0,4210,0,26553,0
24142,-92,-8226,692,-54,16,6,27548,-4,-1,1000,272,37269,67,25,144,0,0,0,0,0,0,0,0,-32295,0,0,0,4211,0,26573,0
24152,-112,-8186,700,-54,15,7,27551,10,1,997,288,37265,67,25,144,0,0,0,0,0,0,0,0,-32294,0,0,0,4211,0,26593,0
24162,-112,-8230,696,-67,13,7,27550,5,2,1001,288,37266,65,25,144,0,0,0,0,0,0,0,0,-32294,0,0,0,4211,0,26613,0
24172,-110,-8220,686,-64,10,11,27549,3,4,1001,280,37264,62,25,144,0,0,0,0,0,0,0,0,-32294,0,0,0,4211,0,26633,0
24182,-158,-8216,678,-56,18,5,27550,1,3,997,288,37263,75,25,144,0,0,0,0,0,0,0,0,-32295,0,0,0,4210,0,26653,0
24192,-154,-8182,666,-55,11,8,27551,-3,-4,996,272,37264,77,25,144,0,0,0,0,0,0,0,0,-32295,0,0,0,4211,0,26673,0
24202,-102,-8184,668,-61,18,6,27551,4,2,997,288,37265,74,25,144,0,0,0,0,0,0,0,0,-32294,0,0,0,4211,0,26693,0
24212,-112,-8238,694,-49,8,4,27549,-1,-2,999,280,37264,69,26,144,0,0,0,0,0,0,0,0,-32294,0,0,0,4210,0,26713,0
24222,-182,-8220,688,-56,14,3,27550,-3,4,1000,288,37267,71,25,144,0,0,0,0,0,0,0,0,-32295,0,0,0,4211,0,26733,0
24232,-96,-8182,690,-47,9,-2,27549,-7,-1,1004,288,37267,71,25,144,0,0,0,0,0,0,0,0,-32294,0,0,0,4211,0,26753,0
24242,-116,-8224,716,-52,12,1,27549,0,-3,998,272,37268,64,25,144,0,0,0,0,0,0,0,0,-32294,0,0,0,4210,0,26773,0
24252,-110,-8220,692,-61,13,3,27550,1,-5,998,288,37265,62,25,144,0,0,0,0,0,0,0,0,-32294,0,0,0,4211,0,26793,0
24262,-94,-8174,696,-50,12,7,27550,0,-7,997,272,37262,67,25,144,0,0,0,0,0,0,0,0,-32295,0,0,0,4211,0,26813,0
24272,-86,-8230,674,-55,11,6,27550,-1,2,998,272,37259,70,25,144,0,0,0,0,0,0,0,0,-32295,0,0,0,4211,0,26833,0
24282,-142,-8218,716,-53,10,9,27550,-2,-2,996,288,37259,62,25,144,0,0,0,0,0,0,0,0,-32294,0,0,0,4210,0,26853,0
24292,-164,-8214,694,-53,14,10,27550,4,2,1000,280,37264,59,25,144,0,0,0,0,0,0,0,0,-32294,0,0,0,4210,0,26873,0
24302,-116,-8226,688,-58,13,12,27550,-4,-2,999,280,37266,58,25,144,0,0,0,0,0,0,0,0,-32295,0,0,0,4210,0,26893,0
24312,-152,-8200,664,-46,21,7,27549,-3,1,994,280,37268,66,25,144,0,0,0,0,0,0,0,0,-32294,0,0,0,4211,0,26913,0
24322,-182,-8212,674,-52,11,3,27550,-3,-1,997,280,37263,70,25,144,0,0,0,0,0,0,0,0,-32294,0,0,0,4210,0,26933,0
24332,-106,-8216,686,-49,15,4,27550,0,-1,997,280,37263,80,25,144,0,0,0,0,0,0,0,0,-32295,0,0,0,4211,0,26953,0
24342,-124,-8218,682,-46,14,3,27550,0,2,995,288,37260,77,25,144,0,0,0,0,0,0,0,0,-32294,0,0,0,4212,0,26973,0
24352,-94,-8204,698,-44,6,7,27550,-3,-5,999,288,37261,73,25,144,0,0,0,0,0,0,0,0,-32294,0,0,0,4211,0,26993,0
24362,-122,-8206,680,-47,10,8,27551,-1,0,999,288,37259,70,25,144,0,0,0,0,0,0,0,0,-32295,0,0,0,4211,0,27013,0
24372,-102,-8250,700,-52,15,6,27549,-3,-1,1000,288,37259,71,25,144,0,0,0,0,0,0,0,0,-32295,0,0,0,4211,0,27033,0
24382,-144,-8230,702,-45,18,6,27550,1,2,1002,296,37256,75,25,144,0,0,0,0,0,0,0,0,-32294,0,0,0,4211,0,27053,0
24392,-124,-8204,666,-52,15,7,27550,-3,2,999,280,37255,73,25,144,0,0,0,0,0,0,0,0,-32295,0,0,0,4210,0,27073,0
24402,-158,-8248,680,-48,12,10,27549,2,4,996,280,37254,74,25,144,0,0,0,0,0,0,0,0,-32294,0,0,0,4210,0,27093,0
24412,-120,-8178,688,-50,13,8,27550,0,4,997,296,37256,70,25,144,0,0,0,0,0,0,0,0,-32295,0,0,0,4211,0,27113,0
24422,-110,-8190,676,-50,13,4,27550,3,0,998,272,37255,72,25,144,0,0,0,0,0,0,0,0,-32295,0,0,0,4210,0,27133,0
24432,-118,-8252,654,-50,15,4,27550,-2,3,1001,288,37260,64,25,144,0,0,0,0,0,0,0,0,-32295,0,0,0,4211,0,27153,0
24442,-110,-8236,684,-51,15,5,27550,0,-1,998,272,37261,66,25,144,0,0,0,0,0,0,0,0,-32294,0,0,0,4210,0,27173,0
24452,-78,-8208,708,-38,16,9,27550,0,0,1001,280,37262,66,25,144,0,0,0,0,0,0,0,0,-32295,0,0,0,4211,0,27193,0
24462,-136,-8238,696,-48,16,5,27549,-6,-5,992,280,37254,72,25,144,0,0,0,0,0,0,0,0,-32294,0,0,0,4210,0,27213,0
24472,-80,-8224,684,-42,12,4,27550,1,0,997,280,37253,70,25,144,0,0,0,0,0,0,0,0,-32295,0,0,0,4210,0,27233,0
24482,-106,-8240,682,-39,12,6,27550,1,-6,1001,280,37254,72,25,144,0,0,0,0,0,0,0,0,-32294,0,0,0,4211,0,27254,0
24492,-94,-8212,672,-43,7,6,27550,0,-4,997,280,37256,62,25,144,0,0,0,0,0,0,0,0,-32294,0,0,0,4211,0,27273,0
24502,-78,-8202,696,-38,18,4,27551,2,1,999,280,37259,55,25,144,0,0,0,0,0,0,0,0,-32294,0,0,0,4211,0,27293,0
24512,-110,-8202,700,-44,12,7,27550,0,1,1001,296,37258,55,25,144,0,0,0,0,0,0,0,0,-32295,0,0,0,4211,0,27313,0
24522,-120,-8210,696,-40,10,11,27551,2,4,1000,280,37257,72,25,144,0,0,0,0,0,0,0,0,-32295,0,0,0,4211,0,27333,0
24532,-140,-8206,674,-45,14,3,27551,6,-1,1001,280,37256,80,25,144,0,0,0,0,0,0,0,0,-32294,0,0,0,4211,0,27353,0
24542,-132,-8204,690,-45,13,4,27550,4,-4,997,280,37262,71,25,144,0,0,0,0,0,0,0,0,-32294,0,0,0,4211,0,27373,0
24552,-130,-8214,686,-41,19,3,27549,-7,-2,999,288,37262,69,25,144,0,0,0,0,0,0,0,0,-32295,0,0,0,4211,0,27393,0
24562,-122,-8202,690,-46,15,2,27550,-3,-2,998,272,37264,75,25,144,0,0,0,0,0,0,0,0,-32295,0,0,0,4211,0,27413,0
24572,-106,-8184,692,-44,16,8,27550,0,-2,998,280,37258,74,25,144,0,0,0,0,0,0,0,0,-32295,0,0,0,4211,0,27433,0
24582,-158,-8232,662,-47,18,8,27551,4,-1,997,288,37259,75,25,144,0,0,0,0,0,0,0,0,-32295,0,0,0,4210,0,27453,0
24592,-164,-8186,692,-35,11,7,27550,0,1,1000,272,37258,72,25,144,0,0,0,0,0,0,0,0,-32295,0,0,0,4211,0,27473,0
24602,-90,-8194,708,-39,16,4,27550,1,-1,999,288,37258,70,25,144,0,0,0,0,0,0,0,0,-32295,0,0,0,4211,0,27493,0
24612,-120,-8238,688,-39,9,8,27550,-1,0,998,280,37260,67,25,144,0,0,0,0,0,0,0,0,-32295,0,0,0,4211,0,27513,0
24622,-112,-8230,696,-39,12,11,27550,0,1,998,288,37259,59,25,144,0,0,0,0,0,0,0,0,-32295,0,0,0,4211,0,27533,0
24632,-134,-8184,692,-43,12,6,27549,0,3,1003,280,37257,63,25,144,0,0,0,0,0,0,0,0,-32295,0,0,0,4211,0,27553,0
24642,-122,-8210,692,-43,9,6,27550,-3,6,992,272,37263,66,26,144,0,0,0,0,0,0,0,0,-32295,0,0,0,4211,0,27573,0
24652,-120,-8232,688,-54,14,10,27550,-3,2,998,288,37266,64,25,144,0,0,0,0,0,0,0,0,-32295,0,0,0,4211,0,27593,0
24662,-130,-8204,680,-51,11,4,27551,4,-4,1000,272,37269,64,25,144,0,0,0,0,0,0,0,0,-32294,0,0,0,4211,0,27613,0
24672,-132,-8236,682,-50,11,5,27549,-1,-4,998,280,37264,63,25,144,0,0,0,0,0,0,0,0,-32295,0,0,0,4211,0,27633,0
24682,-104,-8234,702,-49,17,5,27549,-2,1,1002,296,37258,59,25,144,0,0,0,0,0,0,0,0,-32294,0,0,0,4211,0,27653,0
24692,-132,-8188,688,-46,16,5,27550,3,-3,1000,272,37258,53,25,144,0,0,0,0,0,0,0,0,-32295,0,0,0,4210,0,27673,0
24702,-98,-8204,678,-47,13,4,27550,-1,2,995,288,37265,61,25,144,0,0,0,0,0,0,0,0,-32295,0,0,0,4211,0,27693,0
24712,-102,-8220,688,-44,9,4,27550,-2,-2,1001,296,37266,70,25,144,0,0,0,0,0,0,0,0,-32295,0,0,0,4211,0,27713,0
24722,-88,-8190,690,-38,13,7,27550,0,-2,1000,288,37262,69,25,144,0,0,0,0,0,0,0,0,-32295,0,0,0,4211,0,27733,0
24732,-100,-8234,672,-42,16,10,27550,0,0,1000,272,37256,64,25,144,0,0,0,0,0,0,0,0,-32294,0,0,0,4211,0,27753,0
24742,-86,-8242,690,-40,12,7,27550,-3,-1,999,272,37258,60,25,144,0,0,0,0,0,0,0,0,-32295,0,0,0,4211,0,27773,0
24752,-92,-8210,726,-49,14,13,27550,0,0,1000,280,37268,63,25,144,0,0,0,0,0,0,0,0,-32294,0,0,0,4209,0,27793,0
24762,-142,-8208,712,-38,14,15,27550,-3,1,997,288,37267,64,25,144,0,0,0,0,0,0,0,0,-32294,0,0,0,4211,0,27813,0
24772,-160,-8198,686,-50,21,11,27550,1,0,999,272,37267,66,25,144,0,0,0,0,0,0,0,0,-32294,0,0,0,4210,0,27833,0
24782,-166,-8226,696,-43,18,16,27550,0,-1,1000,296,37263,72,25,144,0,0,0,0,0,0,0,0,-32294,0,0,0,4211,0,27853,0
24792,-126,-8212,708,-50,19,11,27551,0,1,997,280,37267,75,25,144,0,0,0,0,0,0,0,0,-32294,0,0,0,4211,0,27873,0
24802,-98,-8244,706,-48,19,12,27550,1,6,999,280,37266,62,25,144,0,0,0,0,0,0,0,0,-32295,0,0,0,4211,0,27893,0
24812,-148,-8228,716,-53,17,14,27551,-1,-4,998,280,37265,70,25,144,0,0,0,0,0,0,0,0,-32294,0,0,0,4211,0,27913,0
24822,-114,-8218,722,-52,17,16,27551,-12,-2,996,272,37265,70,25,144,0,0,0,0,0,0,0,0,-32294,0,0,0,4211,0,27933,0
24832,-140,-8206,688,-50,12,5,27552,1,-2,994,272,37268,73,25,144,0,0,0,0,0,0,0,0,-32294,0,0,0,4210,0,27953,0
24842,-162,-8210,666,-50,22,9,27552,3,1,995,272,37279,77,25,144,0,0,0,0,0,0,0,0,-32294,0,0,0,4211,0,27973,0
24852,-88,-8196,686,-40,10,7,27552,-1,-4,997,288,37278,78,26,144,0,0,0,0,0,0,0,0,-32294,0,0,0,4211,0,27993,0
24862,-142,-8218,714,-38,15,4,27552,1,-2,999,280,37284,85,25,144,0,0,0,0,0,0,0,0,-32294,0,0,0,4211,0,28013,0
24872,-162,-8202,732,-47,15,3,27553,5,-2,995,272,37272,73,25,144,0,0,0,0,0,0,0,0,-32294,0,0,0,4211,0,28033,0
24882,-112,-8222,728,-51,17,-1,27553,2,-2,1000,288,37273,64,25,144,0,0,0,0,0,0,0,0,-32294,0,0,0,4210,0,28053,0
24892,-130,-8238,716,-60,12,5,27552,0,4,995,280,37268,62,25,144,0,0,0,0,0,0,0,0,-32294,0,0,0,4210,0,28073,0
24902,-94,-8190,704,-58,11,4,27551,-4,-3,1002,288,37270,70,25,144,0,0,0,0,0,0,0,0,-32294,0,0,0,4211,0,28093,0
24912,-76,-8228,684,-62,21,3,27552,-1,-2,999,280,37271,68,25,144,0,0,0,0,0,0,0,0,-32294,0,0,0,4211,0,28113,0
24922,-102,-8240,682,-57,15,11,27553,-3,-3,997,280,37270,70,25,144,0,0,0,0,0,0,0,0,-32294,0,0,0,4211,0,28134,0
24932,-88,-8222,684,-59,15,9,27553,0,-1,1001,280,37268,69,25,144,0,0,0,0,0,0,0,0,-32294,0,0,0,4211,0,28153,0
24942,-118,-8208,672,-56,15,13,27552,0,2,997,280,37265,69,25,144,0,0,0,0,0,0,0,0,-32294,0,0,0,4211,0,28173,0
24952,-122,-8244,694,-47,16,5,27552,1,5,999,280,37269,64,25,144,0,0,0,0,0,0,0,0,-32294,0,0,0,4211,0,28193,0
24962,-132,-8182,670,-51,14,13,27552,-3,0,1002,272,37277,69,25,144,0,0,0,0,0,0,0,0,-32294,0,0,0,4211,0,28213,0
24972,-106,-8202,680,-48,15,6,27553,7,-7,998,280,37278,72,25,144,0,0,0,0,0,0,0,0,-32294,0,0,0,4212,0,28233,0
24982,-124,-8220,698,-43,13,13,27553,0,-2,1001,280,37276,73,25,144,0,0,0,0,0,0,0,0,-32294,0,0,0,4211,0,28253,0
24992,-162,-8234,712,-52,14,9,27552,-3,-3,998,272,37267,70,25,144,0,0,0,0,0,0,0,0,-32294,0,0,0,4210,0,28273,0
25002,-132,-8220,706,-49,15,5,27552,-5,0,996,280,37268,67,25,144,0,0,0,0,0,0,0,0,-32294,0,0,0,4211,0,28293,0
25012,-90,-8234,700,-55,16,7,27552,0,1,999,280,37269,73,25,144,0,0,0,0,0,0,0,0,-32294,0,0,0,4211,0,28313,0
25022,-140,-8244,696,-51,16,8,27552,0,-3,997,288,37268,74,25,144,0,0,0,0,0,0,0,0,-32294,0,0,0,4211,0,28334,0
25032,-124,-8188,686,-56,15,7,27552,2,3,1004,296,37267,74,25,144,0,0,0,0,0,0,0,0,-32294,0,0,0,4211,0,28354,0
25042,-126,-8228,674,-58,14,11,27554,4,-1,1000,280,37265,67,25,144,0,0,0,0,0,0,0,0,-32295,0,0,0,4211,0,28374,0
25052,-162,-8204,698,-54,15,3,27553,5,-6,996,280,37267,61,25,144,0,0,0,0,0,0,0,0,-32294,0,0,0,4211,0,28394,0
25062,-128,-8206,706,-56,12,5,27554,4,2,1000,280,37270,63,25,144,0,0,0,0,0,0,0,0,-32294,0,0,0,4211,0,28414,0
25072,-132,-8238,678,-47,16,7,27551,-14,-1,999,288,37270,69,25,144,0,0,0,0,0,0,0,0,-32295,0,0,0,4210,0,28434,0
25082,-126,-8228,670,-47,12,7,27553,5,-1,1001,280,37270,69,25,144,0,0,0,0,0,0,0,0,-32294,0,0,0,4211,0,28454,0
25092,-118,-8196,692,-44,15,5,27552,-1,0,997,280,37271,63,25,144,0,0,0,0,0,0,0,0,-32294,0,0,0,4211,0,28474,0
25102,-118,-8194,680,-42,10,6,27553,-2,2,996,288,37269,64,25,144,0,0,0,0,0,0,0,0,-32294,0,0,0,4211,0,28494,0
25112,-118,-8222,670,-41,6,6,27552,0,-1,997,272,37268,69,25,144,0,0,0,0,0,0,0,0,-32294,0,0,0,4211,0,28514,0
25122,-106,-8186,684,-37,12,4,27553,3,-3,999,280,37265,78,25,144,0,0,0,0,0,0,0,0,-32294,0,0,0,4211,0,28534,0
25132,-96,-8264,704,-46,10,3,27553,5,0,1000,296,37262,81,25,144,0,0,0,0,0,0,0,0,-32294,0,0,0,4211,0,28554,0
25142,-120,-8240,710,-47,10,8,27552,-2,3,997,280,37262,80,25,144,0,0,0,0,0,0,0,0,-32294,0,0,0,4211,0,28574,0
25152,-144,-8208,708,-51,11,8,27552,-3,-1,995,280,37265,89,25,144,0,0,0,0,0,0,0,0,-32294,0,0,0,4211,0,28594,0
25162,-126,-8190,678,-49,16,11,27553,2,-6,998,280,37266,77,25,144,0,0,0,0,0,0,0,0,-32294,0,0,0,4211,0,28614,0
25172,-76,-8232,676,-57,15,7,27553,1,1,997,280,37267,76,25,144,0,0,0,0,0,0,0,0,-32294,0,0,0,4211,0,28634,0
25182,-112,-8226,696,-54,13,10,27553,-2,4,1001,280,37264,72,25,144,0,0,0,0,0,0,0,0,-32294,0,0,0,4211,0,28654,0
25192,-98,-8222,706,-48,15,11,27554,-5,-5,998,280,37263,78,25,144,0,0,0,0,0,0,0,0,-32294,0,0,0,4211,0,28674,0
25202,-90,-8226,708,-52,23,8,27553,-1,3,995,280,37263,78,25,144,0,0,0,0,0,0,0,0,-32294,0,0,0,4211,0,28694,0
25212,-58,-8224,720,-45,13,16,27554,0,2,997,280,37264,76,25,144,0,0,0,0,0,0,0,0,-32294,0,0,0,4212,0,28714,0
25222,-94,-8188,696,-54,18,16,27554,3,1,999,288,37263,75,25,144,0,0,0,0,0,0,0,0,-32294,0,0,0,4211,0,28734,0
25232,-96,-8232,720,-42,20,10,27555,5,0,1001,272,37260,72,25,144,0,0,0,0,0,0,0,0,-32294,0,0,0,4211,0,28754,0
25242,-136,-8220,704,-46,18,19,27555,3,1,997,264,37260,66,25,144,0,0,0,0,0,0,0,0,-32294,0,0,0,4211,0,28774,0
25252,-150,-8212,710,-51,13,18,27554,-5,-2,993,288,37260,64,25,144,0,0,0,0,0,0,0,0,-32295,0,0,0,4211,0,28794,0
25262,-118,-8246,690,-48,14,15,27556,-2,-1,999,280,37261,72,25,144,0,0,0,0,0,0,0,0,-32294,0,0,0,4211,0,28814,0
25272,-168,-8224,720,-56,13,8,27556,-5,-2,999,280,37264,69,25,144,0,0,0,0,0,0,0,0,-32295,0,0,0,4211,0,28834,0
25282,-178,-8210,712,-54,20,13,27556,0,-1,1000,272,37265,65,25,144,0,0,0,0,0,0,0,0,-32295,0,0,0,4211,0,28854,0
25292,-120,-8208,710,-59,16,7,27557,2,0,995,272,37267,71,25,144,0,0,0,0,0,0,0,0,-32294,0,0,0,4211,0,28874,0
25302,-148,-8212,684,-59,16,8,27557,0,4,992,288,37270,72,25,144,0,0,0,0,0,0,0,0,-32294,0,0,0,4211,0,28894,0
25312,-158,-8198,708,-63,18,5,27557,-1,0,998,280,37261,73,25,144,0,0,0,0,0,0,0,0,-32294,0,0,0,4211,0,28914,0
25322,-98,-8228,720,-65,17,7,27557,0,-3,999,288,37258,71,25,144,0,0,0,0,0,0,0,0,-32294,0,0,0,4212,0,28934,0
25332,-118,-8216,686,-50,15,7,27557,0,4,999,288,37255,69,25,144,0,0,0,0,0,0,0,0,-32295,0,0,0,4212,0,28954,0
25342,-180,-8212,674,-60,16,9,27557,-1,0,995,296,37257,79,25,144,0,0,0,0,0,0,0,0,-32294,0,0,0,4212,0,28974,0
25352,-134,-8226,684,-52,17,5,27557,1,-1,995,272,37257,77,25,144,0,0,0,0,0,0,0,0,-32294,0,0,0,4212,0,28994,0
25362,-166,-8206,684,-47,16,11,27556,-3,4,997,288,37256,82,25,144,0,0,0,0,0,0,0,0,-32294,0,0,0,4212,0,29014,0
25372,-132,-8226,678,-51,12,4,27557,1,-1,997,280,37254,80,25,144,0,0,0,0,0,0,0,0,-32294,0,0,0,4212,0,29034,0
25382,-106,-8226,688,-44,12,10,27557,1,-6,999,272,37262,76,25,144,0,0,0,0,0,0,0,0,-32295,0,0,0,4211,0,29054,0
25392,-132,-8212,662,-56,16,11,27558,4,0,994,272,37263,66,25,144,0,0,0,0,0,0,0,0,-32294,0,0,0,4211,0,29074,0
25402,-372,-8182,732,-37,13,-111,27515,-139,-82,205,0,37263,67,25,144,0,0,0,0,0,0,0,0,-32294,0,0,0,4209,0,29094,0
25412,-1112,-8242,566,-45,192,-170,27455,-115,-122,229,0,37259,64,25,144,0,0,0,0,0,0,0,0,-32294,0,0,0,4204,0,29114,0
25422,-686,-8356,652,-23,311,-250,27403,-108,-10,210,0,37259,75,25,144,0,0,0,0,0,0,0,0,-32294,0,0,0,4198,0,29135,0
25432,-64,-8008,586,-19,155,-240,27361,-85,37,175,0,37258,69,25,144,0,0,0,0,0,0,0,0,-32294,0,0,0,4194,0,29156,0
25442,754,-8294,862,-36,31,-141,27337,-42,56,98,0,37260,67,25,144,0,0,0,0,0,0,0,0,-32294,0,0,0,4192,0,29176,0
25452,642,-8228,822,-57,-40,-44,27317,-47,44,90,0,37261,68,25,144,0,0,0,0,0,0,0,0,-32294,0,0,0,4189,0,29196,0
25462,-212,-8228,784,-61,-30,-18,27296,-35,-3,87,0,37261,62,25,144,0,0,0,0,0,0,0,0,-32294,0,0,0,4189,0,29216,0
25472,-400,-8240,734,-60,19,-25,27292,0,36,7,0,37261,61,25,144,0,0,0,0,0,0,0,0,-32294,0,0,0,4188,0,29236,0
25482,-66,-8196,690,-63,24,-43,27291,-5,44,2,0,37263,77,25,144,0,0,0,0,0,0,0,0,-32294,0,0,0,4188,0,29256,0
25492,170,-8170,688,-60,17,-22,27288,-9,-1,14,0,37261,84,25,144,0,0,0,0,0,0,0,0,-32294,0,0,0,4187,0,29276,0
25502,70,-8198,662,-62,2,-6,27283,-7,-8,18,0,37261,90,25,144,0,0,0,0,0,0,0,0,-32294,0,0,0,4187,0,29296,0
25512,-164,-8192,584,-51,0,-7,27279,-10,-1,16,0,37260,95,25,144,0,0,0,0,0,0,0,0,-32294,0,0,0,4187,0,29316,0
25522,-194,-8192,572,-45,14,-12,27275,-12,0,15,0,37259,78,25,144,0,0,0,0,0,0,0,0,-32294,0,0,0,4188,0,29336,0
25532,-98,-8258,680,-31,38,-34,27269,-22,-4,29,0,37261,78,25,144,0,0,0,0,0,0,0,0,-32294,0,0,0,4187,0,29356,0
25542,-94,-8210,716,-31,45,-46,27256,-34,-21,56,0,37260,76,25,144,0,0,0,0,0,0,0,0,-32294,0,0,0,4186,0,29376,0
25552,-190,-8200,788,-43,48,-56,27236,-43,-29,78,0,37259,73,26,144,0,0,0,0,0,0,0,0,-32293,0,0,0,4185,0,29396,0
25562,-38,-8218,782,-49,30,-32,27231,-3,14,25,0,37262,78,25,144,0,0,0,0,0,0,0,0,-32294,0,0,0,4184,0,29416,0
25572,198,-8244,718,-60,8,-7,27231,1,39,1,0,37263,76,25,144,0,0,0,0,0,0,0,0,-32294,0,0,0,4183,0,29436,0
25582,50,-8208,692,-56,-2,8,27230,3,11,7,0,37262,83,25,144,0,0,0,0,0,0,0,0,-32294,0,0,0,4183,0,29456,0
25592,-188,-8242,616,-53,4,0,27229,-8,5,0,0,37270,88,25,144,0,0,0,0,0,0,0,0,-32294,0,0,0,4184,0,29476,0
25602,-190,-8220,640,-56,10,-5,27229,2,-1,1,0,37271,93,25,144,0,0,0,0,0,0,0,0,-32294,0,0,0,4183,0,29496,0
25612,-46,-8190,688,-43,13,-15,27227,-6,-6,5,0,37271,85,25,144,0,0,0,0,0,0,0,0,-32293,0,0,0,4184,0,29516,0
25622,-10,-8198,728,-50,5,-10,27224,-6,-4,5,0,37263,83,25,144,0,0,0,0,0,0,0,0,-32294,0,0,0,4183,0,29536,0
25632,-38,-8242,702,-54,5,-3,27223,-1,-1,7,0,37263,94,25,144,0,0,0,0,0,0,0,0,-32294,0,0,0,4183,0,29556,0
25642,-94,-8222,704,-56,10,2,27222,-1,4,3,0,37262,104,25,144,0,0,0,0,0,0,0,0,-32294,0,0,0,4183,0,29576,0
25652,-76,-8206,676,-52,9,-2,27221,-4,6,3,0,37262,98,25,144,0,0,0,0,0,0,0,0,-32294,0,0,0,4183,0,29596,0
25662,-74,-8236,670,-47,17,-2,27219,-12,-1,6,0,37264,101,25,144,0,0,0,0,0,0,0,0,-32293,0,0,0,4183,0,29616,0
25672,-10,-8216,718,-40,10,1,27218,-2,-1,5,0,37265,114,25,144,0,0,0,0,0,0,0,0,-32294,0,0,0,4183,0,29636,0
25682,-46,-8202,698,-47,14,2,27217,-1,2,8,0,37266,112,25,144,0,0,0,0,0,0,0,0,-32294,0,0,0,4183,0,29656,0
25692,-80,-8206,692,-50,14,7,27216,2,2,2,0,37271,99,25,144,0,0,0,0,0,0,0,0,-32294,0,0,0,4183,0,29676,0
25702,-116,-8238,666,-52,11,5,27215,2,4,2,0,37271,88,25,144,0,0,0,0,0,0,0,0,-32294,0,0,0,4182,0,29696,0
25712,-114,-8258,674,-46,14,-5,27213,-5,1,5,0,37274,99,25,144,0,0,0,0,0,0,0,0,-32294,0,0,0,4183,0,29716,0
25722,-74,-8206,686,-45,18,-5,27210,-12,-3,9,0,37266,99,25,144,0,0,0,0,0,0,0,0,-32294,0,0,0,4183,0,29736,0
25732,-78,-8222,694,-42,19,-17,27205,-7,-11,21,0,37263,94,25,144,0,0,0,0,0,0,0,0,-32294,0,0,0,4182,0,29756,0
25742,-112,-8230,706,-47,23,-24,27197,-22,-11,37,0,37263,87,25,144,0,0,0,0,0,0,0,0,-32294,0,0,0,4180,0,29776,0
25752,-166,-8236,716,-43,35,-43,27185,-25,-14,52,0,37266,88,25,144,0,0,0,0,0,0,0,0,-32294,0,0,0,4180,0,29796,0
25762,-106,-8186,704,-45,25,-40,27177,-9,2,33,0,37269,96,26,144,0,0,0,0,0,0,0,0,-32294,0,0,0,4179,0,29816,0
25772,102,-8224,692,-46,10,-14,27177,0,27,3,0,37268,112,26,144,0,0,0,0,0,0,0,0,-32294,0,0,0,4179,0,29836,0
25782,86,-8234,692,-48,-1,-2,27176,1,13,4,0,37267,116,26,144,0,0,0,0,0,0,0,0,-32294,0,0,0,4180,0,29856,0
25792,-80,-8242,690,-49,9,8,27175,1,-2,0,0,37271,104,25,144,0,0,0,0,0,0,0,0,-32294,0,0,0,4179,0,29876,0
25802,-94,-8204,692,-47,9,3,27175,-1,-1,0,0,37274,105,25,144,0,0,0,0,0,0,0,0,-32294,0,0,0,4179,0,29896,0
25812,-10,-8222,678,-49,17,2,27175,0,-1,1,0,37274,104,25,144,0,0,0,0,0,0,0,0,-32294,0,0,0,4178,0,29916,0
25822,8,-8236,702,-46,15,7,27174,0,0,-2,0,37271,107,25,144,0,0,0,0,0,0,0,0,-32294,0,0,0,4179,0,29936,0
25832,-8,-8212,690,-53,12,18,27173,1,3,0,0,37267,111,26,144,0,0,0,0,0,0,0,0,-32294,0,0,0,4179,0,29956,0
25842,-74,-8260,690,-45,17,16,27174,-3,0,0,0,37269,110,25,144,0,0,0,0,0,0,0,0,-32294,0,0,0,4179,0,29976,0
25852,-112,-8196,688,-46,14,10,27174,5,1,-4,0,37271,108,25,144,0,0,0,0,0,0,0,0,-32294,0,0,0,4179,0,29996,0
25862,-48,-8188,712,-42,20,11,27173,-10,-3,-1,0,37271,105,25,144,0,0,0,0,0,0,0,0,-32294,0,0,0,4178,0,30016,0
25872,-42,-8242,686,-43,15,14,27174,0,0,-1,0,37270,102,25,144,0,0,0,0,0,0,0,0,-32294,0,0,0,4180,0,30036,0
25882,-54,-8212,714,-50,15,19,27174,0,-1,-2,0,37273,100,25,144,0,0,0,0,0,0,0,0,-32294,0,0,0,4179,0,30056,0
25892,-56,-8208,702,-50,14,13,27175,0,-3,-3,0,37274,106,25,144,0,0,0,0,0,0,0,0,-32294,0,0,0,4179,0,30076,0
25902,-70,-8246,688,-49,18,11,27175,-1,0,-3,0,37277,113,25,144,0,0,0,0,0,0,0,0,-32294,0,0,0,4180,0,30096,0
25912,-54,-8166,692,-56,16,12,27174,-3,-5,0,0,37274,110,25,144,0,0,0,0,0,0,0,0,-32294,0,0,0,4179,0,30116,0
25922,-24,-8198,708,-48,17,15,27175,5,2,-3,0,37273,113,26,144,0,0,0,0,0,0,0,0,-32294,0,0,0,4179,0,30142,0
25932,-44,-8230,672,-50,16,17,27174,-3,2,0,0,37275,117,25,144,0,0,0,0,0,0,0,0,-32294,0,0,0,4179,0,30162,0
25942,-86,-8234,684,-52,13,17,27174,-3,-1,-2,0,37273,120,25,144,0,0,0,0,0,0,0,0,-32294,0,0,0,4179,0,30182,0
25952,-58,-8178,700,-51,17,16,27174,-6,-1,-2,0,37271,111,25,144,0,0,0,0,0,0,0,0,-32294,0,0,0,4179,0,30202,0
25962,-68,-8228,704,-47,20,10,27175,2,2,-1,0,37273,107,25,144,0,0,0,0,0,0,0,0,-32294,0,0,0,4179,0,30222,0
25972,-42,-8188,704,-46,20,8,27175,1,-2,-2,0,37274,106,26,144,0,0,0,0,0,0,0,0,-32294,0,0,0,4179,0,30242,0
25982,-36,-8196,696,-54,17,12,27175,0,1,-1,0,37274,110,25,144,0,0,0,0,0,0,0,0,-32294,0,0,0,4180,0,30262,0
25992,-32,-8222,698,-54,19,16,27175,1,2,-3,0,37271,102,25,144,0,0,0,0,0,0,0,0,-32294,0,0,0,4179,0,30282,0
26002,-44,-8214,680,-53,16,14,27175,0,-5,-3,0,37270,101,25,144,0,0,0,0,0,0,0,0,-32294,0,0,0,4179,0,30302,0
26012,-46,-8216,688,-53,24,20,27174,0,-3,-1,0,37278,108,25,144,0,0,0,0,0,0,0,0,-32294,0,0,0,4180,0,30322,0
26022,-34,-8216,696,-53,13,22,27175,6,0,-1,0,37278,113,25,144,0,0,0,0,0,0,0,0,-32294,0,0,0,4179,0,30342,0
26032,-76,-8236,696,-56,14,16,27176,1,-2,-1,0,37278,113,25,144,0,0,0,0,0,0,0,0,-32294,0,0,0,4179,0,30362,0
26042,-104,-8216,692,-51,14,19,27175,2,0,-3,0,37274,106,25,144,0,0,0,0,0,0,0,0,-32295,0,0,0,4179,0,30382,0
26052,-90,-8242,680,-52,20,13,27174,-1,-2,-2,0,37271,101,25,144,0,0,0,0,0,0,0,0,-32294,0,0,0,4179,0,30402,0
26062,-72,-8210,688,-50,16,13,27176,5,-2,0,0,37272,106,25,144,0,0,0,0,0,0,0,0,-32294,0,0,0,4179,0,30422,0
26072,-68,-8202,708,-48,15,16,27174,-1,2,-2,0,37272,104,25,144,0,0,0,0,0,0,0,0,-32294,0,0,0,4179,0,30442,0
26082,-64,-8208,700,-49,18,16,27175,-7,-1,0,0,37271,99,25,144,0,0,0,0,0,0,0,0,-32294,0,0,0,4179,0,30462,0
26092,-106,-8242,722,-53,17,15,27176,8,2,-3,0,37272,101,25,144,0,0,0,0,0,0,0,0,-32294,0,0,0,4179,0,30482,0
26102,-74,-8200,732,-54,16,10,27175,-2,2,-3,0,37272,106,25,144,0,0,0,0,0,0,0,0,-32294,0,0,0,4179,0,30502,0
26112,-72,-8204,710,-57,16,12,27176,-1,-3,0,0,37274,112,25,144,0,0,0,0,0,0,0,0,-32294,0,0,0,4179,0,30522,0
26122,-78,-8192,672,-57,17,9,27176,1,-2,-2,0,37284,109,25,144,0,0,0,0,0,0,0,0,-32294,0,0,0,4180,0,30542,0
26132,-86,-8200,666,-53,11,5,27175,-3,2,1,0,37295,107,26,144,0,0,0,0,0,0,0,0,-32294,0,0,0,4179,0,30562,0
26142,-94,-8238,692,-52,11,6,27177,10,1,-4,0,37300,105,25,144,0,0,0,0,0,0,0,0,-32294,0,0,0,4180,0,30582,0
26152,-84,-8226,700,-54,16,9,27175,-3,6,-3,0,37290,108,25,144,0,0,0,0,0,0,0,0,-32294,0,0,0,4180,0,30602,0
26162,-48,-8236,700,-49,11,1,27175,1,5,0,0,37281,115,25,144,0,0,0,0,0,0,0,0,-32294,0,0,0,4180,0,30622,0
26172,-36,-8242,706,-54,14,9,27175,-2,-5,-1,0,37271,117,25,144,0,0,0,0,0,0,0,0,-32294,0,0,0,4179,0,30642,0
26182,-52,-8224,692,-52,14,12,27175,-3,1,0,0,37266,113,25,144,0,0,0,0,0,0,0,0,-32294,0,0,0,4179,0,30662,0
26192,-58,-8198,692,-52,10,10,27176,2,0,-2,0,37265,109,25,144,0,0,0,0,0,0,0,0,-32294,0,0,0,4180,0,30682,0
26202,-46,-8208,704,-56,13,7,27176,1,3,-3,0,37267,105,25,144,0,0,0,0,0,0,0,0,-32294,0,0,0,4180,0,30702,0
26212,-72,-8226,672,-53,13,9,27176,7,-1,0,0,37268,104,25,144,0,0,0,0,0,0,0,0,-32293,0,0,0,4179,0,30722,0
26222,-72,-8218,702,-54,9,10,27174,-5,0,-5,0,37267,106,25,144,0,0,0,0,0,0,0,0,-32294,0,0,0,4179,0,30742,0
26232,-42,-8188,680,-49,8,9,27176,11,0,-1,0,37269,115,25,144,0,0,0,0,0,0,0,0,-32294,0,0,0,4179,0,30762,0
26242,-72,-8204,666,-49,13,4,27176,0,-4,-2,0,37267,119,25,144,0,0,0,0,0,0,0,0,-32294,0,0,0,4180,0,30782,0
26252,-62,-8240,674,-48,12,5,27176,3,0,-2,0,37268,108,25,144,0,0,0,0,0,0,0,0,-32294,0,0,0,4180,0,30802,0
26262,-54,-8178,678,-46,12,8,27175,-3,1,-2,0,37266,104,25,144,0,0,0,0,0,0,0,0,-32294,0,0,0,4179,0,30822,0
26272,-60,-8210,686,-47,15,7,27175,5,-2,-3,0,37268,99,25,144,0,0,0,0,0,0,0,0,-32294,0,0,0,4180,0,30842,0
26282,-62,-8226,688,-47,12,9,27175,-2,-1,0,0,37268,98,25,144,0,0,0,0,0,0,0,0,-32294,0,0,0,4179,0,30862,0
26292,-44,-8224,696,-51,13,6,27175,-3,0,-1,0,37268,102,25,144,0,0,0,0,0,0,0,0,-32294,0,0,0,4179,0,30882,0
26302,-72,-8260,682,-44,13,12,27176,0,-2,-2,0,37265,109,25,144,0,0,0,0,0,0,0,0,-32294,0,0,0,4180,0,30902,0
26312,-66,-8216,704,-47,19,11,27176,5,4,0,0,37265,118,25,144,0,0,0,0,0,0,0,0,-32294,0,0,0,4180,0,30922,0
26322,-44,-8184,694,-49,8,11,27176,0,-2,-5,0,37263,115,25,144,0,0,0,0,0,0,0,0,-32294,0,0,0,4180,0,30942,0
26332,-72,-8226,640,-45,12,12,27175,0,0,0,0,37266,108,25,144,0,0,0,0,0,0,0,0,-32294,0,0,0,4180,0,30962,0
26342,-92,-8242,674,-44,16,7,27175,-1,0,-2,0,37266,105,25,144,0,0,0,0,0,0,0,0,-32294,0,0,0,4180,0,30982,0
26352,-74,-8208,694,-49,10,4,27175,-1,-1,-1,0,37269,109,25,144,0,0,0,0,0,0,0,0,-32294,0,0,0,4180,0,31002,0
26362,-78,-8244,686,-45,13,5,27175,0,-3,-1,0,37264,102,25,144,0,0,0,0,0,0,0,0,-32294,0,0,0,4180,0,31022,0
26372,-100,-8198,708,-47,13,3,27176,0,1,-1,0,37263,105,25,144,0,0,0,0,0,0,0,0,-32294,0,0,0,4180,0,31042,0
26382,-64,-8232,706,-42,11,1,27176,-2,-2,-3,0,37260,103,25,144,0,0,0,0,0,0,0,0,-32294,0,0,0,4179,0,31062,0
26392,-56,-8210,694,-43,14,2,27176,5,0,-1,0,37260,102,25,144,0,0,0,0,0,0,0,0,-32294,0,0,0,4180,0,31082,0
26402,-48,-8208,680,-51,16,1,27175,-5,-4,0,0,37260,101,25,144,0,0,0,0,0,0,0,0,-32294,0,0,0,4180,0,31102,0
26412,-54,-8218,678,-46,11,6,27176,1,1,0,0,37261,104,25,144,0,0,0,0,0,0,0,0,-32294,0,0,0,4179,0,31122,0
26422,-50,-8204,668,-41,12,3,27175,2,0,-4,0,37260,112,25,144,0,0,0,0,0,0,0,0,-32294,0,0,0,4179,0,31142,0
26432,-56,-8246,682,-48,18,4,27176,5,2,-1,0,37261,114,25,144,0,0,0,0,0,0,0,0,-32294,0,0,0,4179,0,31162,0
26442,-58,-8210,696,-48,9,4,27176,7,-3,0,0,37260,113,25,144,0,0,0,0,0,0,0,0,-32294,0,0,0,4180,0,31182,0
26452,-62,-8214,672,-47,12,5,27175,0,2,-1,0,37262,109,25,144,0,0,0,0,0,0,0,0,-32294,0,0,0,4180,0,31202,0
26462,-60,-8202,704,-45,14,8,27176,4,-4,0,0,37260,114,25,144,0,0,0,0,0,0,0,0,-32294,0,0,0,4179,0,31222,0
26472,-72,-8258,672,-39,12,2,27175,5,0,-1,0,37259,116,25,144,0,0,0,0,0,0,0,0,-32294,0,0,0,4179,0,31242,0
26482,-58,-8172,692,-44,14,4,27175,0,4,-2,0,37261,113,26,144,0,0,0,0,0,0,0,0,-32294,0,0,0,4180,0,31262,0
26492,-62,-8234,688,-45,12,10,27175,-2,-1,-3,0,37261,104,25,144,0,0,0,0,0,0,0,0,-32294,0,0,0,4180,0,31282,0
26502,-52,-8238,708,-40,13,1,27175,3,1,-3,0,37260,95,25,144,0,0,0,0,0,0,0,0,-32294,0,0,0,4179,0,31302,0
26512,-56,-8230,686,-45,11,6,27176,5,-3,0,0,37257,97,25,144,0,0,0,0,0,0,0,0,-32294,0,0,0,4179,0,31322,0
26522,-86,-8224,696,-46,14,7,27175,1,-2,-2,0,37258,103,25,144,0,0,0,0,0,0,0,0,-32294,0,0,0,4179,0,31342,0
26532,-70,-8202,672,-42,18,8,27175,2,0,-2,0,37265,104,25,144,0,0,0,0,0,0,0,0,-32294,0,0,0,4179,0,31362,0
26542,-84,-8224,688,-47,13,11,27175,0,-2,-1,0,37270,103,25,144,0,0,0,0,0,0,0,0,-32294,0,0,0,4179,0,31382,0
26552,-70,-8210,678,-45,16,10,27176,0,1,-3,0,37269,104,25,144,0,0,0,0,0,0,0,0,-32294,0,0,0,4180,0,31402,0
26562,-54,-8206,702,-44,13,7,27176,4,-2,-1,0,37269,105,25,144,0,0,0,0,0,0,0,0,-32294,0,0,0,4179,0,31422,0
26572,-50,-8236,682,-39,7,9,27175,0,-3,-2,0,37262,108,25,144,0,0,0,0,0,0,0,0,-32294,0,0,0,4179,0,31442,0
26582,-84,-8236,686,-47,12,4,27175,-1,-2,-2,0,37262,112,26,144,0,0,0,0,0,0,0,0,-32294,0,0,0,4179,0,31462,0
26592,-62,-8226,690,-47,12,11,27174,-1,-1,0,0,37261,112,26,144,0,0,0,0,0,0,0,0,-32294,0,0,0,4179,0,31482,0
26602,-74,-8204,710,-44,11,9,27175,-1,0,-3,0,37260,111,25,144,0,0,0,0,0,0,0,0,-32294,0,0,0,4180,0,31502,0
26612,-110,-8416,694,-52,14,7,27175,-1,-1,1,0,37260,105,25,144,0,0,0,0,0,0,0,0,-32294,0,0,0,4180,0,31522,0
26622,-76,-8182,856,-43,17,8,27175,-6,-1,-4,0,37261,105,25,144,0,0,0,0,0,0,0,0,-32294,0,0,0,4179,0,31542,0
26632,-2,-8218,542,-64,8,6,27175,-1,-1,-2,0,37262,100,26,144,0,0,0,0,0,0,0,0,-32294,0,0,0,4180,0,31562,0
26642,-12,-8274,464,-54,19,19,27175,0,3,-1,0,37268,102,25,144,0,0,0,0,0,0,0,0,-32294,0,0,0,4180,0,31582,0
26652,-122,-7998,652,-26,10,7,27175,1,3,-3,0,37267,103,25,144,0,0,0,0,0,0,0,0,-32294,0,0,0,4180,0,31602,0
26662,-166,-8364,614,-23,18,1,27176,6,1,-1,0,37269,95,25,144,0,0,0,0,0,0,0,0,-32294,0,0,0,4179,0,31622,0
26672,-22,-8120,678,-21,28,11,27174,-5,-4,-2,0,37272,96,25,144,0,0,0,0,0,0,0,0,-32294,0,0,0,4180,0,31642,0
26682,84,-8228,672,-21,33,20,27175,9,-4,0,0,37268,98,25,144,0,0,0,0,0,0,0,0,-32294,0,0,0,4180,0,31662,0
26692,84,-8234,790,-22,27,26,27175,-3,3,-2,0,37264,103,25,144,0,0,0,0,0,0,0,0,-32294,0,0,0,4180,0,31682,0
26702,-32,-8198,802,-16,27,44,27175,0,-2,-4,0,37263,103,25,144,0,0,0,0,0,0,0,0,-32294,0,0,0,4179,0,31702,0
26712,22,-8362,740,-31,28,50,27176,8,-1,-3,0,37265,109,25,144,0,0,0,0,0,0,0,0,-32293,0,0,0,4180,0,31722,0
26722,-108,-8140,772,-36,26,38,27176,7,1,-4,0,37268,112,25,144,0,0,0,0,0,0,0,0,-32294,0,0,0,4180,0,31742,0
26732,-206,-8322,704,-49,27,46,27177,4,4,-4,0,37265,115,26,144,0,0,0,0,0,0,0,0,-32294,0,0,0,4180,0,31762,0
26742,-220,-8156,730,-45,30,27,27176,0,-3,-3,0,37274,108,26,144,0,0,0,0,0,0,0,0,-32294,0,0,0,4180,0,31782,0
26752,-236,-8118,704,-50,13,0,27177,0,-2,-3,0,37277,105,25,144,0,0,0,0,0,0,0,0,-32294,0,0,0,4179,0,31802,0
26762,-246,-8276,716,-60,10,-7,27177,0,2,0,0,37278,105,25,144,0,0,0,0,0,0,0,0,-32294,0,0,0,4181,0,31822,0
26772,-212,-8198,742,-58,8,-17,27175,-10,-3,0,0,37271,104,26,144,0,0,0,0,0,0,0,0,-32293,0,0,0,4181,0,31842,0
26782,-124,-8148,766,-58,1,-31,27177,0,0,1,0,37265,105,26,144,0,0,0,0,0,0,0,0,-32294,0,0,0,4180,0,31862,0
26792,-110,-8244,766,-63,-3,-34,27177,0,-5,2,0,37266,109,26,144,0,0,0,0,0,0,0,0,-32294,0,0,0,4179,0,31882,0
26802,-134,-8250,764,-71,-8,-25,27175,5,3,0,0,37269,114,26,144,0,0,0,0,0,0,0,0,-32294,0,0,0,4180,0,31902,0
26812,-110,-8288,720,-82,-9,-59,27175,1,2,0,0,37269,112,25,144,0,0,0,0,0,0,0,0,-32294,0,0,0,4180,0,31922,0
26822,-196,-8272,704,-87,-9,-59,27174,-3,-1,3,0,37268,112,25,144,0,0,0,0,0,0,0,0,-32294,0,0,0,4179,0,31942,0
26832,-94,-8268,670,-82,-18,-70,27171,-6,-1,10,0,37267,108,25,144,0,0,0,0,0,0,0,0,-32294,0,0,0,4180,0,31962,0
26842,-38,-8186,652,-87,-8,-70,27168,-7,-4,15,0,37269,104,26,144,0,0,0,0,0,0,0,0,-32293,0,0,0,4179,0,31982,0
26852,52,-8170,632,-77,-4,-71,27165,1,-2,18,0,37277,105,25,144,0,0,0,0,0,0,0,0,-32293,0,0,0,4179,0,32002,0
26862,122,-8250,624,-78,-1,-46,27158,-12,-6,26,0,37277,101,25,144,0,0,0,0,0,0,0,0,-32293,0,0,0,4177,0,32022,0
26872,222,-8202,642,-64,15,-27,27154,-17,0,24,0,37280,110,25,144,0,0,0,0,0,0,0,0,-32294,0,0,0,4178,0,32042,0
26882,206,-8176,658,-59,25,-13,27149,-8,2,23,0,37274,106,25,144,0,0,0,0,0,0,0,0,-32294,0,0,0,4177,0,32062,0
26892,208,-8268,638,-61,33,30,27145,-9,1,25,0,37272,109,25,144,0,0,0,0,0,0,0,0,-32294,0,0,0,4176,0,32082,0
26902,114,-8206,658,-58,36,49,27142,-7,2,12,0,37269,103,25,144,0,0,0,0,0,0,0,0,-32294,0,0,0,4176,0,32102,0
26912,82,-8220,636,-41,38,62,27144,12,11,-4,0,37268,105,26,144,0,0,0,0,0,0,0,0,-32293,0,0,0,4177,0,32122,0
26922,-64,-8256,620,-44,28,68,27144,-5,8,-8,0,37270,94,26,144,0,0,0,0,0,0,0,0,-32294,0,0,0,4177,0,32142,0
26932,-232,-8216,646,-40,36,67,27147,6,3,-14,0,37270,92,26,144,0,0,0,0,0,0,0,0,-32294,0,0,0,4177,0,32163,0
26942,-254,-8204,664,-39,33,42,27149,5,0,-13,0,37271,99,25,144,0,0,0,0,0,0,0,0,-32294,0,0,0,4178,0,32183,0
26952,-208,-8262,678,-30,25,27,27148,0,-2,-7,0,37271,105,25,144,0,0,0,0,0,0,0,0,-32294,0,0,0,4178,0,32203,0
26962,-148,-8200,710,-33,22,14,27149,2,-6,-4,0,37277,106,25,144,0,0,0,0,0,0,0,0,-32294,0,0,0,4177,0,32223,0
26972,-68,-8222,810,-44,24,5,27150,6,-4,-1,0,37278,106,25,144,0,0,0,0,0,0,0,0,-32294,0,0,0,4177,0,32243,0
26982,-4,-8264,804,-55,20,3,27148,-3,1,0,0,37277,113,26,144,0,0,0,0,0,0,0,0,-32294,0,0,0,4178,0,32263,0
26992,12,-8258,804,-64,19,19,27148,-8,0,-1,0,37273,110,26,144,0,0,0,0,0,0,0,0,-32294,0,0,0,4177,0,32283,0
27002,36,-8166,796,-64,19,23,27150,3,3,-5,0,37273,103,26,144,0,0,0,0,0,0,0,0,-32294,0,0,0,4177,0,32303,0
27012,-48,-8214,704,-76,16,35,27150,-6,-2,-4,0,37274,96,26,144,0,0,0,0,0,0,0,0,-32294,0,0,0,4178,0,32323,0
27022,-98,-8236,648,-79,19,42,27151,-6,4,-5,0,37273,94,25,144,0,0,0,0,0,0,0,0,-32294,0,0,0,4178,0,32343,0
27032,-154,-8184,574,-66,17,22,27152,8,5,-10,0,37270,99,25,144,0,0,0,0,0,0,0,0,-32294,0,0,0,4177,0,32363,0
27042,-160,-8246,542,-54,25,18,27151,-2,2,-5,0,37270,102,25,144,0,0,0,0,0,0,0,0,-32294,0,0,0,4177,0,32383,0
27052,-130,-8206,562,-42,21,10,27153,-2,-1,-4,0,37272,104,25,144,0,0,0,0,0,0,0,0,-32294,0,0,0,4178,0,32403,0
27062,-92,-8198,640,-37,17,11,27154,4,-1,-2,0,37278,102,26,144,0,0,0,0,0,0,0,0,-32294,0,0,0,4178,0,32423,0
27072,-42,-8216,712,-29,14,5,27154,0,1,0,0,37278,104,25,144,0,0,0,0,0,0,0,0,-32294,0,0,0,4178,0,32443,0
27082,-28,-8288,766,-37,18,12,27154,7,1,-2,0,37277,108,25,144,0,0,0,0,0,0,0,0,-32294,0,0,0,4177,0,32463,0
27092,-34,-8198,826,-50,18,22,27155,1,2,-3,0,37269,115,26,144,0,0,0,0,0,0,0,0,-32294,0,0,0,4178,0,32483,0
27102,-62,-8222,770,-61,13,17,27155,1,-1,-5,0,37266,113,25,144,0,0,0,0,0,0,0,0,-32294,0,0,0,4178,0,32503,0
27112,-118,-8218,696,-66,14,26,27155,3,-3,-3,0,37266,109,25,144,0,0,0,0,0,0,0,0,-32293,0,0,0,4179,0,32523,0
27122,-122,-8226,682,-60,12,21,27155,2,-3,-2,0,37268,112,26,144,0,0,0,0,0,0,0,0,-32294,0,0,0,4179,0,32543,0
27132,-118,-8192,646,-63,11,1,27156,4,1,-3,0,37267,113,25,144,0,0,0,0,0,0,0,0,-32294,0,0,0,4178,0,32563,0
27142,-132,-8222,636,-56,14,2,27155,-2,-3,0,0,37264,103,25,144,0,0,0,0,0,0,0,0,-32293,0,0,0,4179,0,32583,0
27152,-96,-8228,676,-53,11,2,27156,4,-3,-1,0,37262,101,25,144,0,0,0,0,0,0,0,0,-32294,0,0,0,4179,0,32603,0
27162,-78,-8208,690,-53,7,-6,27155,-3,-2,0,0,37271,115,25,144,0,0,0,0,0,0,0,0,-32294,0,0,0,4179,0,32623,0
27172,-68,-8252,664,-51,11,1,27155,2,-1,2,0,37272,118,25,144,0,0,0,0,0,0,0,0,-32293,0,0,0,4178,0,32643,0
27182,-62,-8228,698,-54,10,5,27154,0,8,-2,0,37270,119,25,144,0,0,0,0,0,0,0,0,-32294,0,0,0,4178,0,32663,0
27192,-62,-8194,668,-51,12,-6,27156,7,2,-1,0,37265,112,26,144,0,0,0,0,0,0,0,0,-32294,0,0,0,4178,0,32683,0
27202,-50,-8226,702,-54,15,-2,27155,2,-1,-2,0,37264,97,25,144,0,0,0,0,0,0,0,0,-32294,0,0,0,4178,0,32703,0
27212,-42,-8210,678,-57,12,8,27154,-8,4,0,0,37265,107,25,144,0,0,0,0,0,0,0,0,-32294,0,0,0,4178,0,32723,0
27222,-24,-8220,678,-51,15,6,27155,0,-1,0,0,37267,112,25,144,0,0,0,0,0,0,0,0,-32294,0,0,0,4178,0,32743,0
27232,-70,-8216,688,-52,11,4,27155,1,1,-1,0,37264,115,26,144,0,0,0,0,0,0,0,0,-32294,0,0,0,4178,0,32763,0
27242,-70,-8234,696,-50,18,12,27154,-2,-3,0,0,37262,112,26,144,0,0,0,0,0,0,0,0,-32294,0,0,0,4178,0,32783,0
27252,-24,-8196,714,-57,12,7,27156,3,-2,-2,0,37264,112,26,144,0,0,0,0,0,0,0,0,-32294,0,0,0,4178,0,32803,0
27262,-44,-8210,678,-56,13,9,27155,-1,0,-2,0,37269,117,26,144,0,0,0,0,0,0,0,0,-32294,0,0,0,4179,0,32823,0
27272,-104,-8200,650,-57,14,14,27154,-3,4,1,0,37274,117,26,144,0,0,0,0,0,0,0,0,-32294,0,0,0,4178,0,32843,0
27282,-80,-8210,652,-54,12,11,27155,0,-5,-1,0,37270,118,26,144,0,0,0,0,0,0,0,0,-32294,0,0,0,4179,0,32863,0
27292,-82,-8208,622,-49,18,5,27156,3,-6,-3,0,37263,110,25,144,0,0,0,0,0,0,0,0,-32294,0,0,0,4179,0,32883,0
27302,-24,-8226,658,-46,16,14,27155,-1,-2,-2,0,37260,103,25,144,0,0,0,0,0,0,0,0,-32294,0,0,0,4178,0,32903,0
27312,-32,-8218,676,-47,20,18,27155,2,2,-2,0,37262,105,26,144,0,0,0,0,0,0,0,0,-32294,0,0,0,4178,0,32923,0
27322,-56,-8204,690,-46,17,12,27154,-8,-2,0,0,37262,108,25,144,0,0,0,0,0,0,0,0,-32294,0,0,0,4178,0,32943,0
27332,-74,-8230,702,-45,13,19,27156,8,4,-1,0,37258,101,25,144,0,0,0,0,0,0,0,0,-32293,0,0,0,4179,0,32963,0
27342,-92,-8242,684,-42,19,22,27156,-2,0,-2,0,37257,102,26,144,0,0,0,0,0,0,0,0,-32294,0,0,0,4179,0,32983,0
27352,-122,-8190,668,-47,12,7,27155,0,3,-4,0,37260,104,25,144,0,0,0,0,0,0,0,0,-32294,0,0,0,4179,0,33003,0
27362,-90,-8222,662,-44,11,7,27157,0,-1,-2,0,37261,106,25,144,0,0,0,0,0,0,0,0,-32294,0,0,0,4179,0,33023,0
27372,-116,-8234,700,-42,12,6,27156,0,2,0,0,37268,97,25,144,0,0,0,0,0,0,0,0,-32294,0,0,0,4179,0,33043,0
27382,-84,-8188,746,-48,15,-3,27157,2,3,-3,0,37269,104,25,144,0,0,0,0,0,0,0,0,-32294,0,0,0,4178,0,33063,0
27392,-44,-8238,696,-49,7,7,27156,5,3,0,0,37271,110,26,144,0,0,0,0,0,0,0,0,-32294,0,0,0,4179,0,33083,0
27402,-56,-8218,708,-50,12,7,27156,-4,2,0,0,37278,115,26,144,0,0,0,0,0,0,0,0,-32294,0,0,0,4178,0,33103,0
27412,-74,-8194,660,-52,10,0,27157,3,-2,-1,0,37273,114,26,144,0,0,0,0,0,0,0,0,-32294,0,0,0,4179,0,33123,0
27422,-78,-8228,642,-53,10,3,27156,-3,4,0,0,37273,112,25,144,0,0,0,0,0,0,0,0,-32294,0,0,0,4179,0,33143,0
27432,-72,-8246,682,-48,10,4,27155,-2,-3,-1,0,37260,110,25,144,0,0,0,0,0,0,0,0,-32294,0,0,0,4179,0,33163,0
27442,-58,-8190,682,-48,8,0,27156,5,1,-2,0,37257,98,25,144,0,0,0,0,0,0,0,0,-32294,0,0,0,4178,0,33183,0
27452,-90,-8224,674,-44,7,0,27156,3,0,-1,0,37260,91,25,144,0,0,0,0,0,0,0,0,-32294,0,0,0,4178,0,33203,0
27462,-86,-8230,680,-45,10,0,27156,0,-3,-2,0,37260,102,26,144,0,0,0,0,0,0,0,0,-32294,0,0,0,4179,0,33223,0
27472,-74,-8232,670,-45,13,-4,27155,-4,-1,0,0,37261,112,25,144,0,0,0,0,0,0,0,0,-32294,0,0,0,4179,0,33243,0
27482,-62,-8238,662,-42,7,-6,27154,-6,2,-1,0,37263,120,25,144,0,0,0,0,0,0,0,0,-32294,0,0,0,4179,0,33263,0
27492,-60,-8222,672,-37,11,2,27156,4,0,0,0,37263,116,26,144,0,0,0,0,0,0,0,0,-32294,0,0,0,4179,0,33283,0
27502,-60,-8234,650,-40,8,3,27156,0,-4,-2,0,37264,106,25,144,0,0,0,0,0,0,0,0,-32294,0,0,0,4179,0,33303,0
27512,-94,-8192,650,-33,6,-3,27156,1,2,0,0,37261,103,26,144,0,0,0,0,0,0,0,0,-32294,0,0,0,4179,0,33323,0
27522,-82,-8230,702,-35,8,-1,27156,-1,-4,0,0,37258,106,26,144,0,0,0,0,0,0,0,0,-32294,0,0,0,4178,0,33343,0
27532,-68,-8236,714,-33,12,7,27155,0,3,-3,0,37257,107,25,144,0,0,0,0,0,0,0,0,-32293,0,0,0,4178,0,33363,0
27542,-92,-8202,698,-33,4,-3,27155,0,-3,0,0,37257,104,26,144,0,0,0,0,0,0,0,0,-32294,0,0,0,4178,0,33383,0
27552,-106,-8206,720,-34,4,-9,27154,-3,2,-2,0,37259,105,26,144,0,0,0,0,0,0,0,0,-32294,0,0,0,4178,0,33403,0
27562,-114,-8264,720,-39,10,-9,27154,-5,0,0,0,37261,100,25,144,0,0,0,0,0,0,0,0,-32294,0,0,0,4178,0,33423,0
27572,-106,-8188,740,-41,5,-24,27154,4,-3,1,0,37261,102,25,144,0,0,0,0,0,0,0,0,-32294,0,0,0,4178,0,33443,0
27582,-108,-8170,734,-43,-2,-20,27153,3,-1,-1,0,37260,99,25,144,0,0,0,0,0,0,0,0,-32294,0,0,0,4178,0,33463,0
27592,-78,-8276,716,-47,6,-20,27154,-6,-5,1,0,37266,101,25,144,0,0,0,0,0,0,0,0,-32294,0,0,0,4179,0,33483,0
27602,-62,-8216,710,-58,0,-22,27151,-1,7,2,0,37267,110,26,144,0,0,0,0,0,0,0,0,-32294,0,0,0,4178,0,33503,0
27612,-82,-8218,688,-58,4,-30,27152,1,-1,3,0,37266,119,26,144,0,0,0,0,0,0,0,0,-32294,0,0,0,4178,0,33523,0
27622,-66,-8250,702,-62,7,-21,27151,3,1,1,0,37259,118,26,144,0,0,0,0,0,0,0,0,-32294,0,0,0,4178,0,33543,0
27632,-18,-8208,680,-56,5,-19,27151,8,1,3,0,37261,111,26,144,0,0,0,0,0,0,0,0,-32294,0,0,0,4178,0,33563,0
27642,-30,-8186,684,-52,5,-14,27149,-5,-5,5,0,37262,99,25,144,0,0,0,0,0,0,0,0,-32294,0,0,0,4178,0,33583,0
27652,-48,-8248,694,-48,9,-13,27149,2,-1,3,0,37262,87,25,144,0,0,0,0,0,0,0,0,-32294,0,0,0,4177,0,33603,0
27662,-46,-8188,726,-51,8,-15,27148,-2,-1,2,0,37264,93,26,144,0,0,0,0,0,0,0,0,-32294,0,0,0,4177,0,33623,0
27672,-30,-8228,714,-54,9,-12,27147,-3,2,5,0,37265,98,26,144,0,0,0,0,0,0,0,0,-32294,0,0,0,4177,0,33643,0
27682,-30,-8234,720,-52,11,-11,27145,-9,-3,3,0,37268,110,26,144,0,0,0,0,0,0,0,0,-32294,0,0,0,4178,0,33663,0
27692,-26,-8222,726,-61,9,-4,27144,-5,-5,4,0,37270,109,26,144,0,0,0,0,0,0,0,0,-32294,0,0,0,4177,0,33683,0
27702,10,-8238,710,-55,7,2,27145,0,4,3,0,37268,104,26,144,0,0,0,0,0,0,0,0,-32294,0,0,0,4177,0,33703,0
27712,14,-8258,688,-60,19,9,27143,-8,0,1,0,37270,105,26,144,0,0,0,0,0,0,0,0,-32294,0,0,0,4177,0,33723,0
27722,6,-8218,682,-57,17,16,27143,-3,1,-2,0,37268,107,26,144,0,0,0,0,0,0,0,0,-32294,0,0,0,4177,0,33743,0
27732,52,-8234,668,-60,20,23,27143,-3,2,-2,0,37267,109,26,144,0,0,0,0,0,0,0,0,-32294,0,0,0,4176,0,33763,0
27742,30,-8250,662,-53,23,39,27143,-4,-1,-3,0,37263,105,26,144,0,0,0,0,0,0,0,0,-32294,0,0,0,4178,0,33783,0
27752,62,-8212,658,-54,29,43,27144,-2,0,-4,0,37262,102,26,144,0,0,0,0,0,0,0,0,-32294,0,0,0,4177,0,33803,0
27762,0,-8220,656,-48,30,49,27145,0,-2,-7,0,37265,112,26,144,0,0,0,0,0,0,0,0,-32294,0,0,0,4178,0,33823,0
27772,-46,-8214,642,-46,32,59,27147,6,-1,-8,0,37268,117,26,144,0,0,0,0,0,0,0,0,-32294,0,0,0,4178,0,33843,0
27782,-34,-8228,658,-47,32,63,27149,6,1,-13,0,37268,108,26,144,0,0,0,0,0,0,0,0,-32294,0,0,0,4178,0,33863,0
27792,-94,-8208,690,-44,36,60,27151,2,2,-12,0,37269,103,26,144,0,0,0,0,0,0,0,0,-32294,0,0,0,4177,0,33883,0
27802,-68,-8184,688,-49,28,67,27152,5,1,-11,0,37273,107,26,144,0,0,0,0,0,0,0,0,-32294,0,0,0,4178,0,33903,0
27812,-86,-8264,738,-49,34,61,27154,6,3,-10,0,37274,102,26,144,0,0,0,0,0,0,0,0,-32293,0,0,0,4179,0,33923,0
27822,-138,-8238,742,-52,28,56,27154,-2,4,-13,0,37273,103,26,144,0,0,0,0,0,0,0,0,-32293,0,0,0,4179,0,33943,0
27832,-122,-8228,740,-57,28,44,27157,7,-6,-9,0,37266,101,26,144,0,0,0,0,0,0,0,0,-32294,0,0,0,4179,0,33963,0
27842,-88,-8226,680,-55,34,48,27158,11,-1,-9,0,37268,104,26,144,0,0,0,0,0,0,0,0,-32294,0,0,0,4179,0,33983,0
27852,-84,-8186,708,-63,26,44,27158,-1,-5,-10,0,37272,103,25,144,0,0,0,0,0,0,0,0,-32294,0,0,0,4180,0,34003,0
27862,-106,-8192,702,-61,19,42,27160,2,1,-10,0,37273,111,25,144,0,0,0,0,0,0,0,0,-32294,0,0,0,4179,0,34023,0
27872,-114,-8232,660,-60,20,45,27160,1,2,-9,0,37272,113,25,144,0,0,0,0,0,0,0,0,-32294,0,0,0,4180,0,34043,0
27882,-122,-8192,676,-62,22,40,27161,0,2,-8,0,37269,118,26,144,0,0,0,0,0,0,0,0,-32293,0,0,0,4180,0,34063,0
27892,-92,-8180,690,-61,22,32,27163,5,1,-6,0,37268,115,26,144,0,0,0,0,0,0,0,0,-32293,0,0,0,4180,0,34083,0
27902,-144,-8258,680,-66,17,29,27164,3,0,-5,0,37273,120,26,144,0,0,0,0,0,0,0,0,-32294,0,0,0,4180,0,34103,0
27912,-120,-8218,680,-64,17,25,27164,4,3,-5,0,37273,121,26,144,0,0,0,0,0,0,0,0,-32294,0,0,0,4180,0,34123,0
27922,-112,-8212,648,-62,17,22,27164,0,-3,-5,0,37272,123,26,144,0,0,0,0,0,0,0,0,-32294,0,0,0,4180,0,34144,0
27932,-138,-8284,628,-51,14,22,27165,1,-3,-3,0,37271,116,26,144,0,0,0,0,0,0,0,0,-32294,0,0,0,4180,0,34164,0
27942,-128,-8192,652,-52,15,17,27165,0,1,-3,0,37268,102,26,144,0,0,0,0,0,0,0,0,-32294,0,0,0,4180,0,34184,0
27952,-120,-8202,644,-55,13,12,27165,-4,2,-3,0,37269,97,26,144,0,0,0,0,0,0,0,0,-32294,0,0,0,4181,0,34204,0
27962,-136,-8244,660,-47,18,9,27165,1,-2,0,0,37269,99,26,144,0,0,0,0,0,0,0,0,-32294,0,0,0,4181,0,34224,0
27972,-116,-8190,684,-48,14,0,27165,0,0,0,0,37271,107,26,144,0,0,0,0,0,0,0,0,-32294,0,0,0,4183,0,34244,0
27982,-110,-8184,718,-44,13,-2,27165,-3,-3,-1,0,37273,109,26,144,0,0,0,0,0,0,0,0,-32294,0,0,0,4180,0,34264,0
27992,-110,-8262,722,-54,9,-3,27166,1,4,-2,0,37274,106,26,144,0,0,0,0,0,0,0,0,-32293,0,0,0,4182,0,34284,0
28002,-120,-8250,736,-57,14,-2,27166,4,4,-2,0,37274,107,26,144,0,0,0,0,0,0,0,0,-32294,0,0,0,4180,0,34304,0
28012,-106,-8226,660,-63,13,-3,27165,3,-1,-1,0,37279,116,26,144,0,0,0,0,0,0,0,0,-32294,0,0,0,4180,0,34324,0
28022,-70,-8232,644,-57,5,-6,27166,4,2,-1,0,37278,120,26,144,0,0,0,0,0,0,0,0,-32294,0,0,0,4180,0,34344,0
28032,-62,-8226,648,-56,10,-1,27165,-3,0,0,0,37276,121,26,144,0,0,0,0,0,0,0,0,-32294,0,0,0,4181,0,34364,0
28042,-72,-8210,626,-51,9,0,27164,-2,-4,-3,0,37269,108,26,144,0,0,0,0,0,0,0,0,-32294,0,0,0,4182,0,34384,0
28052,-88,-8200,636,-50,16,2,27165,0,-1,0,0,37271,116,26,144,0,0,0,0,0,0,0,0,-32294,0,0,0,4181,0,34404,0
28062,-72,-8224,662,-45,13,7,27164,0,-2,0,0,37275,118,26,144,0,0,0,0,0,0,0,0,-32294,0,0,0,4180,0,34424,0
28072,-74,-8204,690,-40,12,3,27164,0,1,-1,0,37274,120,26,144,0,0,0,0,0,0,0,0,-32294,0,0,0,4181,0,34444,0
28082,-56,-8200,676,-45,12,2,27165,3,-1,0,0,37271,115,26,144,0,0,0,0,0,0,0,0,-32293,0,0,0,4180,0,34464,0
28092,-78,-8242,700,-45,18,7,27164,0,5,-2,0,37268,115,25,144,0,0,0,0,0,0,0,0,-32294,0,0,0,4180,0,34484,0
28102,-60,-8202,682,-42,11,8,27164,-1,2,-2,0,37265,119,25,144,0,0,0,0,0,0,0,0,-32293,0,0,0,4180,0,34504,0
28112,-68,-8206,716,-40,14,7,27164,-5,2,-1,0,37265,111,26,144,0,0,0,0,0,0,0,0,-32294,0,0,0,4181,0,34524,0
28122,-66,-8264,694,-48,18,12,27165,1,4,-2,0,37271,116,25,144,0,0,0,0,0,0,0,0,-32293,0,0,0,4180,0,34544,0
28132,-90,-8198,666,-44,15,14,27165,-3,-3,1,0,37273,117,25,144,0,0,0,0,0,0,0,0,-32294,0,0,0,4180,0,34564,0
28142,-92,-8188,688,-43,15,7,27164,7,3,-1,0,37270,116,25,144,0,0,0,0,0,0,0,0,-32293,0,0,0,4180,0,34584,0
28152,-76,-8224,666,-42,18,8,27166,1,-2,-1,0,37264,104,26,144,0,0,0,0,0,0,0,0,-32294,0,0,0,4179,0,34604,0
28162,-104,-8226,672,-47,15,8,27164,2,5,0,0,37265,106,25,144,0,0,0,0,0,0,0,0,-32293,0,0,0,4181,0,34624,0
28172,-86,-8244,698,-48,13,4,27164,-6,1,0,0,37266,118,25,144,0,0,0,0,0,0,0,0,-32293,0,0,0,4180,0,34644,0
28182,-112,-8250,690,-46,11,7,27164,2,-1,0,0,37265,117,26,144,0,0,0,0,0,0,0,0,-32294,0,0,0,4181,0,34664,0
28192,-108,-8200,700,-46,12,-1,27165,0,7,-1,0,37265,116,26,144,0,0,0,0,0,0,0,0,-32294,0,0,0,4181,0,34684,0
28202,-90,-8172,686,-41,9,1,27166,0,-1,0,0,37265,109,26,144,0,0,0,0,0,0,0,0,-32294,0,0,0,4181,0,34704,0
28212,-122,-8262,682,-51,9,-6,27163,0,4,3,0,37267,111,26,144,0,0,0,0,0,0,0,0,-32294,0,0,0,4180,0,34724,0
28222,-100,-8242,696,-50,11,-1,27164,5,2,-2,0,37269,106,26,144,0,0,0,0,0,0,0,0,-32294,0,0,0,4180,0,34744,0
28232,-108,-8226,700,-48,8,-12,27164,1,-1,0,0,37267,102,26,144,0,0,0,0,0,0,0,0,-32294,0,0,0,4181,0,34764,0
28242,-104,-8260,706,-47,11,-6,27164,-3,-1,0,0,37266,100,26,144,0,0,0,0,0,0,0,0,-32294,0,0,0,4180,0,34784,0
28252,-78,-8204,720,-52,8,-5,27163,-2,5,-3,0,37262,101,26,144,0,0,0,0,0,0,0,0,-32294,0,0,0,4180,0,34804,0
28262,-84,-8218,718,-50,6,-6,27164,0,4,0,0,37264,109,26,144,0,0,0,0,0,0,0,0,-32294,0,0,0,4180,0,34824,0
28272,-80,-8230,662,-53,13,-10,27165,1,-1,0,0,37265,117,26,144,0,0,0,0,0,0,0,0,-32294,0,0,0,4179,0,34844,0
28282,-106,-8192,664,-52,6,-12,27164,6,-1,0,0,37264,118,26,144,0,0,0,0,0,0,0,0,-32294,0,0,0,4180,0,34864,0
28292,-106,-8222,652,-53,3,-12,27163,0,1,0,0,37260,106,26,144,0,0,0,0,0,0,0,0,-32294,0,0,0,4181,0,34884,0
28302,-112,-8238,636,-52,0,-17,27163,1,-2,0,0,37258,107,25,144,0,0,0,0,0,0,0,0,-32294,0,0,0,4179,0,34904,0
28312,-78,-8216,690,-45,2,-17,27163,-6,-6,1,0,37259,110,25,144,0,0,0,0,0,0,0,0,-32294,0,0,0,4180,0,34924,0
28322,-64,-8184,698,-41,8,-18,27162,-5,2,1,0,37259,118,25,144,0,0,0,0,0,0,0,0,-32294,0,0,0,4179,0,34944,0
28332,-58,-8230,700,-49,3,-16,27164,0,0,1,0,37263,106,25,144,0,0,0,0,0,0,0,0,-32294,0,0,0,4180,0,34964,0
28342,-30,-8206,726,-51,8,-10,27163,3,0,0,0,37263,102,26,144,0,0,0,0,0,0,0,0,-32294,0,0,0,4180,0,34984,0
28352,-48,-8210,680,-53,7,-7,27162,-3,-4,0,0,37264,110,26,144,0,0,0,0,0,0,0,0,-32293,0,0,0,4180,0,35004,0
28362,-56,-8224,658,-51,10,-6,27162,0,-3,0,0,37261,109,26,144,0,0,0,0,0,0,0,0,-32294,0,0,0,4180,0,35024,0
28372,-70,-8210,658,-48,4,-2,27162,1,2,0,0,37258,101,25,144,0,0,0,0,0,0,0,0,-32294,0,0,0,4179,0,35044,0
28382,-84,-8222,644,-43,3,-4,27161,0,-2,0,0,37256,102,26,144,0,0,0,0,0,0,0,0,-32293,0,0,0,4180,0,35064,0
28392,-82,-8240,658,-44,13,-7,27162,1,0,-1,0,37257,111,26,144,0,0,0,0,0,0,0,0,-32293,0,0,0,4179,0,35084,0
28402,-116,-8220,666,-36,10,-7,27161,0,0,0,0,37257,115,26,144,0,0,0,0,0,0,0,0,-32294,0,0,0,4179,0,35104,0
28412,-74,-8202,720,-36,9,-7,27161,0,0,1,0,37258,110,25,144,0,0,0,0,0,0,0,0,-32294,0,0,0,4179,0,35124,0
28422,-70,-8252,718,-39,9,-7,27161,2,2,-3,0,37257,107,25,144,0,0,0,0,0,0,0,0,-32294,0,0,0,4179,0,35144,0
28432,-50,-8204,692,-35,7,-5,27161,-1,1,0,0,37261,116,25,144,0,0,0,0,0,0,0,0,-32294,0,0,0,4179,0,35164,0
28442,-44,-8236,686,-40,7,-1,27160,-6,-2,0,0,37261,106,25,144,0,0,0,0,0,0,0,0,-32294,0,0,0,4179,0,35184,0
28452,-52,-8204,694,-43,8,-7,27161,-1,0,-1,0,37264,102,25,144,0,0,0,0,0,0,0,0,-32294,0,0,0,4179,0,35204,0
28462,-60,-8222,682,-44,15,-1,27160,0,0,0,0,37262,101,25,144,0,0,0,0,0,0,0,0,-32294,0,0,0,4179,0,35224,0
28472,-58,-8202,690,-46,12,-2,27160,-1,0,0,0,37259,103,25,144,0,0,0,0,0,0,0,0,-32294,0,0,0,4179,0,35244,0
28482,-46,-8248,674,-42,13,-3,27159,-2,0,0,0,37256,103,25,144,0,0,0,0,0,0,0,0,-32294,0,0,0,4179,0,35264,0
28492,-56,-8240,674,-45,12,-1,27160,0,4,-1,0,37255,107,25,144,0,0,0,0,0,0,0,0,-32294,0,0,0,4179,0,35284,0
28502,-46,-8208,662,-43,12,-1,27160,0,1,0,0,37256,110,26,144,0,0,0,0,0,0,0,0,-32294,0,0,0,4180,0,35304,0
28512,-26,-8216,668,-40,12,8,27160,2,1,-1,0,37256,105,26,144,0,0,0,0,0,0,0,0,-32294,0,0,0,4179,0,35324,0
28522,-34,-8236,704,-43,14,5,27158,-2,-1,-1,0,37255,103,25,144,0,0,0,0,0,0,0,0,-32293,0,0,0,4179,0,35344,0
28532,-60,-8188,680,-34,17,7,27160,-1,-2,-2,0,37263,102,25,144,0,0,0,0,0,0,0,0,-32294,0,0,0,4179,0,35364,0
28542,-60,-8246,672,-41,15,9,27160,5,-3,-2,0,37266,109,25,144,0,0,0,0,0,0,0,0,-32294,0,0,0,4180,0,35384,0
28552,-84,-8234,682,-42,20,10,27160,-1,0,-3,0,37267,111,26,144,0,0,0,0,0,0,0,0,-32294,0,0,0,4179,0,35404,0
28562,-70,-8214,692,-44,18,9,27160,6,1,0,0,37259,113,25,144,0,0,0,0,0,0,0,0,-32294,0,0,0,4179,0,35424,0
28572,-62,-8228,660,-36,17,15,27160,1,1,-3,0,37257,110,26,144,0,0,0,0,0,0,0,0,-32294,0,0,0,4179,0,35444,0
28582,-88,-8232,666,-29,20,11,27161,2,1,-1,0,37260,107,26,144,0,0,0,0,0,0,0,0,-32294,0,0,0,4179,0,35464,0
28592,-56,-8200,682,-38,19,12,27161,0,-3,-2,0,37260,99,26,144,0,0,0,0,0,0,0,0,-32294,0,0,0,4180,0,35484,0
28602,-74,-8212,712,-36,14,7,27160,0,0,-1,0,37260,99,25,144,0,0,0,0,0,0,0,0,-32294,0,0,0,4179,0,35504,0
28612,-112,-8218,706,-38,13,3,27161,4,0,1,0,37260,105,25,144,0,0,0,0,0,0,0,0,-32293,0,0,0,4179,0,35524,0
28622,-100,-8210,724,-38,16,4,27161,3,0,-1,0,37259,99,25,144,0,0,0,0,0,0,0,0,-32294,0,0,0,4179,0,35544,0
28632,-32,-8220,704,-45,11,3,27161,3,3,0,0,37268,99,25,144,0,0,0,0,0,0,0,0,-32293,0,0,0,4179,0,35564,0
28642,-58,-8214,678,-50,13,5,27159,3,7,0,0,37272,96,25,144,0,0,0,0,0,0,0,0,-32294,0,0,0,4180,0,35584,0
28652,-74,-8208,662,-42,10,4,27160,0,2,0,0,37276,98,25,144,0,0,0,0,0,0,0,0,-32294,0,0,0,4179,0,35604,0
28662,-70,-8224,650,-39,14,1,27161,3,-3,0,0,37274,105,25,144,0,0,0,0,0,0,0,0,-32294,0,0,0,4179,0,35624,0
28672,-66,-8232,656,-33,15,3,27161,2,-5,0,0,37267,107,26,144,0,0,0,0,0,0,0,0,-32293,0,0,0,4179,0,35644,0
28682,-66,-8216,658,-36,17,0,27161,2,-2,0,0,37275,112,26,144,0,0,0,0,0,0,0,0,-32294,0,0,0,4179,0,35664,0
28692,-32,-8218,690,-30,14,7,27161,0,-2,-1,0,37289,110,26,144,0,0,0,0,0,0,0,0,-32294,0,0,0,4180,0,35684,0
28702,-32,-8232,682,-29,16,8,27161,3,-4,-2,0,37289,106,25,144,0,0,0,0,0,0,0,0,-32294,0,0,0,4180,0,35704,0
28712,-48,-8218,722,-36,14,7,27161,1,3,-4,0,37276,102,25,144,0,0,0,0,0,0,0,0,-32294,0,0,0,4179,0,35724,0
28722,-24,-8218,724,-33,12,12,27161,7,-1,-6,0,37266,101,26,144,0,0,0,0,0,0,0,0,-32293,0,0,0,4179,0,35744,0
28732,-64,-8214,722,-41,14,14,27160,6,1,-3,0,37265,104,26,144,0,0,0,0,0,0,0,0,-32294,0,0,0,4179,0,35764,0
28742,-58,-8214,742,-41,15,11,27160,0,0,-4,0,37266,109,25,144,0,0,0,0,0,0,0,0,-32294,0,0,0,4180,0,35784,0
28752,-72,-8192,698,-42,12,14,27161,0,4,-3,0,37266,111,25,144,0,0,0,0,0,0,0,0,-32294,0,0,0,4179,0,35804,0
28762,-104,-8256,674,-42,16,12,27161,1,-1,-2,0,37270,114,25,144,0,0,0,0,0,0,0,0,-32294,0,0,0,4179,0,35824,0
28772,-82,-8186,704,-38,15,5,27160,-3,1,-1,0,37267,102,26,144,0,0,0,0,0,0,0,0,-32293,0,0,0,4180,0,35844,0
28782,-72,-8212,690,-37,13,2,27161,1,2,-1,0,37264,100,26,144,0,0,0,0,0,0,0,0,-32293,0,0,0,4178,0,35864,0
28792,-20,-8214,726,-41,9,11,27161,0,-3,-1,0,37263,97,26,144,0,0,0,0,0,0,0,0,-32293,0,0,0,4179,0,35884,0
28802,-38,-8206,720,-47,9,3,27161,1,1,-1,0,37265,105,26,144,0,0,0,0,0,0,0,0,-32294,0,0,0,4179,0,35904,0
28812,-36,-8224,712,-49,11,14,27161,0,-1,-3,0,37268,108,26,144,0,0,0,0,0,0,0,0,-32294,0,0,0,4181,0,35924,0
28822,-52,-8220,720,-51,19,11,27161,1,-3,-2,0,37267,109,26,144,0,0,0,0,0,0,0,0,-32294,0,0,0,4179,0,35944,0
28832,-60,-8204,678,-52,12,12,27160,-1,1,0,0,37268,112,26,144,0,0,0,0,0,0,0,0,-32294,0,0,0,4180,0,35964,0
28842,-60,-8220,686,-49,8,17,27161,-1,-1,-3,0,37275,110,26,144,0,0,0,0,0,0,0,0,-32294,0,0,0,4179,0,35984,0
28852,-64,-8232,674,-49,18,20,27161,0,-6,-1,0,37277,105,26,144,0,0,0,0,0,0,0,0,-32293,0,0,0,4180,0,36004,0
28862,-34,-8208,702,-44,13,17,27161,2,5,-1,0,37277,107,26,144,0,0,0,0,0,0,0,0,-32294,0,0,0,4179,0,36024,0
28872,4,-8234,662,-45,16,24,27161,2,-4,-1,0,37269,113,26,144,0,0,0,0,0,0,0,0,-32294,0,0,0,4179,0,36044,0
28882,-54,-8250,666,-35,19,30,27162,0,0,-2,0,37268,118,25,144,0,0,0,0,0,0,0,0,-32294,0,0,0,4179,0,36064,0
28892,-94,-8236,694,-40,16,26,27163,1,-3,-3,0,37266,105,25,144,0,0,0,0,0,0,0,0,-32294,0,0,0,4179,0,36084,0
28902,-78,-8196,700,-43,18,24,27163,2,1,-3,0,37268,97,26,144,0,0,0,0,0,0,0,0,-32294,0,0,0,4179,0,36104,0
28912,-66,-8222,730,-34,21,29,27163,0,1,-3,0,37270,105,26,144,0,0,0,0,0,0,0,0,-32294,0,0,0,4179,0,36124,0
