state_time,accelx,accely,accelz,gyrox,gyroy,gyroz,mot_ang,mot_vel,mot_acc,mot_cur,mot_volt,batt_volt,batt_curr,temperature,status_mn,status_ex,status_re,genvar_0,genvar_1,genvar_2,genvar_3,genvar_4,genvar_5,genvar_6,genvar_7,genvar_8,genvar_9,ank_ang,ank_vel,sys_time,event flags
17787,-388,-8220,456,-56,16,-3,8222,0,0,4,0,37219,69,26,79,0,0,0,0,0,0,0,0,-32293,0,0,0,4275,0,2606,0
17797,-394,-8216,462,-55,13,-5,8223,1,4,0,0,37215,78,26,79,0,0,0,0,0,0,0,0,-32293,0,0,0,4275,0,17787,0
17807,-402,-8242,448,-51,11,-5,8221,-2,2,0,0,37214,75,25,79,0,0,0,0,0,0,0,0,-32293,0,0,0,4276,0,17787,0
17817,-400,-8196,478,-45,11,2,8222,0,1,3,0,37215,72,26,79,0,0,0,0,0,0,0,0,-32293,0,0,0,4275,0,17787,0
17827,-386,-8226,470,-47,12,0,8223,0,-6,3,0,37215,75,26,79,0,0,0,0,0,0,0,0,-32293,0,0,0,4275,0,17787,0
17837,-448,-8232,478,-48,11,-1,8223,1,-1,3,0,37211,86,26,79,0,0,0,0,0,0,0,0,-32292,0,0,0,4275,0,17787,0
17847,-440,-8212,462,-57,10,-9,8222,-6,-1,2,0,37208,84,26,79,0,0,0,0,0,0,0,0,-32293,0,0,0,4275,0,17787,0
17857,-432,-8230,468,-48,20,-14,8223,-4,-4,2,0,37212,82,26,79,0,0,0,0,0,0,0,0,-32293,0,0,0,4275,0,17787,0
17867,-392,-8240,456,-51,13,-14,8222,-7,0,1,0,37216,87,26,79,0,0,0,0,0,0,0,0,-32293,0,0,0,4276,0,17787,0
17877,-370,-8204,476,-50,11,-10,8222,-2,2,1,0,37209,93,26,79,0,0,0,0,0,0,0,0,-32293,0,0,0,4275,0,17787,0
17887,-374,-8210,458,-52,11,-3,8223,2,4,0,0,37208,91,26,79,0,0,0,0,0,0,0,0,-32293,0,0,0,4274,0,17787,0
17897,-404,-8228,472,-53,10,-4,8222,-1,5,1,0,37208,80,26,79,0,0,0,0,0,0,0,0,-32293,0,0,0,4273,0,17787,0
17907,-414,-8228,472,-49,15,-6,8223,3,2,2,0,37214,80,26,79,0,0,0,0,0,0,0,0,-32293,0,0,0,4274,0,17787,0
17917,-422,-8226,450,-50,15,-5,8222,-1,0,2,0,37214,96,26,79,0,0,0,0,0,0,0,0,-32293,0,0,0,4273,0,17797,0
17927,-362,-8242,454,-46,15,-8,8223,0,-2,0,0,37207,92,26,79,0,0,0,0,0,0,0,0,-32293,0,0,0,4273,0,17807,0
17937,-378,-8252,470,-48,15,-2,8222,4,1,3,0,37207,85,26,79,0,0,0,0,0,0,0,0,-32293,0,0,0,4273,0,17817,0
17947,-360,-8180,446,-47,19,1,8222,-1,2,2,0,37212,68,26,79,0,0,0,0,0,0,0,0,-32293,0,0,0,4273,0,17827,0
17957,-342,-8236,482,-53,16,6,8222,-3,0,1,0,37217,80,26,79,0,0,0,0,0,0,0,0,-32293,0,0,0,4273,0,17837,0
17967,-376,-8264,488,-50,14,6,8222,0,-4,2,0,37209,83,26,79,0,0,0,0,0,0,0,0,-32293,0,0,0,4273,0,17847,0
17977,-388,-8208,458,-50,15,9,8223,-1,-1,3,0,37207,70,26,79,0,0,0,0,0,0,0,0,-32293,0,0,0,4273,0,17857,0
17987,-410,-8254,462,-51,15,9,8223,4,-3,2,0,37214,68,26,79,0,0,0,0,0,0,0,0,-32293,0,0,0,4273,0,17876,0
17997,-384,-8222,484,-44,9,9,8223,3,-1,4,0,37229,85,26,79,0,0,0,0,0,0,0,0,-32292,0,0,0,4273,0,17895,0
18007,-396,-8206,470,-45,19,12,8223,-3,1,2,0,37223,86,26,79,0,0,0,0,0,0,0,0,-32293,0,0,0,4273,0,17916,0
18017,-396,-8236,490,-47,11,12,8223,1,2,2,0,37212,91,26,79,0,0,0,0,0,0,0,0,-32293,0,0,0,4274,0,17934,0
18027,-392,-8220,470,-46,20,8,8222,0,-2,1,0,37211,80,26,79,0,0,0,0,0,0,0,0,-32293,0,0,0,4274,0,17944,0
18037,-400,-8212,450,-43,13,9,8222,-8,0,2,0,37210,85,26,79,0,0,0,0,0,0,0,0,-32293,0,0,0,4273,0,17954,0
18047,-394,-8230,462,-46,16,9,8223,1,-4,2,0,37207,88,26,79,0,0,0,0,0,0,0,0,-32293,0,0,0,4273,0,17964,0
18057,-402,-8230,470,-43,15,7,8223,0,-1,4,0,37202,90,26,79,0,0,0,0,0,0,0,0,-32293,0,0,0,4273,0,17974,0
18067,-414,-8226,456,-45,9,1,8223,0,1,3,0,37199,87,26,79,0,0,0,0,0,0,0,0,-32292,0,0,0,4273,0,17987,0
18077,-362,-8244,478,-40,12,7,8221,-5,-1,1,0,37206,77,26,79,0,0,0,0,0,0,0,0,-32292,0,0,0,4273,0,18004,0
18087,-358,-8194,486,-46,17,2,8224,9,-5,4,0,37211,81,26,79,0,0,0,0,0,0,0,0,-32293,0,0,0,4273,0,18014,0
18097,-370,-8232,504,-51,14,7,8222,1,0,0,0,37205,83,26,79,0,0,0,0,0,0,0,0,-32292,0,0,0,4273,0,18024,0
18107,-380,-8234,480,-52,13,9,8223,-1,-1,1,0,37199,86,26,79,0,0,0,0,0,0,0,0,-32293,0,0,0,4273,0,18036,0
18117,-376,-8210,448,-47,15,8,8223,3,-1,3,0,37201,77,26,79,0,0,0,0,0,0,0,0,-32293,0,0,0,4273,0,18046,0
18127,-406,-8216,454,-47,15,4,8221,-3,0,2,0,37206,75,26,79,0,0,0,0,0,0,0,0,-32293,0,0,0,4274,0,18056,0
18137,-426,-8214,478,-42,15,7,8222,-1,-1,2,0,37203,85,26,79,0,0,0,0,0,0,0,0,-32293,0,0,0,4273,0,18066,0
18147,-392,-8260,472,-44,15,7,8222,0,1,0,0,37198,85,26,79,0,0,0,0,0,0,0,0,-32293,0,0,0,4273,0,18076,0
18157,-394,-8224,476,-44,11,8,8223,4,-2,3,0,37197,88,26,79,0,0,0,0,0,0,0,0,-32293,0,0,0,4273,0,18090,0
18167,-386,-8240,454,-43,13,3,8222,2,-2,1,0,37198,82,26,79,0,0,0,0,0,0,0,0,-32293,0,0,0,4273,0,18100,0
18177,-358,-8232,472,-47,16,-1,8222,-4,-2,2,0,37200,89,26,79,0,0,0,0,0,0,0,0,-32293,0,0,0,4273,0,18110,0
18187,-366,-8194,488,-46,17,11,8222,-4,2,3,0,37197,88,26,79,0,0,0,0,0,0,0,0,-32293,0,0,0,4273,0,18120,0
18197,-388,-8224,440,-44,10,7,8223,3,2,2,0,37199,89,26,79,0,0,0,0,0,0,0,0,-32293,0,0,0,4273,0,18133,0
18207,-368,-8240,470,-46,11,12,8221,-2,4,1,0,37202,88,26,79,0,0,0,0,0,0,0,0,-32293,0,0,0,4273,0,18143,0
18217,-380,-8206,480,-46,14,16,8221,-4,-2,2,0,37205,96,26,79,0,0,0,0,0,0,0,0,-32293,0,0,0,4273,0,18153,0
18227,-396,-8216,470,-49,19,13,8223,4,1,1,0,37200,91,26,79,0,0,0,0,0,0,0,0,-32293,0,0,0,4274,0,18163,0
18237,-430,-8234,490,-51,10,7,8222,1,-1,3,0,37197,85,26,79,0,0,0,0,0,0,0,0,-32293,0,0,0,4273,0,18175,0
18247,-406,-8228,468,-43,13,10,8222,0,0,2,0,37196,77,26,79,0,0,0,0,0,0,0,0,-32293,0,0,0,4273,0,18185,0
18257,-386,-8244,476,-46,13,5,8222,-1,-5,1,0,37200,83,26,79,0,0,0,0,0,0,0,0,-32293,0,0,0,4273,0,18195,0
18267,-396,-8194,482,-50,17,10,8223,8,1,2,0,37196,85,26,79,0,0,0,0,0,0,0,0,-32293,0,0,0,4274,0,18206,0
18277,-402,-8234,470,-52,17,6,8223,0,1,0,0,37192,87,26,79,0,0,0,0,0,0,0,0,-32293,0,0,0,4273,0,18217,0
18287,-398,-8214,456,-48,13,3,8222,3,-2,2,0,37195,82,26,79,0,0,0,0,0,0,0,0,-32293,0,0,0,4273,0,18227,0
18297,-364,-8234,452,-50,13,11,8222,-7,0,0,0,37201,85,26,79,0,0,0,0,0,0,0,0,-32293,0,0,0,4273,0,18237,0
18307,-414,-8240,484,-46,14,8,8224,1,0,2,0,37200,93,26,79,0,0,0,0,0,0,0,0,-32293,0,0,0,4274,0,18250,0
18317,-368,-8206,478,-52,15,8,8222,-5,-5,3,0,37191,96,26,79,0,0,0,0,0,0,0,0,-32293,0,0,0,4274,0,18260,0
18327,-386,-8218,500,-49,15,13,8223,3,0,2,0,37195,90,26,79,0,0,0,0,0,0,0,0,-32293,0,0,0,4274,0,18270,0
18337,-394,-8242,480,-50,11,8,8222,-4,-2,0,0,37194,91,26,79,0,0,0,0,0,0,0,0,-32293,0,0,0,4273,0,18280,0
18347,-422,-8228,462,-52,16,13,8223,0,-1,2,0,37195,88,26,79,0,0,0,0,0,0,0,0,-32293,0,0,0,4274,0,18293,0
18357,-428,-8224,460,-51,13,11,8223,3,-3,4,0,37183,106,26,79,0,0,0,0,0,0,0,0,-32292,0,0,0,4273,0,18303,0
18367,-406,-8250,456,-53,13,8,8223,4,1,1,0,37186,100,26,79,0,0,0,0,0,0,0,0,-32293,0,0,0,4273,0,18313,0
18377,-410,-8214,462,-47,13,5,8222,-3,2,0,0,37190,86,26,79,0,0,0,0,0,0,0,0,-32293,0,0,0,4274,0,18323,0
18387,-400,-8246,462,-47,15,6,8222,1,-1,2,0,37194,77,26,79,0,0,0,0,0,0,0,0,-32293,0,0,0,4274,0,18336,0
18397,-406,-8218,474,-47,12,6,8223,3,3,2,0,37192,81,26,79,0,0,0,0,0,0,0,0,-32293,0,0,0,4274,0,18346,0
18407,-404,-8222,462,-45,15,6,8222,1,-2,1,0,37187,91,26,79,0,0,0,0,0,0,0,0,-32292,0,0,0,4273,0,18356,0
18417,-378,-8230,480,-53,13,8,8223,0,2,1,0,37197,90,26,79,0,0,0,0,0,0,0,0,-32293,0,0,0,4274,0,18366,0
18427,-392,-8222,466,-50,9,6,8222,0,-3,1,0,37215,83,26,79,0,0,0,0,0,0,0,0,-32293,0,0,0,4273,0,18378,0
18437,-374,-8244,476,-51,11,13,8222,-2,2,1,0,37218,88,26,79,0,0,0,0,0,0,0,0,-32293,0,0,0,4273,0,18389,0
18447,-376,-8212,478,-48,13,13,8222,2,-1,3,0,37203,95,26,79,0,0,0,0,0,0,0,0,-32292,0,0,0,4273,0,18399,0
18457,-396,-8224,464,-56,16,15,8222,-4,2,2,0,37189,89,26,79,0,0,0,0,0,0,0,0,-32293,0,0,0,4274,0,18409,0
18467,-398,-8222,464,-54,15,10,8223,1,-1,1,0,37186,90,26,79,0,0,0,0,0,0,0,0,-32293,0,0,0,4274,0,18419,0
18477,-428,-8222,464,-48,15,14,8222,5,3,3,0,37186,87,26,79,0,0,0,0,0,0,0,0,-32293,0,0,0,4273,0,18433,0
18487,-418,-8226,478,-48,14,10,8222,2,5,1,0,37181,90,26,79,0,0,0,0,0,0,0,0,-32293,0,0,0,4274,0,18444,0
18497,-396,-8198,466,-49,10,6,8221,0,-4,2,0,37183,97,26,79,0,0,0,0,0,0,0,0,-32293,0,0,0,4273,0,18454,0
18507,-392,-8234,462,-50,13,5,8223,3,3,2,0,37186,95,26,79,0,0,0,0,0,0,0,0,-32293,0,0,0,4274,0,18464,0
18517,-414,-8258,470,-45,12,7,8221,-3,-2,3,0,37190,95,26,79,0,0,0,0,0,0,0,0,-32293,0,0,0,4273,0,18477,0
18527,-366,-8220,462,-49,11,6,8224,6,6,1,0,37195,99,26,79,0,0,0,0,0,0,0,0,-32293,0,0,0,4274,0,18487,0
18537,-382,-8242,462,-50,16,11,8222,-3,-2,2,0,37188,95,26,79,0,0,0,0,0,0,0,0,-32293,0,0,0,4274,0,18497,0
18547,-394,-8246,484,-48,16,8,8222,-2,-1,1,0,37188,85,26,79,0,0,0,0,0,0,0,0,-32292,0,0,0,4274,0,18507,0
18557,-380,-8188,476,-49,18,11,8222,-2,0,2,0,37187,83,26,79,0,0,0,0,0,0,0,0,-32293,0,0,0,4273,0,18520,0
18567,-402,-8212,470,-51,17,14,8222,-5,0,0,0,37185,85,26,79,0,0,0,0,0,0,0,0,-32292,0,0,0,4274,0,18530,0
18577,-378,-8228,462,-47,15,19,8223,7,1,0,0,37182,90,26,79,0,0,0,0,0,0,0,0,-32293,0,0,0,4274,0,18540,0
18587,-406,-8230,482,-47,19,20,8222,0,0,2,0,37186,95,26,79,0,0,0,0,0,0,0,0,-32293,0,0,0,4274,0,18550,0
18597,-404,-8240,488,-46,13,22,8222,1,0,2,0,37192,95,26,79,0,0,0,0,0,0,0,0,-32293,0,0,0,4274,0,18563,0
18607,-446,-8248,486,-49,10,16,8222,3,0,2,0,37188,90,26,79,0,0,0,0,0,0,0,0,-32293,0,0,0,4274,0,18573,0
18617,-434,-8196,460,-48,14,16,8223,3,1,1,0,37181,98,26,79,0,0,0,0,0,0,0,0,-32293,0,0,0,4275,0,18583,0
18627,-424,-8226,480,-45,14,9,8222,0,0,2,0,37182,93,26,79,0,0,0,0,0,0,0,0,-32293,0,0,0,4275,0,18593,0
18637,-384,-8202,474,-53,15,19,8223,0,0,4,0,37183,90,26,79,0,0,0,0,0,0,0,0,-32293,0,0,0,4274,0,18606,0
18647,-396,-8210,464,-46,13,10,8221,-5,-3,3,0,37189,80,26,79,0,0,0,0,0,0,0,0,-32293,0,0,0,4275,0,18616,0
18657,-408,-8230,476,-50,17,9,8222,-3,-1,2,0,37185,97,26,79,0,0,0,0,0,0,0,0,-32293,0,0,0,4275,0,18626,0
18667,-416,-8232,486,-42,15,13,8223,0,5,1,0,37181,106,26,79,0,0,0,0,0,0,0,0,-32293,0,0,0,4274,0,18636,0
18677,-378,-8226,490,-50,9,12,8223,2,5,2,0,37182,102,26,79,0,0,0,0,0,0,0,0,-32293,0,0,0,4274,0,18648,0
18687,-386,-8236,468,-51,17,12,8222,0,-1,3,0,37184,88,26,79,0,0,0,0,0,0,0,0,-32293,0,0,0,4274,0,18658,0
18697,-422,-8214,438,-49,8,10,8222,3,2,2,0,37186,95,26,79,0,0,0,0,0,0,0,0,-32293,0,0,0,4274,0,18668,0
18707,-406,-8210,470,-46,12,10,8222,4,-1,3,0,37181,101,26,79,0,0,0,0,0,0,0,0,-32293,0,0,0,4277,0,18678,0
18717,-400,-8242,472,-48,15,12,8222,-2,-1,3,0,37180,103,26,79,0,0,0,0,0,0,0,0,-32293,0,0,0,4276,0,18691,0
18727,-412,-8218,484,-49,17,11,8223,0,3,2,0,37187,87,26,79,0,0,0,0,0,0,0,0,-32293,0,0,0,4274,0,18701,0
18737,-404,-8210,442,-47,16,12,8223,0,0,3,0,37195,84,26,79,0,0,0,0,0,0,0,0,-32293,0,0,0,4275,0,18711,0
18747,-414,-8242,458,-45,15,10,8222,0,0,3,0,37192,100,26,79,0,0,0,0,0,0,0,0,-32293,0,0,0,4275,0,18721,0
18757,-388,-8244,466,-46,14,10,8222,3,-3,2,0,37186,95,26,79,0,0,0,0,0,0,0,0,-32293,0,0,0,4276,0,18733,0
18767,-390,-8218,476,-46,16,11,8221,-5,0,1,0,37181,80,26,79,0,0,0,0,0,0,0,0,-32293,0,0,0,4276,0,18743,0
18777,-402,-8218,448,-43,17,10,8222,-4,-4,3,0,37189,77,26,79,0,0,0,0,0,0,0,0,-32293,0,0,0,4274,0,18753,0
18787,-402,-8228,478,-41,11,11,8222,-5,-1,2,0,37189,84,26,79,0,0,0,0,0,0,0,0,-32293,0,0,0,4276,0,18764,0
18797,-394,-8226,470,-52,12,11,8222,-4,1,3,0,37188,101,26,79,0,0,0,0,0,0,0,0,-32293,0,0,0,4275,0,18776,0
18807,-378,-8194,440,-49,16,11,8222,1,2,2,0,37184,96,26,79,0,0,0,0,0,0,0,0,-32293,0,0,0,4276,0,18786,0
18817,-432,-8254,480,-51,16,15,8221,-3,1,1,0,37186,95,26,79,0,0,0,0,0,0,0,0,-32293,0,0,0,4276,0,18796,0
18827,-406,-8228,470,-51,11,14,8223,1,-2,1,0,37186,99,26,79,0,0,0,0,0,0,0,0,-32293,0,0,0,4275,0,18807,0
18837,-378,-8222,464,-41,16,19,8222,3,0,1,0,37189,98,26,79,0,0,0,0,0,0,0,0,-32293,0,0,0,4274,0,18819,0
18847,-402,-8248,466,-44,14,14,8223,2,3,2,0,37189,93,26,79,0,0,0,0,0,0,0,0,-32293,0,0,0,4276,0,18829,0
18857,-436,-8238,478,-47,18,16,8223,5,2,1,0,37189,84,26,79,0,0,0,0,0,0,0,0,-32293,0,0,0,4276,0,18839,0
18867,-446,-8238,474,-47,13,11,8223,3,2,2,0,37188,89,26,79,0,0,0,0,0,0,0,0,-32293,0,0,0,4275,0,18851,0
18877,-454,-8232,450,-48,14,9,8222,4,1,2,0,37186,97,26,79,0,0,0,0,0,0,0,0,-32293,0,0,0,4276,0,18861,0
18887,-452,-8204,472,-49,8,1,8222,-4,3,3,0,37187,105,26,79,0,0,0,0,0,0,0,0,-32294,0,0,0,4276,0,18871,0
18897,-454,-8210,476,-49,14,1,8222,-3,1,4,0,37189,96,26,79,0,0,0,0,0,0,0,0,-32293,0,0,0,4276,0,18881,0
18907,-406,-8236,452,-49,9,-2,8223,7,4,3,0,37189,92,26,79,0,0,0,0,0,0,0,0,-32292,0,0,0,4277,0,18894,0
18917,-394,-8228,476,-54,10,2,8222,3,3,2,0,37188,102,26,79,0,0,0,0,0,0,0,0,-32293,0,0,0,4276,0,18904,0
18927,-402,-8240,484,-47,13,6,8223,2,0,4,0,37187,101,26,79,0,0,0,0,0,0,0,0,-32293,0,0,0,4277,0,18914,0
18937,-418,-8216,496,-49,7,4,8223,-1,-2,3,0,37188,91,26,79,0,0,0,0,0,0,0,0,-32292,0,0,0,4277,0,18924,0
18947,-390,-8214,448,-49,9,2,8222,1,-1,1,0,37192,83,26,79,0,0,0,0,0,0,0,0,-32293,0,0,0,4276,0,18937,0
18957,-392,-8212,450,-48,9,3,8222,-6,-4,0,0,37195,93,26,79,0,0,0,0,0,0,0,0,-32293,0,0,0,4276,0,18947,0
18967,-394,-8226,480,-51,11,6,8222,0,-1,2,0,37196,106,26,79,0,0,0,0,0,0,0,0,-32293,0,0,0,4276,0,18957,0
18977,-388,-8242,462,-47,13,7,8222,2,4,1,0,37193,106,26,79,0,0,0,0,0,0,0,0,-32293,0,0,0,4276,0,18967,0
18987,-390,-8240,472,-49,14,8,8222,-2,3,3,0,37192,92,26,79,0,0,0,0,0,0,0,0,-32293,0,0,0,4276,0,18980,0
18997,-408,-8254,444,-51,16,12,8223,-1,4,1,0,37193,100,26,79,0,0,0,0,0,0,0,0,-32293,0,0,0,4276,0,18990,0
19007,-402,-8216,468,-45,12,11,8222,-3,3,2,0,37189,112,26,79,0,0,0,0,0,0,0,0,-32293,0,0,0,4276,0,19000,0
19017,-402,-8222,498,-52,12,9,8222,0,1,2,0,37189,115,26,79,0,0,0,0,0,0,0,0,-32293,0,0,0,4276,0,19010,0
19027,-390,-8230,478,-45,14,5,8222,-8,0,1,0,37188,100,26,79,0,0,0,0,0,0,0,0,-32293,0,0,0,4275,0,19024,0
19037,-402,-8222,448,-44,15,7,8222,-5,-4,0,0,37188,96,26,79,0,0,0,0,0,0,0,0,-32292,0,0,0,4276,0,19034,0
19047,-414,-8226,458,-46,10,5,8222,4,3,3,0,37192,96,26,79,0,0,0,0,0,0,0,0,-32293,0,0,0,4276,0,19044,0
19057,-416,-8266,452,-53,12,9,8223,0,-1,0,0,37190,93,26,79,0,0,0,0,0,0,0,0,-32293,0,0,0,4276,0,19054,0
19067,-380,-8232,448,-49,17,7,8224,1,-3,2,0,37189,89,26,79,0,0,0,0,0,0,0,0,-32293,0,0,0,4276,0,19067,0
19077,-374,-8210,442,-45,16,9,8222,-5,-5,4,0,37184,89,26,79,0,0,0,0,0,0,0,0,-32293,0,0,0,4276,0,19077,0
19087,-390,-8216,454,-46,15,17,8222,4,1,2,0,37184,94,26,79,0,0,0,0,0,0,0,0,-32293,0,0,0,4277,0,19087,0
19097,-388,-8236,498,-44,13,14,8222,4,-1,2,0,37186,102,26,79,0,0,0,0,0,0,0,0,-32293,0,0,0,4276,0,19097,0
19107,-406,-8204,486,-46,13,20,8222,-4,-5,1,0,37186,111,26,79,0,0,0,0,0,0,0,0,-32292,0,0,0,4276,0,19112,0
19117,-422,-8246,468,-52,17,22,8222,-1,3,2,0,37184,109,26,79,0,0,0,0,0,0,0,0,-32293,0,0,0,4277,0,19121,0
19127,-430,-8236,476,-44,11,22,8222,2,7,3,0,37182,102,26,79,0,0,0,0,0,0,0,0,-32292,0,0,0,4276,0,19131,0
19137,-450,-8220,486,-45,16,17,8222,2,1,3,0,37182,112,26,79,0,0,0,0,0,0,0,0,-32293,0,0,0,4276,0,19142,0
19147,-430,-8222,478,-47,14,12,8223,5,3,2,0,37183,122,26,79,0,0,0,0,0,0,0,0,-32293,0,0,0,4278,0,19155,0
19157,-418,-8220,458,-44,11,8,8223,8,-2,2,0,37182,116,26,79,0,0,0,0,0,0,0,0,-32293,0,0,0,4278,0,19165,0
19167,-414,-8228,504,-45,15,14,8223,7,-2,2,0,37182,119,26,79,0,0,0,0,0,0,0,0,-32293,0,0,0,4277,0,19175,0
19177,-408,-8198,454,-47,15,13,8223,5,3,0,0,37183,120,26,79,0,0,0,0,0,0,0,0,-32292,0,0,0,4277,0,19185,0
19187,-404,-8222,460,-49,10,11,8223,0,-3,2,0,37186,113,26,79,0,0,0,0,0,0,0,0,-32293,0,0,0,4277,0,19198,0
19197,-398,-8220,462,-42,8,14,8222,0,1,2,0,37184,117,26,79,0,0,0,0,0,0,0,0,-32292,0,0,0,4278,0,19208,0
19207,-406,-8216,472,-45,11,14,8222,-3,0,4,0,37181,110,26,79,0,0,0,0,0,0,0,0,-32293,0,0,0,4278,0,19218,0
19217,-428,-8236,484,-49,13,11,8223,2,2,2,0,37178,112,26,79,0,0,0,0,0,0,0,0,-32293,0,0,0,4277,0,19231,0
19227,-432,-8222,490,-45,16,7,8222,1,1,3,0,37182,112,26,79,0,0,0,0,0,0,0,0,-32293,0,0,0,4277,0,19241,0
19237,-418,-8216,456,-50,12,5,8223,3,-1,2,0,37182,106,26,79,0,0,0,0,0,0,0,0,-32293,0,0,0,4277,0,19251,0
19247,-426,-8230,476,-45,16,4,8223,2,-2,4,0,37183,108,26,79,0,0,0,0,0,0,0,0,-32293,0,0,0,4278,0,19261,0
19257,-426,-8206,484,-48,11,8,8222,5,0,4,0,37188,106,26,79,0,0,0,0,0,0,0,0,-32293,0,0,0,4277,0,19275,0
19267,-416,-8222,476,-45,11,4,8223,0,3,1,0,37186,117,26,79,0,0,0,0,0,0,0,0,-32293,0,0,0,4277,0,19285,0
19277,-398,-8236,466,-49,13,7,8222,1,-3,3,0,37187,114,26,79,0,0,0,0,0,0,0,0,-32293,0,0,0,4276,0,19295,0
19287,-432,-8208,476,-52,12,9,8222,0,0,2,0,37181,104,26,79,0,0,0,0,0,0,0,0,-32293,0,0,0,4277,0,19305,0
19297,-432,-8238,440,-50,13,5,8222,-7,-3,1,0,37183,113,26,79,0,0,0,0,0,0,0,0,-32293,0,0,0,4277,0,19318,0
19307,-414,-8200,452,-48,15,6,8223,0,-2,1,0,37182,114,26,79,0,0,0,0,0,0,0,0,-32293,0,0,0,4277,0,19328,0
19317,-388,-8196,454,-50,12,5,8221,-3,-1,3,0,37179,118,26,79,0,0,0,0,0,0,0,0,-32293,0,0,0,4277,0,19338,0
19327,-408,-8210,478,-52,9,11,8223,1,-1,2,0,37179,121,26,79,0,0,0,0,0,0,0,0,-32293,0,0,0,4277,0,19350,0
19337,-412,-8224,486,-47,12,10,8223,0,1,2,0,37179,126,26,79,0,0,0,0,0,0,0,0,-32293,0,0,0,4277,0,19361,0
19347,-410,-8240,478,-46,14,11,8223,2,-2,2,0,37180,117,26,79,0,0,0,0,0,0,0,0,-32293,0,0,0,4279,0,19371,0
19357,-416,-8244,452,-49,13,12,8223,1,3,2,0,37178,105,26,79,0,0,0,0,0,0,0,0,-32293,0,0,0,4277,0,19381,0
19367,-414,-8218,472,-48,12,8,8222,-4,-5,0,0,37180,107,26,79,0,0,0,0,0,0,0,0,-32293,0,0,0,4277,0,19394,0
19377,-396,-8236,496,-47,16,12,8221,-3,-2,1,0,37183,113,26,79,0,0,0,0,0,0,0,0,-32292,0,0,0,4277,0,19404,0
19387,-374,-8212,484,-49,11,13,8221,0,1,3,0,37181,116,26,79,0,0,0,0,0,0,0,0,-32293,0,0,0,4279,0,19414,0
19397,-366,-8202,480,-51,12,23,8223,5,6,1,0,37179,115,26,79,0,0,0,0,0,0,0,0,-32293,0,0,0,4277,0,19424,0
19407,-356,-8226,460,-52,11,27,8223,3,1,3,0,37177,119,26,79,0,0,0,0,0,0,0,0,-32293,0,0,0,4279,0,19439,0
19417,-414,-8214,496,-52,12,29,8223,4,1,1,0,37179,122,26,79,0,0,0,0,0,0,0,0,-32293,0,0,0,4278,0,19449,0
19427,-436,-8252,484,-54,9,30,8222,-3,-4,2,0,37177,111,26,79,0,0,0,0,0,0,0,0,-32293,0,0,0,4278,0,19459,0
19437,-402,-8218,440,-53,11,29,8224,4,0,3,0,37177,107,26,79,0,0,0,0,0,0,0,0,-32293,0,0,0,4279,0,19469,0
19447,-382,-8222,460,-52,19,27,8222,-1,-1,2,0,37177,109,26,79,0,0,0,0,0,0,0,0,-32293,0,0,0,4279,0,19482,0
19457,-394,-8230,474,-50,16,34,8223,-1,0,1,0,37179,115,26,79,0,0,0,0,0,0,0,0,-32293,0,0,0,4280,0,19492,0
19467,-384,-8226,486,-55,10,42,8223,0,-5,1,0,37181,121,26,79,0,0,0,0,0,0,0,0,-32293,0,0,0,4279,0,19502,0
19477,-386,-8208,462,-51,12,50,8223,-4,3,2,0,37183,127,26,79,0,0,0,0,0,0,0,0,-32293,0,0,0,4281,0,19512,0
19487,-428,-8230,422,-54,12,47,8223,1,-1,2,0,37184,124,26,79,0,0,0,0,0,0,0,0,-32293,0,0,0,4281,0,19522,0
19497,-428,-8242,434,-49,11,46,8222,0,-1,1,0,37179,125,26,79,0,0,0,0,0,0,0,0,-32293,0,0,0,4282,0,19535,0
19507,-434,-8222,430,-46,3,49,8222,-1,0,3,0,37178,117,26,79,0,0,0,0,0,0,0,0,-32293,0,0,0,4282,0,19545,0
19517,-476,-8234,438,-40,15,42,8222,2,3,2,0,37176,119,26,79,0,0,0,0,0,0,0,0,-32293,0,0,0,4283,0,19555,0
19527,-460,-8210,444,-38,10,33,8222,0,3,2,0,37179,116,26,79,0,0,0,0,0,0,0,0,-32293,0,0,0,4284,0,19565,0
19537,-508,-8236,492,-33,15,26,8223,-5,-1,2,0,37178,116,26,79,0,0,0,0,0,0,0,0,-32293,0,0,0,4283,0,19579,0
19547,-480,-8244,466,-38,20,19,8222,0,-8,3,0,37180,115,26,79,0,0,0,0,0,0,0,0,-32293,0,0,0,4284,0,19589,0
19557,-362,-8236,502,-36,16,22,8222,0,-3,1,0,37182,118,26,79,0,0,0,0,0,0,0,0,-32293,0,0,0,4284,0,19599,0
19567,-366,-8232,508,-46,14,34,8223,6,1,0,0,37184,112,26,79,0,0,0,0,0,0,0,0,-32293,0,0,0,4285,0,19609,0
19577,-366,-8198,464,-36,14,47,8222,4,-2,2,0,37189,109,26,79,0,0,0,0,0,0,0,0,-32293,0,0,0,4285,0,19622,0
19587,-380,-8226,466,-41,17,53,8223,0,2,3,0,37186,113,26,79,0,0,0,0,0,0,0,0,-32293,0,0,0,4286,0,19632,0
19597,-472,-8190,452,-32,14,56,8224,3,1,2,0,37189,118,26,79,0,0,0,0,0,0,0,0,-32293,0,0,0,4286,0,19642,0
19607,-476,-8204,456,-32,7,46,8222,2,-2,2,0,37183,120,26,79,0,0,0,0,0,0,0,0,-32293,0,0,0,4286,0,19655,0
19617,-474,-8222,448,-28,22,43,8222,-2,0,2,0,37181,120,26,79,0,0,0,0,0,0,0,0,-32293,0,0,0,4287,0,19666,0
19627,-460,-8208,476,-28,15,36,8223,5,2,3,0,37178,124,26,79,0,0,0,0,0,0,0,0,-32293,0,0,0,4287,0,19676,0
19637,-538,-8234,494,-28,14,24,8221,-10,-8,0,0,37179,126,26,79,0,0,0,0,0,0,0,0,-32293,0,0,0,4288,0,19686,0
19647,-554,-8256,514,-34,11,19,8222,2,-4,2,0,37180,129,26,79,0,0,0,0,0,0,0,0,-32293,0,0,0,4288,0,19698,0
19657,-574,-8202,506,-34,13,-1,8222,-1,-1,2,0,37181,120,26,79,0,0,0,0,0,0,0,0,-32293,0,0,0,4288,0,19709,0
19667,-536,-8238,520,-37,14,-7,8223,4,0,3,0,37181,118,26,79,0,0,0,0,0,0,0,0,-32293,0,0,0,4288,0,19719,0
19677,-452,-8210,494,-36,12,-15,8224,1,4,0,0,37182,118,26,79,0,0,0,0,0,0,0,0,-32293,0,0,0,4288,0,19729,0
19687,-402,-8250,508,-35,11,-16,8222,-1,0,1,0,37192,126,26,79,0,0,0,0,0,0,0,0,-32293,0,0,0,4287,0,19741,0
19697,-368,-8232,450,-38,10,-11,8222,0,0,3,0,37203,128,26,79,0,0,0,0,0,0,0,0,-32293,0,0,0,4288,0,19754,0
19707,-412,-8230,486,-37,13,-4,8222,-5,-3,1,0,37204,131,26,79,0,0,0,0,0,0,0,0,-32293,0,0,0,4288,0,19764,0
19717,-386,-8226,474,-34,7,2,8223,0,0,1,0,37195,120,26,79,0,0,0,0,0,0,0,0,-32293,0,0,0,4288,0,19773,0
19727,-414,-8200,474,-37,5,3,8223,6,-2,1,0,37182,116,26,79,0,0,0,0,0,0,0,0,-32293,0,0,0,4288,0,19785,0
19737,-460,-8222,470,-32,6,-2,8222,-1,-1,2,0,37186,115,26,79,0,0,0,0,0,0,0,0,-32293,0,0,0,4288,0,19797,0
19747,-484,-8238,512,-31,6,-5,8223,-2,3,2,0,37189,114,26,79,0,0,0,0,0,0,0,0,-32293,0,0,0,4288,0,19807,0
19757,-518,-8206,544,-42,7,-14,8223,5,1,2,0,37192,115,26,79,0,0,0,0,0,0,0,0,-32293,0,0,0,4287,0,19817,0
19767,-502,-8220,504,-44,9,-19,8223,-1,1,3,0,37189,115,26,79,0,0,0,0,0,0,0,0,-32293,0,0,0,4287,0,19830,0
19777,-500,-8250,500,-49,11,-37,8222,0,-1,4,0,37188,125,26,79,0,0,0,0,0,0,0,0,-32293,0,0,0,4286,0,19840,0
19787,-502,-8198,498,-44,12,-41,8222,0,-3,3,0,37193,121,26,79,0,0,0,0,0,0,0,0,-32293,0,0,0,4286,0,19850,0
19797,-476,-8242,490,-48,16,-48,8223,-1,-2,2,0,37193,116,26,79,0,0,0,0,0,0,0,0,-32292,0,0,0,4286,0,19860,0
19807,-424,-8238,494,-50,19,-46,8223,2,-2,1,0,37192,118,26,79,0,0,0,0,0,0,0,0,-32293,0,0,0,4285,0,19872,0
19817,-362,-8216,502,-48,17,-41,8222,-3,1,2,0,37186,127,26,79,0,0,0,0,0,0,0,0,-32293,0,0,0,4284,0,19882,0
19827,-338,-8242,492,-52,14,-38,8222,0,-1,1,0,37187,120,26,79,0,0,0,0,0,0,0,0,-32293,0,0,0,4283,0,19892,0
19837,-346,-8234,474,-48,9,-16,8223,0,-2,1,0,37187,119,26,79,0,0,0,0,0,0,0,0,-32293,0,0,0,4282,0,19902,0
19847,-366,-8210,464,-53,8,-12,8223,2,3,1,0,37187,114,26,79,0,0,0,0,0,0,0,0,-32293,0,0,0,4283,0,19915,0
19857,-374,-8246,482,-49,9,-5,8222,-2,2,2,0,37188,118,26,79,0,0,0,0,0,0,0,0,-32293,0,0,0,4283,0,19925,0
19867,-402,-8208,482,-50,16,2,8222,-5,0,3,0,37189,114,26,79,0,0,0,0,0,0,0,0,-32293,0,0,0,4283,0,19935,0
19877,-380,-8234,490,-50,12,11,8221,1,1,2,0,37189,107,26,79,0,0,0,0,0,0,0,0,-32293,0,0,0,4283,0,19947,0
19887,-370,-8238,508,-58,13,11,8222,-2,0,2,0,37195,103,26,79,0,0,0,0,0,0,0,0,-32293,0,0,0,4282,0,19957,0
19897,-392,-8214,496,-56,16,14,8223,4,-2,1,0,37196,112,26,79,0,0,0,0,0,0,0,0,-32293,0,0,0,4283,0,19967,0
19907,-388,-8236,518,-50,15,19,8222,3,1,1,0,37196,108,26,79,0,0,0,0,0,0,0,0,-32293,0,0,0,4283,0,19977,0
19917,-372,-8236,494,-54,17,24,8223,6,-2,2,0,37195,114,26,79,0,0,0,0,0,0,0,0,-32293,0,0,0,4282,0,19990,0
19927,-378,-8204,458,-55,12,31,8222,6,2,2,0,37191,114,26,79,0,0,0,0,0,0,0,0,-32293,0,0,0,4282,0,20000,0
19937,-442,-8206,476,-48,21,39,8223,2,-2,1,0,37190,117,26,79,0,0,0,0,0,0,0,0,-32293,0,0,0,4282,0,20010,0
19947,-436,-8240,470,-47,14,37,8223,1,0,2,0,37191,119,26,79,0,0,0,0,0,0,0,0,-32293,0,0,0,4283,0,20020,0
19957,-432,-8228,466,-45,13,36,8222,0,-1,2,0,37193,118,26,79,0,0,0,0,0,0,0,0,-32293,0,0,0,4284,0,20033,0
19967,-432,-8204,506,-48,20,41,8222,-3,5,3,0,37195,120,26,79,0,0,0,0,0,0,0,0,-32292,0,0,0,4284,0,20043,0
19977,-416,-8236,506,-49,12,42,8222,4,1,2,0,37192,116,26,79,0,0,0,0,0,0,0,0,-32293,0,0,0,4284,0,20053,0
19987,-442,-8214,520,-48,10,38,8222,0,1,0,0,37189,112,26,79,0,0,0,0,0,0,0,0,-32293,0,0,0,4285,0,20063,0
19997,-452,-8232,506,-52,11,37,8222,0,-1,2,0,37196,120,26,79,0,0,0,0,0,0,0,0,-32293,0,0,0,4285,0,20077,0
20007,-430,-8230,478,-55,18,38,8223,0,-2,1,0,37196,122,26,79,0,0,0,0,0,0,0,0,-32294,0,0,0,4286,0,20087,0
20017,-432,-8236,482,-54,15,43,8222,1,-7,2,0,37197,117,26,79,0,0,0,0,0,0,0,0,-32293,0,0,0,4286,0,20098,0
20027,-432,-8220,488,-53,10,39,8222,-4,-3,2,0,37188,107,26,79,0,0,0,0,0,0,0,0,-32294,0,0,0,4286,0,20109,0
20037,-440,-8232,488,-52,8,39,8223,-1,-1,2,0,37188,108,26,79,0,0,0,0,0,0,0,0,-32293,0,0,0,4287,0,20119,0
20047,-494,-8202,486,-52,17,34,8223,4,-2,3,0,37188,106,26,79,0,0,0,0,0,0,0,0,-32293,0,0,0,4287,0,20129,0
20057,-514,-8222,494,-51,10,25,8223,4,-2,3,0,37188,105,26,79,0,0,0,0,0,0,0,0,-32293,0,0,0,4288,0,20139,0
20067,-544,-8198,498,-52,13,15,8222,-1,0,1,0,37187,102,26,79,0,0,0,0,0,0,0,0,-32293,0,0,0,4287,0,20149,0
20077,-540,-8240,498,-56,14,0,8223,2,-1,1,0,37187,114,26,79,0,0,0,0,0,0,0,0,-32293,0,0,0,4286,0,20159,0
20087,-538,-8198,494,-51,13,-6,8223,2,1,1,0,37188,113,26,79,0,0,0,0,0,0,0,0,-32293,0,0,0,4288,0,20169,0
20097,-552,-8222,454,-58,7,-18,8223,1,-1,1,0,37191,122,26,79,0,0,0,0,0,0,0,0,-32293,0,0,0,4288,0,20179,0
20107,-506,-8226,480,-58,7,-32,8222,-6,-1,1,0,37191,121,26,79,0,0,0,0,0,0,0,0,-32293,0,0,0,4288,0,20190,0
20117,-522,-8150,504,-68,0,-48,8222,2,1,2,0,37191,126,26,79,0,0,0,0,0,0,0,0,-32293,0,0,0,4286,0,20200,0
20127,-564,-8212,504,-65,-4,-63,8222,2,-3,2,0,37187,120,26,79,0,0,0,0,0,0,0,0,-32293,0,0,0,4286,0,20210,0
20137,-560,-8200,508,-71,19,-82,8223,7,1,1,0,37185,110,26,79,0,0,0,0,0,0,0,0,-32293,0,0,0,4285,0,20220,0
20147,-556,-8186,494,-84,24,-103,8222,-4,1,3,0,37188,109,26,79,0,0,0,0,0,0,0,0,-32293,0,0,0,4283,0,20230,0
20157,-450,-8260,602,-85,18,-109,8223,4,2,3,0,37189,112,26,79,0,0,0,0,0,0,0,0,-32293,0,0,0,4282,0,20240,0
20167,-366,-8228,496,-89,20,-109,8222,1,4,0,0,37186,110,26,79,0,0,0,0,0,0,0,0,-32293,0,0,0,4280,0,20250,0
20177,-384,-8234,432,-89,15,-97,8222,3,1,0,0,37181,109,26,79,0,0,0,0,0,0,0,0,-32293,0,0,0,4278,0,20260,0
20187,-386,-8226,410,-80,20,-92,8223,-1,2,3,0,37182,106,26,79,0,0,0,0,0,0,0,0,-32293,0,0,0,4278,0,20270,0
20197,-338,-8240,436,-77,20,-88,8223,0,-3,0,0,37183,105,26,79,0,0,0,0,0,0,0,0,-32293,0,0,0,4276,0,20280,0
20207,-328,-8256,432,-69,18,-70,8222,8,0,1,0,37187,111,26,79,0,0,0,0,0,0,0,0,-32293,0,0,0,4274,0,20290,0
20217,-292,-8222,458,-66,7,-58,8221,-2,3,1,0,37186,112,26,79,0,0,0,0,0,0,0,0,-32293,0,0,0,4273,0,20300,0
20227,-292,-8220,408,-63,11,-40,8222,-1,-3,0,0,37191,108,26,79,0,0,0,0,0,0,0,0,-32293,0,0,0,4273,0,20310,0
20237,-310,-8222,420,-58,3,-25,8223,2,3,2,0,37197,93,26,79,0,0,0,0,0,0,0,0,-32293,0,0,0,4271,0,20320,0
20247,-334,-8216,460,-53,16,-15,8222,-3,0,0,0,37205,93,26,79,0,0,0,0,0,0,0,0,-32293,0,0,0,4272,0,20330,0
20257,-358,-8244,448,-50,7,-3,8222,1,1,0,0,37204,102,26,79,0,0,0,0,0,0,0,0,-32293,0,0,0,4272,0,20340,0
20267,-362,-8222,512,-54,3,1,8222,0,3,0,0,37198,104,26,79,0,0,0,0,0,0,0,0,-32293,0,0,0,4271,0,20350,0
20277,-410,-8212,474,-49,9,9,8223,1,1,2,0,37198,96,26,79,0,0,0,0,0,0,0,0,-32293,0,0,0,4271,0,20360,0
20287,-448,-8222,470,-51,10,5,8222,-7,-3,1,0,37204,98,26,79,0,0,0,0,0,0,0,0,-32293,0,0,0,4271,0,20370,0
20297,-410,-8220,460,-49,14,3,8222,0,-2,1,0,37207,100,26,79,0,0,0,0,0,0,0,0,-32293,0,0,0,4272,0,20380,0
20307,-398,-8220,474,-51,8,-4,8221,-3,-6,3,0,37212,95,26,79,0,0,0,0,0,0,0,0,-32293,0,0,0,4271,0,20390,0
20317,-414,-8224,476,-55,10,-6,8223,0,5,0,0,37212,87,26,79,0,0,0,0,0,0,0,0,-32293,0,0,0,4271,0,20400,0
20327,-430,-8238,470,-51,13,-10,8223,3,2,2,0,37212,73,26,79,0,0,0,0,0,0,0,0,-32293,0,0,0,4272,0,20410,0
20337,-386,-8184,466,-46,12,-16,8222,-2,1,1,0,37210,81,26,79,0,0,0,0,0,0,0,0,-32293,0,0,0,4272,0,20420,0
20347,-374,-8240,474,-48,15,-9,8222,-3,0,1,0,37213,82,26,79,0,0,0,0,0,0,0,0,-32293,0,0,0,4270,0,20430,0
20357,-332,-8222,466,-44,13,-8,8222,-5,1,3,0,37210,86,26,79,0,0,0,0,0,0,0,0,-32293,0,0,0,4270,0,20440,0
20367,-334,-8222,484,-48,11,-2,8223,2,0,0,0,37211,79,26,79,0,0,0,0,0,0,0,0,-32293,0,0,0,4271,0,20450,0
20377,-362,-8230,464,-48,9,2,8223,7,4,0,0,37211,82,26,79,0,0,0,0,0,0,0,0,-32293,0,0,0,4270,0,20460,0
20387,-372,-8226,494,-52,13,4,8222,-5,2,2,0,37210,79,26,79,0,0,0,0,0,0,0,0,-32293,0,0,0,4272,0,20470,0
20397,-412,-8214,468,-48,16,5,8222,0,0,0,0,37203,80,26,79,0,0,0,0,0,0,0,0,-32292,0,0,0,4271,0,20480,0
20407,-438,-8228,464,-46,17,0,8223,2,2,3,0,37205,87,26,79,0,0,0,0,0,0,0,0,-32292,0,0,0,4271,0,20490,0
20417,-418,-8240,472,-53,14,-2,8221,-8,-3,1,0,37207,92,26,79,0,0,0,0,0,0,0,0,-32292,0,0,0,4271,0,20500,0
20427,-388,-8198,484,-52,13,-6,8221,0,-4,1,0,37204,96,26,79,0,0,0,0,0,0,0,0,-32293,0,0,0,4271,0,20510,0
20437,-416,-8240,454,-55,20,-10,8223,3,2,3,0,37198,89,26,79,0,0,0,0,0,0,0,0,-32293,0,0,0,4271,0,20520,0
20447,-406,-8236,468,-51,13,-19,8222,-5,-2,2,0,37200,83,26,79,0,0,0,0,0,0,0,0,-32293,0,0,0,4270,0,20530,0
20457,-446,-8228,468,-50,13,-17,8222,-10,0,4,0,37204,82,26,79,0,0,0,0,0,0,0,0,-32293,0,0,0,4269,0,20540,0
20467,-372,-8194,422,-51,23,-22,8223,-2,-5,1,0,37203,86,26,79,0,0,0,0,0,0,0,0,-32293,0,0,0,4269,0,20550,0
20477,-364,-8228,486,-50,19,-15,8223,0,3,2,0,37198,84,26,79,0,0,0,0,0,0,0,0,-32293,0,0,0,4269,0,20560,0
20487,-380,-8236,488,-49,18,-21,8222,-3,1,1,0,37198,83,26,79,0,0,0,0,0,0,0,0,-32292,0,0,0,4269,0,20570,0
20497,-360,-8248,484,-50,14,-10,8223,0,2,0,0,37202,75,26,79,0,0,0,0,0,0,0,0,-32293,0,0,0,4269,0,20580,0
20507,-298,-8232,474,-49,12,-7,8222,1,-2,3,0,37205,81,26,79,0,0,0,0,0,0,0,0,-32292,0,0,0,4268,0,20590,0
20517,-334,-8236,426,-52,12,3,8222,0,0,1,0,37208,86,26,79,0,0,0,0,0,0,0,0,-32292,0,0,0,4268,0,20600,0
20527,-338,-8236,458,-50,10,8,8222,-5,-1,4,0,37206,82,26,79,0,0,0,0,0,0,0,0,-32293,0,0,0,4269,0,20610,0
20537,-346,-8168,422,-45,15,12,8222,2,-1,2,0,37213,77,26,79,0,0,0,0,0,0,0,0,-32293,0,0,0,4269,0,20620,0
20547,-354,-8226,452,-47,15,12,8221,-7,-2,3,0,37210,74,26,79,0,0,0,0,0,0,0,0,-32293,0,0,0,4269,0,20630,0
20557,-388,-8186,434,-39,15,10,8222,-2,-3,2,0,37209,86,26,79,0,0,0,0,0,0,0,0,-32293,0,0,0,4269,0,20640,0
20567,-422,-8236,484,-46,10,9,8223,3,2,1,0,37206,83,26,79,0,0,0,0,0,0,0,0,-32292,0,0,0,4268,0,20650,0
20577,-452,-8252,478,-42,22,7,8222,-4,-3,1,0,37202,75,26,79,0,0,0,0,0,0,0,0,-32292,0,0,0,4269,0,20660,0
20587,-414,-8228,480,-50,19,2,8223,-3,0,1,0,37207,80,26,79,0,0,0,0,0,0,0,0,-32293,0,0,0,4269,0,20670,0
20597,-416,-8236,516,-54,9,-4,8223,0,-1,1,0,37206,93,26,79,0,0,0,0,0,0,0,0,-32293,0,0,0,4269,0,20680,0
20607,-408,-8232,504,-55,5,-8,8222,-4,-1,0,0,37202,99,26,79,0,0,0,0,0,0,0,0,-32293,0,0,0,4269,0,20690,0
20617,-390,-8232,456,-53,23,-16,8223,1,2,2,0,37207,80,26,79,0,0,0,0,0,0,0,0,-32293,0,0,0,4268,0,20700,0
20627,-390,-8234,422,-52,16,-17,8223,-4,0,2,0,37209,70,26,79,0,0,0,0,0,0,0,0,-32293,0,0,0,4268,0,20710,0
20637,-330,-8190,448,-49,16,-18,8222,2,-1,1,0,37211,75,26,79,0,0,0,0,0,0,0,0,-32293,0,0,0,4267,0,20720,0
20647,-310,-8214,452,-48,16,-11,8223,1,2,1,0,37202,88,26,79,0,0,0,0,0,0,0,0,-32293,0,0,0,4267,0,20730,0
20657,-314,-8254,462,-45,16,-6,8223,1,1,1,0,37201,77,26,79,0,0,0,0,0,0,0,0,-32293,0,0,0,4267,0,20740,0
20667,-318,-8228,456,-47,14,4,8222,0,-2,1,0,37202,69,26,79,0,0,0,0,0,0,0,0,-32293,0,0,0,4267,0,20750,0
20677,-288,-8196,420,-44,16,11,8222,-1,-2,2,0,37204,68,26,79,0,0,0,0,0,0,0,0,-32293,0,0,0,4268,0,20760,0
20687,-322,-8258,458,-39,14,11,8222,2,2,3,0,37202,74,26,79,0,0,0,0,0,0,0,0,-32293,0,0,0,4266,0,20770,0
20697,-388,-8260,476,-34,11,20,8223,0,4,1,0,37201,77,26,79,0,0,0,0,0,0,0,0,-32293,0,0,0,4268,0,20783,0
20707,-358,-8144,442,-39,17,16,8222,0,0,1,0,37204,77,26,79,0,0,0,0,0,0,0,0,-32293,0,0,0,4268,0,20792,0
20717,-418,-8246,488,-40,14,13,8223,1,0,3,0,37212,79,26,79,0,0,0,0,0,0,0,0,-32293,0,0,0,4267,0,20802,0
20727,-440,-8238,490,-40,16,9,8223,7,3,1,0,37213,87,26,79,0,0,0,0,0,0,0,0,-32293,0,0,0,4267,0,20812,0
20737,-390,-8218,476,-46,14,8,8222,0,2,2,0,37211,91,26,79,0,0,0,0,0,0,0,0,-32293,0,0,0,4267,0,20823,0
20747,-388,-8242,486,-53,15,7,8222,1,-3,1,0,37210,81,26,79,0,0,0,0,0,0,0,0,-32293,0,0,0,4268,0,20833,0
20757,-362,-8192,466,-49,6,-2,8222,-5,0,2,0,37208,77,26,79,0,0,0,0,0,0,0,0,-32293,0,0,0,4268,0,20842,0
20767,-360,-8216,446,-49,11,-4,8223,0,1,0,0,37207,81,26,79,0,0,0,0,0,0,0,0,-32293,0,0,0,4268,0,20852,0
20777,-342,-8226,472,-49,11,-4,8222,-8,-3,2,0,37204,89,26,79,0,0,0,0,0,0,0,0,-32293,0,0,0,4266,0,20862,0
20787,-352,-8224,452,-45,13,-4,8223,-4,-2,2,0,37204,85,26,79,0,0,0,0,0,0,0,0,-32293,0,0,0,4267,0,20872,0
20797,-336,-8242,478,-44,14,4,8222,7,2,1,0,37207,74,26,79,0,0,0,0,0,0,0,0,-32293,0,0,0,4267,0,20882,0
20807,-356,-8236,456,-44,13,7,8222,0,1,3,0,37210,69,26,79,0,0,0,0,0,0,0,0,-32293,0,0,0,4268,0,20892,0
20817,-348,-8216,456,-43,14,9,8222,-5,-3,5,0,37207,74,26,79,0,0,0,0,0,0,0,0,-32293,0,0,0,4267,0,20902,0
20827,-372,-8224,482,-48,17,6,8221,0,-2,0,0,37209,78,26,79,0,0,0,0,0,0,0,0,-32293,0,0,0,4267,0,20912,0
20837,-370,-8238,448,-50,11,6,8222,0,-4,2,0,37209,69,26,79,0,0,0,0,0,0,0,0,-32293,0,0,0,4267,0,20922,0
20847,-410,-8226,498,-48,7,10,8223,1,-2,1,0,37214,69,26,79,0,0,0,0,0,0,0,0,-32293,0,0,0,4268,0,20932,0
20857,-394,-8216,460,-51,10,5,8222,0,-3,0,0,37210,79,26,79,0,0,0,0,0,0,0,0,-32293,0,0,0,4267,0,20942,0
20867,-398,-8232,458,-49,14,-1,8221,-7,2,1,0,37204,88,26,79,0,0,0,0,0,0,0,0,-32293,0,0,0,4268,0,20952,0
20877,-408,-8236,448,-49,12,-1,8222,-7,-1,1,0,37202,76,26,79,0,0,0,0,0,0,0,0,-32293,0,0,0,4267,0,20962,0
20887,-392,-8260,470,-49,7,-5,8222,1,0,3,0,37206,69,26,79,0,0,0,0,0,0,0,0,-32293,0,0,0,4268,0,20972,0
20897,-342,-8220,436,-51,16,-5,8223,0,1,1,0,37208,81,26,79,0,0,0,0,0,0,0,0,-32293,0,0,0,4268,0,20982,0
20907,-374,-8246,492,-44,14,0,8222,-2,-1,1,0,37205,88,26,79,0,0,0,0,0,0,0,0,-32293,0,0,0,4267,0,20992,0
20917,-374,-8204,490,-49,13,8,8221,0,3,4,0,37200,82,26,79,0,0,0,0,0,0,0,0,-32292,0,0,0,4267,0,21002,0
20927,-366,-8226,488,-49,11,5,8223,1,-4,0,0,37207,85,26,79,0,0,0,0,0,0,0,0,-32293,0,0,0,4268,0,21012,0
20937,-352,-8232,488,-48,13,-1,8222,-5,-2,1,0,37215,88,26,79,0,0,0,0,0,0,0,0,-32293,0,0,0,4267,0,21022,0
20947,-346,-8240,440,-45,10,8,8223,-1,1,1,0,37213,99,26,79,0,0,0,0,0,0,0,0,-32292,0,0,0,4267,0,21032,0
20957,-390,-8224,468,-48,11,7,8222,-8,0,3,0,37206,92,26,79,0,0,0,0,0,0,0,0,-32293,0,0,0,4268,0,21042,0
20967,-356,-8206,500,-44,18,9,8223,6,2,4,0,37206,80,26,79,0,0,0,0,0,0,0,0,-32293,0,0,0,4268,0,21052,0
20977,-372,-8198,458,-44,10,2,8222,-7,0,2,0,37224,78,26,79,0,0,0,0,0,0,0,0,-32292,0,0,0,4266,0,21062,0
20987,-388,-8208,466,-41,9,7,8224,10,4,2,0,37239,88,26,79,0,0,0,0,0,0,0,0,-32293,0,0,0,4266,0,21072,0
20997,-354,-8252,448,-51,13,6,8222,0,-1,0,0,37232,90,26,79,0,0,0,0,0,0,0,0,-32293,0,0,0,4266,0,21082,0
21007,-356,-8244,450,-46,8,3,8223,1,-1,3,0,37216,88,26,79,0,0,0,0,0,0,0,0,-32294,0,0,0,4268,0,21092,0
21017,-354,-8246,478,-44,11,2,8223,1,-3,2,0,37209,82,26,79,0,0,0,0,0,0,0,0,-32292,0,0,0,4268,0,21102,0
21027,-348,-8204,474,-45,14,7,8221,-5,-3,2,0,37213,78,26,79,0,0,0,0,0,0,0,0,-32293,0,0,0,4266,0,21112,0
21037,-382,-8230,470,-49,8,7,8222,0,-1,2,0,37205,86,26,79,0,0,0,0,0,0,0,0,-32293,0,0,0,4267,0,21122,0
21047,-368,-8224,454,-48,12,10,8222,-3,-1,2,0,37202,82,26,79,0,0,0,0,0,0,0,0,-32292,0,0,0,4266,0,21132,0
21057,-398,-8246,466,-49,18,13,8222,0,2,1,0,37204,77,26,79,0,0,0,0,0,0,0,0,-32293,0,0,0,4266,0,21142,0
21067,-376,-8238,446,-43,15,11,8223,-1,1,1,0,37207,83,26,79,0,0,0,0,0,0,0,0,-32293,0,0,0,4267,0,21152,0
21077,-398,-8232,454,-44,13,11,8222,0,-2,2,0,37203,97,26,79,0,0,0,0,0,0,0,0,-32293,0,0,0,4268,0,21162,0
21087,-378,-8276,470,-44,14,7,8222,-4,-2,3,0,37197,104,26,79,0,0,0,0,0,0,0,0,-32292,0,0,0,4268,0,21172,0
21097,-308,-8226,460,-49,9,7,8223,1,-2,1,0,37198,91,26,79,0,0,0,0,0,0,0,0,-32293,0,0,0,4267,0,21182,0
21107,-362,-8224,460,-48,12,7,8221,1,10,1,0,37202,74,26,79,0,0,0,0,0,0,0,0,-32293,0,0,0,4267,0,21193,0
21117,-390,-8234,488,-41,16,8,8222,-4,1,2,0,37204,79,26,79,0,0,0,0,0,0,0,0,-32292,0,0,0,4267,0,21203,0
21127,-366,-8230,498,-53,8,5,8223,0,-5,0,0,37197,80,26,79,0,0,0,0,0,0,0,0,-32292,0,0,0,4267,0,21213,0
21137,-380,-8226,470,-50,16,7,8223,0,1,1,0,37201,84,26,79,0,0,0,0,0,0,0,0,-32293,0,0,0,4266,0,21223,0
21147,-370,-8258,472,-50,18,10,8222,-3,1,1,0,37208,82,26,79,0,0,0,0,0,0,0,0,-32292,0,0,0,4268,0,21233,0
21157,-366,-8220,480,-45,13,12,8222,-1,3,1,0,37215,99,26,79,0,0,0,0,0,0,0,0,-32293,0,0,0,4267,0,21243,0
21167,-394,-8220,468,-52,17,7,8223,3,2,2,0,37200,92,26,79,0,0,0,0,0,0,0,0,-32292,0,0,0,4266,0,21253,0
21177,-352,-8232,466,-49,14,10,8221,-7,-2,3,0,37192,91,26,79,0,0,0,0,0,0,0,0,-32292,0,0,0,4266,0,21263,0
21187,-370,-8252,452,-47,17,7,8223,3,2,1,0,37194,73,26,79,0,0,0,0,0,0,0,0,-32293,0,0,0,4266,0,21273,0
21197,-370,-8224,458,-45,15,15,8221,-1,4,2,0,37201,75,26,79,0,0,0,0,0,0,0,0,-32292,0,0,0,4266,0,21283,0
21207,-390,-8236,458,-49,19,11,8222,-3,1,1,0,37199,79,26,79,0,0,0,0,0,0,0,0,-32292,0,0,0,4267,0,21293,0
21217,-364,-8242,444,-43,19,5,8222,2,-1,2,0,37192,93,26,79,0,0,0,0,0,0,0,0,-32292,0,0,0,4266,0,21303,0
21227,-344,-8226,444,-48,19,9,8222,-1,-3,3,0,37189,81,26,79,0,0,0,0,0,0,0,0,-32292,0,0,0,4268,0,21313,0
21237,-358,-8226,440,-43,10,12,8223,2,1,2,0,37200,91,26,79,0,0,0,0,0,0,0,0,-32292,0,0,0,4267,0,21323,0
21247,-360,-8238,484,-48,16,16,8222,-4,-2,2,0,37204,94,26,79,0,0,0,0,0,0,0,0,-32292,0,0,0,4268,0,21333,0
21257,-366,-8222,482,-50,12,12,8222,2,3,1,0,37197,99,26,79,0,0,0,0,0,0,0,0,-32292,0,0,0,4266,0,21343,0
21267,-378,-8218,486,-43,11,7,8222,-2,-1,2,0,37189,82,26,79,0,0,0,0,0,0,0,0,-32293,0,0,0,4268,0,21353,0
21277,-372,-8222,464,-49,15,13,8222,-1,-3,1,0,37188,73,26,79,0,0,0,0,0,0,0,0,-32293,0,0,0,4267,0,21363,0
21287,-348,-8216,462,-45,13,14,8221,-11,-5,3,0,37191,74,26,79,0,0,0,0,0,0,0,0,-32293,0,0,0,4268,0,21373,0
21297,-378,-8238,486,-47,18,9,8221,0,-1,0,0,37190,81,26,79,0,0,0,0,0,0,0,0,-32293,0,0,0,4268,0,21383,0
21307,-386,-8228,474,-51,19,14,8222,-5,5,3,0,37187,91,26,79,0,0,0,0,0,0,0,0,-32293,0,0,0,4267,0,21393,0
21317,-368,-8216,460,-46,18,17,8222,-3,-4,2,0,37189,76,26,79,0,0,0,0,0,0,0,0,-32293,0,0,0,4268,0,21403,0
21327,-364,-8208,462,-44,18,17,8224,3,-1,1,0,37195,67,26,79,0,0,0,0,0,0,0,0,-32293,0,0,0,4268,0,21413,0
21337,-356,-8236,448,-41,17,16,8222,-4,-4,2,0,37193,76,26,79,0,0,0,0,0,0,0,0,-32293,0,0,0,4267,0,21423,0
21347,-386,-8214,454,-42,20,24,8223,-1,2,3,0,37192,85,26,79,0,0,0,0,0,0,0,0,-32292,0,0,0,4267,0,21433,0
21357,-418,-8244,468,-45,13,19,8221,-5,-8,2,0,37188,81,26,79,0,0,0,0,0,0,0,0,-32293,0,0,0,4268,0,21443,0
21367,-388,-8212,472,-43,10,17,8223,5,0,2,0,37191,85,26,79,0,0,0,0,0,0,0,0,-32293,0,0,0,4268,0,21453,0
21377,-372,-8230,486,-43,9,20,8223,3,3,1,0,37191,95,26,79,0,0,0,0,0,0,0,0,-32293,0,0,0,4268,0,21463,0
21387,-384,-8234,462,-41,19,18,8223,2,2,2,0,37186,99,26,79,0,0,0,0,0,0,0,0,-32293,0,0,0,4268,0,21473,0
21397,-358,-8234,468,-40,15,18,8224,3,2,1,0,37186,102,26,79,0,0,0,0,0,0,0,0,-32293,0,0,0,4267,0,21483,0
21407,-360,-8220,486,-44,15,20,8222,0,0,2,0,37187,91,26,79,0,0,0,0,0,0,0,0,-32292,0,0,0,4268,0,21493,0
21417,-394,-8222,486,-42,9,20,8222,1,3,4,0,37186,96,26,79,0,0,0,0,0,0,0,0,-32292,0,0,0,4268,0,21503,0
21427,-396,-8244,482,-41,12,21,8223,-1,0,1,0,37182,91,26,79,0,0,0,0,0,0,0,0,-32293,0,0,0,4268,0,21513,0
21437,-382,-8236,464,-46,12,18,8222,8,-3,0,0,37178,91,26,79,0,0,0,0,0,0,0,0,-32293,0,0,0,4268,0,21523,0
21447,-396,-8230,472,-44,7,21,8223,4,-2,3,0,37187,85,26,79,0,0,0,0,0,0,0,0,-32293,0,0,0,4268,0,21533,0
21457,-384,-8262,488,-40,13,14,8222,2,-2,4,0,37190,90,26,79,0,0,0,0,0,0,0,0,-32293,0,0,0,4269,0,21543,0
21467,-366,-8218,480,-45,9,22,8221,-4,-3,2,0,37190,89,26,79,0,0,0,0,0,0,0,0,-32293,0,0,0,4269,0,21553,0
21477,-346,-8194,470,-41,14,27,8223,6,-2,0,0,37177,93,26,79,0,0,0,0,0,0,0,0,-32292,0,0,0,4269,0,21563,0
21487,-368,-8260,484,-43,10,24,8223,1,0,1,0,37177,77,26,79,0,0,0,0,0,0,0,0,-32293,0,0,0,4269,0,21573,0
21497,-398,-8232,500,-48,9,27,8222,0,-1,1,0,37183,82,26,79,0,0,0,0,0,0,0,0,-32292,0,0,0,4269,0,21583,0
21507,-416,-8206,494,-50,15,22,8221,-7,-1,3,0,37180,80,26,79,0,0,0,0,0,0,0,0,-32293,0,0,0,4270,0,21593,0
21517,-390,-8244,452,-53,14,16,8223,0,2,3,0,37180,83,26,79,0,0,0,0,0,0,0,0,-32293,0,0,0,4271,0,21603,0
21527,-392,-8208,464,-49,10,15,8222,2,-2,2,0,37184,87,26,79,0,0,0,0,0,0,0,0,-32293,0,0,0,4269,0,21613,0
21537,-400,-8226,450,-46,11,14,8223,1,2,2,0,37188,82,26,79,0,0,0,0,0,0,0,0,-32293,0,0,0,4269,0,21623,0
21547,-376,-8272,488,-47,14,11,8223,1,5,1,0,37192,99,26,79,0,0,0,0,0,0,0,0,-32292,0,0,0,4271,0,21633,0
21557,-352,-8208,482,-49,17,17,8223,2,1,1,0,37186,106,26,79,0,0,0,0,0,0,0,0,-32293,0,0,0,4271,0,21643,0
21567,-358,-8242,472,-49,19,21,8221,0,-3,0,0,37186,116,26,79,0,0,0,0,0,0,0,0,-32292,0,0,0,4271,0,21653,0
21577,-368,-8254,476,-52,11,23,8222,0,-2,1,0,37183,99,26,79,0,0,0,0,0,0,0,0,-32293,0,0,0,4272,0,21663,0
21587,-406,-8232,466,-49,11,28,8221,-2,0,1,0,37186,82,26,79,0,0,0,0,0,0,0,0,-32293,0,0,0,4272,0,21673,0
21597,-438,-8208,452,-48,11,24,8222,-4,0,2,0,37186,93,26,79,0,0,0,0,0,0,0,0,-32293,0,0,0,4272,0,21683,0
21607,-434,-8254,480,-49,14,18,8222,1,-3,1,0,37182,98,26,79,0,0,0,0,0,0,0,0,-32293,0,0,0,4272,0,21693,0
21617,-424,-8222,510,-47,10,9,8221,0,-4,2,0,37181,89,26,79,0,0,0,0,0,0,0,0,-32292,0,0,0,4272,0,21703,0
21627,-420,-8212,482,-52,18,7,8222,-1,-1,1,0,37182,79,26,79,0,0,0,0,0,0,0,0,-32293,0,0,0,4272,0,21713,0
21637,-412,-8252,482,-50,17,5,8223,1,1,1,0,37181,74,26,79,0,0,0,0,0,0,0,0,-32292,0,0,0,4272,0,21723,0
21647,-378,-8210,470,-52,9,4,8223,3,2,3,0,37180,88,26,79,0,0,0,0,0,0,0,0,-32293,0,0,0,4273,0,21733,0
21657,-356,-8190,460,-43,18,7,8222,0,2,0,0,37180,102,26,79,0,0,0,0,0,0,0,0,-32293,0,0,0,4272,0,21743,0
21667,-340,-8226,478,-48,14,9,8223,6,0,0,0,37184,99,26,79,0,0,0,0,0,0,0,0,-32292,0,0,0,4272,0,21753,0
21677,-386,-8222,470,-51,11,17,8223,0,2,2,0,37182,100,26,79,0,0,0,0,0,0,0,0,-32293,0,0,0,4272,0,21763,0
21687,-416,-8182,458,-49,14,20,8222,-1,1,1,0,37178,99,26,79,0,0,0,0,0,0,0,0,-32293,0,0,0,4272,0,21773,0
21697,-426,-8268,440,-52,16,20,8224,2,4,1,0,37178,104,26,79,0,0,0,0,0,0,0,0,-32292,0,0,0,4273,0,21783,0
21707,-452,-8228,466,-51,11,10,8222,2,-1,3,0,37180,93,26,79,0,0,0,0,0,0,0,0,-32293,0,0,0,4273,0,21793,0
21717,-438,-8208,464,-56,10,8,8222,0,2,3,0,37183,79,26,79,0,0,0,0,0,0,0,0,-32292,0,0,0,4273,0,21803,0
21727,-420,-8210,468,-48,12,7,8223,0,1,2,0,37182,88,26,79,0,0,0,0,0,0,0,0,-32293,0,0,0,4273,0,21813,0
21737,-424,-8216,472,-48,9,1,8222,0,-2,3,0,37183,103,26,79,0,0,0,0,0,0,0,0,-32293,0,0,0,4272,0,21823,0
21747,-412,-8240,490,-49,8,2,8221,-5,-5,2,0,37187,104,26,79,0,0,0,0,0,0,0,0,-32293,0,0,0,4273,0,21833,0
21757,-356,-8228,454,-49,15,2,8222,-5,0,1,0,37189,95,26,79,0,0,0,0,0,0,0,0,-32292,0,0,0,4273,0,21843,0
21767,-348,-8256,432,-49,8,10,8223,1,-2,3,0,37187,91,26,79,0,0,0,0,0,0,0,0,-32292,0,0,0,4272,0,21853,0
21777,-344,-8196,460,-44,18,13,8223,-3,-1,2,0,37182,98,26,79,0,0,0,0,0,0,0,0,-32292,0,0,0,4272,0,21863,0
21787,-368,-8210,482,-44,11,19,8223,2,-3,1,0,37180,102,26,79,0,0,0,0,0,0,0,0,-32293,0,0,0,4273,0,21873,0
21797,-392,-8228,492,-50,12,28,8223,4,3,2,0,37183,91,26,79,0,0,0,0,0,0,0,0,-32292,0,0,0,4273,0,21883,0
21807,-428,-8236,502,-51,8,25,8221,-2,1,2,0,37183,79,26,79,0,0,0,0,0,0,0,0,-32292,0,0,0,4274,0,21893,0
21817,-438,-8212,476,-42,12,17,8223,2,1,2,0,37181,94,26,79,0,0,0,0,0,0,0,0,-32293,0,0,0,4273,0,21903,0
21827,-442,-8260,472,-44,15,9,8222,2,4,3,0,37182,100,26,79,0,0,0,0,0,0,0,0,-32292,0,0,0,4274,0,21914,0
21837,-434,-8220,476,-43,14,7,8222,1,2,1,0,37184,94,26,79,0,0,0,0,0,0,0,0,-32293,0,0,0,4274,0,21934,0
21847,-416,-8212,508,-51,14,2,8222,-2,2,4,0,37184,92,26,79,0,0,0,0,0,0,0,0,-32293,0,0,0,4274,0,21954,0
21857,-408,-8200,496,-50,12,1,8222,2,-2,3,0,37186,98,26,79,0,0,0,0,0,0,0,0,-32293,0,0,0,4273,0,21974,0
21867,-392,-8228,486,-48,14,-2,8223,1,0,1,0,37185,113,26,79,0,0,0,0,0,0,0,0,-32293,0,0,0,4274,0,21994,0
21877,-390,-8190,458,-50,15,2,8222,4,6,2,0,37187,115,26,79,0,0,0,0,0,0,0,0,-32293,0,0,0,4274,0,22014,0
21887,-328,-8236,454,-51,15,0,8223,0,2,2,0,37186,98,26,79,0,0,0,0,0,0,0,0,-32292,0,0,0,4273,0,22034,0
21897,-346,-8222,484,-50,11,13,8223,6,3,3,0,37185,103,26,79,0,0,0,0,0,0,0,0,-32292,0,0,0,4273,0,22054,0
21907,-392,-8230,468,-43,12,17,8222,-7,-3,1,0,37183,100,26,79,0,0,0,0,0,0,0,0,-32293,0,0,0,4274,0,22075,0
21917,-418,-8246,472,-51,13,12,8223,1,1,2,0,37183,99,26,79,0,0,0,0,0,0,0,0,-32293,0,0,0,4274,0,22095,0
21927,-388,-8208,486,-49,16,10,8223,5,4,3,0,37186,83,26,79,0,0,0,0,0,0,0,0,-32292,0,0,0,4274,0,22115,0
21937,-392,-8196,462,-45,15,14,8222,-2,2,2,0,37188,84,26,79,0,0,0,0,0,0,0,0,-32293,0,0,0,4273,0,22136,0
21947,-382,-8234,470,-48,16,10,8222,0,2,1,0,37187,95,26,79,0,0,0,0,0,0,0,0,-32293,0,0,0,4274,0,22158,0
21957,-432,-8228,496,-46,14,15,8222,-1,0,2,0,37184,104,26,79,0,0,0,0,0,0,0,0,-32293,0,0,0,4273,0,22178,0
21967,-402,-8228,486,-49,12,12,8222,-2,-2,2,0,37185,97,26,79,0,0,0,0,0,0,0,0,-32293,0,0,0,4273,0,22198,0
21977,-416,-8254,492,-51,15,8,8222,0,3,3,0,37187,93,26,79,0,0,0,0,0,0,0,0,-32293,0,0,0,4274,0,22218,0
21987,-398,-8228,464,-49,10,12,8223,-1,0,1,0,37189,96,26,79,0,0,0,0,0,0,0,0,-32293,0,0,0,4274,0,22238,0
21997,-388,-8206,446,-50,15,10,8221,-5,4,2,0,37186,103,26,79,0,0,0,0,0,0,0,0,-32293,0,0,0,4274,0,22258,0
22007,-392,-8234,454,-48,12,7,8223,3,-1,2,0,37184,102,26,79,0,0,0,0,0,0,0,0,-32294,0,0,0,4274,0,22278,0
22017,-400,-8244,476,-47,12,13,8222,-3,-1,3,0,37185,98,26,79,0,0,0,0,0,0,0,0,-32292,0,0,0,4273,0,22298,0
22027,-412,-8192,462,-52,13,10,8222,3,3,1,0,37186,97,26,79,0,0,0,0,0,0,0,0,-32293,0,0,0,4274,0,22318,0
22037,-370,-8210,458,-53,16,16,8222,-4,-4,1,0,37185,110,26,79,0,0,0,0,0,0,0,0,-32292,0,0,0,4273,0,22338,0
22047,-364,-8228,446,-48,21,13,8222,-5,0,2,0,37185,121,26,79,0,0,0,0,0,0,0,0,-32293,0,0,0,4274,0,22358,0
22057,-386,-8194,482,-46,15,21,8223,0,-2,2,0,37184,111,26,79,0,0,0,0,0,0,0,0,-32293,0,0,0,4274,0,22378,0
22067,-376,-8254,456,-47,19,19,8222,-4,-2,2,0,37184,105,26,79,0,0,0,0,0,0,0,0,-32293,0,0,0,4274,0,22398,0
22077,-392,-8230,482,-45,10,26,8222,0,0,2,0,37192,100,26,79,0,0,0,0,0,0,0,0,-32293,0,0,0,4275,0,22418,0
22087,-380,-8200,468,-47,14,25,8223,2,-1,1,0,37191,91,26,79,0,0,0,0,0,0,0,0,-32293,0,0,0,4274,0,22438,0
22097,-370,-8234,458,-43,16,37,8222,0,0,2,0,37190,88,26,79,0,0,0,0,0,0,0,0,-32293,0,0,0,4275,0,22458,0
22107,-408,-8236,490,-43,11,36,8223,0,1,2,0,37183,83,26,79,0,0,0,0,0,0,0,0,-32292,0,0,0,4276,0,22481,0
22117,-442,-8206,488,-46,13,34,8221,-7,-2,3,0,37186,99,26,79,0,0,0,0,0,0,0,0,-32293,0,0,0,4276,0,22499,0
22127,-464,-8210,448,-44,12,35,8223,9,-1,3,0,37186,100,26,79,0,0,0,0,0,0,0,0,-32293,0,0,0,4277,0,22519,0
22137,-460,-8226,458,-42,11,24,8223,7,1,1,0,37184,102,26,79,0,0,0,0,0,0,0,0,-32293,0,0,0,4277,0,22539,0
22147,-418,-8210,460,-39,16,24,8223,7,4,1,0,37182,99,26,79,0,0,0,0,0,0,0,0,-32293,0,0,0,4277,0,22559,0
22157,-414,-8244,474,-43,17,18,8222,-1,1,3,0,37183,103,26,79,0,0,0,0,0,0,0,0,-32293,0,0,0,4277,0,22579,0
22167,-406,-8236,498,-42,12,20,8222,-1,2,1,0,37183,112,26,79,0,0,0,0,0,0,0,0,-32293,0,0,0,4276,0,22599,0
22177,-406,-8214,500,-45,11,21,8223,0,-4,1,0,37187,113,26,79,0,0,0,0,0,0,0,0,-32293,0,0,0,4278,0,22619,0
22187,-398,-8248,506,-42,17,28,8222,1,0,2,0,37184,112,26,79,0,0,0,0,0,0,0,0,-32292,0,0,0,4277,0,22639,0
22197,-384,-8236,484,-40,10,20,8223,0,-1,3,0,37186,120,26,79,0,0,0,0,0,0,0,0,-32293,0,0,0,4279,0,22659,0
22207,-374,-8196,458,-39,8,29,8222,-1,-3,1,0,37180,126,26,79,0,0,0,0,0,0,0,0,-32293,0,0,0,4279,0,22679,0
22217,-382,-8250,450,-37,9,31,8224,7,3,2,0,37180,117,26,79,0,0,0,0,0,0,0,0,-32293,0,0,0,4279,0,22699,0
22227,-408,-8234,456,-44,11,31,8222,1,1,3,0,37177,109,26,79,0,0,0,0,0,0,0,0,-32292,0,0,0,4279,0,22719,0
22237,-410,-8216,480,-33,13,35,8223,1,1,1,0,37179,108,26,79,0,0,0,0,0,0,0,0,-32292,0,0,0,4279,0,22739,0
22247,-442,-8240,482,-34,6,33,8224,3,-2,2,0,37184,112,26,79,0,0,0,0,0,0,0,0,-32292,0,0,0,4279,0,22759,0
22257,-436,-8242,470,-46,15,31,8222,3,2,2,0,37193,115,26,79,0,0,0,0,0,0,0,0,-32292,0,0,0,4279,0,22779,0
22267,-422,-8244,472,-38,11,28,8222,-3,-2,2,0,37192,128,26,79,0,0,0,0,0,0,0,0,-32292,0,0,0,4280,0,22799,0
22277,-434,-8240,454,-36,11,32,8222,0,1,2,0,37189,124,26,79,0,0,0,0,0,0,0,0,-32293,0,0,0,4281,0,22819,0
22287,-450,-8208,478,-41,16,25,8223,2,2,2,0,37180,117,26,79,0,0,0,0,0,0,0,0,-32293,0,0,0,4281,0,22839,0
22297,-460,-8232,496,-44,12,26,8222,-5,0,2,0,37181,111,26,79,0,0,0,0,0,0,0,0,-32293,0,0,0,4281,0,22859,0
22307,-426,-8196,474,-40,11,21,8222,5,-5,2,0,37183,111,26,79,0,0,0,0,0,0,0,0,-32293,0,0,0,4281,0,22879,0
22317,-428,-8248,496,-40,10,24,8223,2,2,2,0,37180,110,26,79,0,0,0,0,0,0,0,0,-32293,0,0,0,4281,0,22899,0
22327,-404,-8240,478,-38,16,27,8221,-4,-2,2,0,37179,104,26,79,0,0,0,0,0,0,0,0,-32293,0,0,0,4282,0,22919,0
22337,-378,-8236,464,-42,12,29,8223,7,-3,2,0,37177,112,26,79,0,0,0,0,0,0,0,0,-32292,0,0,0,4282,0,22939,0
22347,-390,-8256,474,-40,5,36,8222,-5,-2,2,0,37176,121,26,79,0,0,0,0,0,0,0,0,-32293,0,0,0,4282,0,22959,0
22357,-430,-8228,490,-39,12,39,8222,0,-3,3,0,37176,127,26,79,0,0,0,0,0,0,0,0,-32293,0,0,0,4283,0,22979,0
22367,-418,-8238,478,-36,11,42,8222,-3,0,1,0,37175,123,26,79,0,0,0,0,0,0,0,0,-32293,0,0,0,4283,0,22999,0
22377,-468,-8210,492,-44,10,38,8222,1,1,1,0,37176,119,26,79,0,0,0,0,0,0,0,0,-32293,0,0,0,4284,0,23019,0
22387,-484,-8224,478,-47,17,34,8223,0,3,1,0,37176,115,26,79,0,0,0,0,0,0,0,0,-32293,0,0,0,4284,0,23039,0
22397,-478,-8232,478,-43,10,29,8223,1,1,1,0,37184,117,26,79,0,0,0,0,0,0,0,0,-32293,0,0,0,4284,0,23059,0
22407,-460,-8200,480,-39,9,21,8222,-2,2,1,0,37182,118,26,79,0,0,0,0,0,0,0,0,-32293,0,0,0,4284,0,23080,0
22417,-288,-8178,466,-41,23,1,8298,276,165,847,1064,37181,116,26,79,0,0,0,0,0,0,0,0,-32293,0,0,0,4284,0,23100,0
22427,-198,-8212,492,-44,33,-2,8543,654,510,959,2064,37173,113,26,79,0,0,0,0,0,0,0,0,-32292,0,0,0,4285,0,23120,0
22437,-376,-8238,506,-46,1,11,8965,1043,662,1014,2928,37168,128,26,79,0,0,0,0,0,0,0,0,-32293,0,0,0,4284,0,23140,0
22447,-354,-8224,514,-56,10,16,9541,1361,632,1002,3776,37156,149,26,79,0,0,0,0,0,0,0,0,-32292,0,0,0,4285,0,23160,0
22457,-488,-8188,396,-58,15,14,10256,1662,557,994,4584,37142,172,26,79,0,0,0,0,0,0,0,0,-32293,0,0,0,4286,0,23180,0
22467,-340,-8228,420,-53,24,7,11120,2014,558,981,5400,37129,196,26,79,0,0,0,0,0,0,0,0,-32293,0,0,0,4286,0,23200,0
22477,-328,-8224,510,-31,29,18,12163,2423,645,1051,6248,37116,221,26,79,0,0,0,0,0,0,0,0,-32293,0,0,0,4285,0,23220,0
22487,-384,-8188,442,-48,35,23,13379,2770,678,1006,7080,37104,253,26,79,0,0,0,0,0,0,0,0,-32292,0,0,0,4286,0,23240,0
22497,-450,-8250,438,-71,26,26,14714,3017,539,992,7624,37098,268,26,79,0,0,0,0,0,0,0,0,-32293,0,0,0,4286,0,23260,0
22507,-460,-8224,556,-70,29,14,16206,3411,535,1042,8376,37084,289,26,79,0,0,0,0,0,0,0,0,-32293,0,0,0,4286,0,23280,0
22517,-416,-8238,356,-34,-48,12,17812,3551,527,987,8768,37069,313,26,79,0,0,0,0,0,0,0,0,-32293,0,0,0,4286,0,23300,0
22527,-334,-8230,558,-39,-35,19,19444,3657,234,920,9384,37050,343,26,79,0,0,0,0,0,0,0,0,-32293,0,0,0,4286,0,23320,0
22537,-322,-8248,398,-22,25,31,21249,4091,418,1059,10144,37043,358,26,79,0,0,0,0,0,0,0,0,-32292,0,0,0,4286,0,23340,0
22547,-484,-8226,458,-28,18,24,23175,4323,578,961,10896,37028,379,26,79,0,0,0,0,0,0,0,0,-32293,0,0,0,4287,0,23360,0
22557,-524,-8268,560,-15,-7,18,25300,4795,615,1113,11520,37015,390,26,79,0,0,0,0,0,0,0,0,-32293,0,0,0,4287,0,23380,0
22567,-606,-8190,170,-89,15,45,27463,4775,445,852,12072,36994,433,26,79,0,0,0,0,0,0,0,0,-32293,0,0,0,4288,0,23400,0
22577,31524,-4542,1508,-397,-2931,5060,29634,4453,28,1463,9584,36989,445,26,79,0,0,0,0,0,0,0,0,-32293,0,0,0,4371,17,23420,0
22587,26816,-13418,5700,-103,-2303,3340,30815,1594,-2162,1241,1352,36966,485,26,79,0,0,0,0,0,0,0,0,-32293,0,0,0,4471,6,23440,0
22597,-13206,-9172,-4248,-306,-185,-392,30506,-1505,-5053,545,-3168,36981,436,26,79,0,0,0,0,0,0,0,0,-32293,0,0,0,4459,-4,23460,0
22607,-19002,-6846,-9120,139,2284,-2390,29427,-2542,-4151,675,-4032,37029,329,26,79,0,0,0,0,0,0,0,0,-32292,0,0,0,4379,-9,23480,0
22617,-4554,-9134,2176,777,3516,-1390,28420,-1992,-988,904,-2200,37102,166,26,79,0,0,0,0,0,0,0,0,-32293,0,0,0,4323,-3,23500,0
22627,13214,-5546,4638,655,738,-1020,27784,-1142,1020,1011,-280,37160,50,26,79,0,0,0,0,0,0,0,0,-32292,0,0,0,4308,-1,23520,0
22637,4284,-8392,3484,139,-896,350,27552,-210,1511,1355,344,37174,23,26,79,0,0,0,0,0,0,0,0,-32294,0,0,0,4309,0,23540,0
22647,-3308,-8018,4156,-273,-1002,614,27660,354,1418,837,1320,37178,40,26,79,0,0,0,0,0,0,0,0,-32292,0,0,0,4317,1,23560,0
22657,-5592,-9972,1864,-454,199,-85,27967,803,958,1017,2544,37171,69,26,79,0,0,0,0,0,0,0,0,-32292,0,0,0,4325,0,23580,0
22667,-3404,-7118,-2210,-383,631,-610,28490,1286,794,1042,3640,37158,109,26,79,0,0,0,0,0,0,0,0,-32293,0,0,0,4317,-1,23600,0
22677,4268,-6162,10,-4,126,925,29134,1345,619,1191,3040,37142,149,26,79,0,0,0,0,0,0,0,0,-32293,0,0,0,4336,4,23620,0
22687,14790,-8856,2462,-95,-886,854,29454,349,-531,1011,224,37128,190,26,79,0,0,0,0,0,0,0,0,-32292,0,0,0,4365,2,23640,0
22697,-4900,-9642,584,-153,-489,437,29322,-453,-1582,951,-48,37124,196,26,79,0,0,0,0,0,0,0,0,-32292,0,0,0,4362,-1,23660,0
22707,-11574,-7350,-2130,-147,378,-144,29137,-316,-840,1024,128,37139,154,26,79,0,0,0,0,0,0,0,0,-32293,0,0,0,4349,-1,23680,0
22717,-842,-8252,-1000,47,863,-386,29114,49,320,974,368,37161,101,26,79,0,0,0,0,0,0,0,0,-32292,0,0,0,4343,0,23700,0
22727,3146,-8964,42,277,780,-156,29124,-22,359,1028,224,37175,72,26,79,0,0,0,0,0,0,0,0,-32293,0,0,0,4341,0,23720,0
22737,826,-9148,1896,93,-438,219,29105,-18,-36,974,288,37171,80,26,79,0,0,0,0,0,0,0,0,-32293,0,0,0,4338,0,23740,0
22747,-1568,-7706,1412,-119,-978,366,29130,68,53,998,344,37171,88,26,79,0,0,0,0,0,0,0,0,-32293,0,0,0,4345,0,23760,0
22757,-2014,-7578,6,-66,22,95,29154,45,69,1001,312,37169,92,26,79,0,0,0,0,0,0,0,0,-32293,0,0,0,4348,0,23780,0
22767,-1058,-8276,28,-31,243,-47,29174,44,-16,998,336,37171,95,26,79,0,0,0,0,0,0,0,0,-32293,0,0,0,4348,0,23800,0
22777,940,-8200,716,27,159,14,29177,-9,-31,1007,280,37169,92,26,79,0,0,0,0,0,0,0,0,-32293,0,0,0,4348,0,23820,0
22787,270,-8200,1150,-26,-55,125,29176,10,-39,989,312,37171,97,26,79,0,0,0,0,0,0,0,0,-32293,0,0,0,4348,0,23840,0
22797,-1066,-8186,1038,-109,-99,147,29188,29,23,996,336,37174,105,26,79,0,0,0,0,0,0,0,0,-32293,0,0,0,4349,0,23860,0
22807,-1462,-8074,496,-122,-24,78,29205,27,24,1002,312,37178,106,26,79,0,0,0,0,0,0,0,0,-32293,0,0,0,4351,0,23880,0
22817,-976,-8198,-76,-77,70,-7,29208,12,-17,1005,288,37177,112,26,79,0,0,0,0,0,0,0,0,-32293,0,0,0,4351,0,23900,0
22827,-552,-8108,14,-32,62,-44,29208,3,-33,996,272,37176,120,26,79,0,0,0,0,0,0,0,0,-32292,0,0,0,4352,0,23920,0
22837,-442,-8280,304,-14,-1,-9,29205,-4,-10,997,280,37176,122,26,79,0,0,0,0,0,0,0,0,-32293,0,0,0,4351,0,23940,0
22847,-702,-8350,594,-17,-5,-1,29205,2,6,998,280,37177,120,26,79,0,0,0,0,0,0,0,0,-32292,0,0,0,4351,0,23960,0
22857,-526,-8206,708,-35,31,-25,29204,-3,4,998,288,37178,117,26,79,0,0,0,0,0,0,0,0,-32293,0,0,0,4350,0,23980,0
22867,-304,-8220,640,-44,34,-13,29202,-4,-4,997,280,37177,117,26,79,0,0,0,0,0,0,0,0,-32293,0,0,0,4351,0,24000,0
22877,-370,-8298,590,-62,6,46,29204,2,1,995,296,37177,109,26,79,0,0,0,0,0,0,0,0,-32293,0,0,0,4351,0,24020,0
22887,-430,-8186,444,-52,-2,41,29205,3,6,1002,296,37178,103,26,79,0,0,0,0,0,0,0,0,-32293,0,0,0,4351,0,24040,0
22897,-668,-8220,324,-35,19,42,29204,-1,2,1002,296,37178,108,26,79,0,0,0,0,0,0,0,0,-32293,0,0,0,4351,0,24060,0
22907,-688,-8272,458,-34,21,47,29207,4,-7,1001,296,37180,108,26,79,0,0,0,0,0,0,0,0,-32292,0,0,0,4351,0,24080,0
22917,-480,-8142,522,-27,21,49,29212,12,4,996,296,37191,103,26,79,0,0,0,0,0,0,0,0,-32292,0,0,0,4353,0,24100,0
22927,-546,-8216,572,-47,5,46,29222,33,11,988,336,37193,104,26,79,0,0,0,0,0,0,0,0,-32292,0,0,0,4353,0,24120,0
22937,-674,-8298,534,-49,-28,89,29243,53,26,999,344,37193,109,26,79,0,0,0,0,0,0,0,0,-32293,0,0,0,4352,0,24140,0
22947,-516,-8230,500,-50,-19,74,29260,27,22,1005,296,37183,122,26,79,0,0,0,0,0,0,0,0,-32293,0,0,0,4356,0,24160,0
22957,-878,-8168,352,-39,32,6,29257,-11,-49,1002,264,37179,125,26,79,0,0,0,0,0,0,0,0,-32293,0,0,0,4356,0,24180,0
22967,-758,-8210,416,-31,31,22,29258,11,-31,1001,288,37177,126,26,79,0,0,0,0,0,0,0,0,-32293,0,0,0,4355,0,24200,0
22977,-492,-8156,540,-39,26,24,29257,-3,4,1003,272,37180,126,26,79,0,0,0,0,0,0,0,0,-32293,0,0,0,4355,0,24220,0
22987,-514,-8200,600,-30,10,33,29259,2,-6,1000,280,37182,128,26,79,0,0,0,0,0,0,0,0,-32293,0,0,0,4357,0,24240,0
22997,-734,-8222,496,-52,21,43,29259,6,2,1001,280,37180,126,26,79,0,0,0,0,0,0,0,0,-32293,0,0,0,4355,0,24260,0
23007,-774,-8278,468,-43,27,35,29261,4,1,996,280,37178,127,26,79,0,0,0,0,0,0,0,0,-32293,0,0,0,4355,0,24280,0
23017,-554,-8098,364,-33,35,15,29265,18,14,1000,296,37180,130,26,79,0,0,0,0,0,0,0,0,-32292,0,0,0,4356,0,24300,0
23027,-522,-8242,470,-32,12,18,29267,1,0,998,280,37182,134,26,79,0,0,0,0,0,0,0,0,-32293,0,0,0,4357,0,24321,0
23037,-834,-8230,652,-25,-2,13,29269,4,-6,997,272,37182,130,26,79,0,0,0,0,0,0,0,0,-32293,0,0,0,4357,0,24341,0
23047,-892,-8180,614,-48,4,-12,29270,5,-2,1000,296,37179,125,26,79,0,0,0,0,0,0,0,0,-32293,0,0,0,4357,0,24361,0
23057,-744,-8212,608,-54,5,-49,29269,-3,-5,1002,288,37178,125,26,79,0,0,0,0,0,0,0,0,-32292,0,0,0,4355,0,24381,0
23067,-724,-8230,548,-56,-3,-35,29268,5,-3,1000,288,37178,122,26,79,0,0,0,0,0,0,0,0,-32293,0,0,0,4355,0,24401,0
23077,-630,-8172,524,-58,-7,-53,29266,0,6,1000,280,37178,125,26,79,0,0,0,0,0,0,0,0,-32293,0,0,0,4355,0,24421,0
23087,-598,-8198,528,-62,-1,-65,29263,-6,-2,1001,272,37177,120,26,79,0,0,0,0,0,0,0,0,-32293,0,0,0,4357,0,24441,0
23097,-638,-8242,558,-77,-5,-54,29261,-2,-10,1006,272,37176,126,26,79,0,0,0,0,0,0,0,0,-32293,0,0,0,4357,0,24461,0
23107,-532,-8226,518,-80,-10,-58,29258,-6,-1,999,248,37177,122,26,79,0,0,0,0,0,0,0,0,-32293,0,0,0,4356,0,24481,0
23117,-466,-8144,486,-91,-5,-70,29255,-8,0,996,272,37179,118,26,79,0,0,0,0,0,0,0,0,-32293,0,0,0,4355,0,24501,0
23127,-592,-8224,470,-95,-11,-58,29249,-8,-6,996,280,37184,126,26,79,0,0,0,0,0,0,0,0,-32293,0,0,0,4355,0,24521,0
23137,-530,-8168,458,-79,1,-58,29248,-4,4,1000,288,37184,123,26,79,0,0,0,0,0,0,0,0,-32293,0,0,0,4354,0,24542,0
23147,-438,-8154,422,-74,9,-59,29245,-3,5,999,280,37181,130,26,79,0,0,0,0,0,0,0,0,-32293,0,0,0,4354,0,24562,0
23157,-494,-8274,466,-66,-2,-42,29238,-16,-7,1001,256,37176,121,26,79,0,0,0,0,0,0,0,0,-32293,0,0,0,4353,0,24582,0
23167,-492,-8190,488,-65,-4,-36,29234,-11,0,999,256,37181,120,26,79,0,0,0,0,0,0,0,0,-32293,0,0,0,4353,0,24601,0
23177,-538,-8216,452,-55,1,-36,29231,-6,2,998,256,37183,111,26,79,0,0,0,0,0,0,0,0,-32293,0,0,0,4353,0,24621,0
23187,-556,-8242,478,-52,4,-30,29228,-11,-5,994,280,37185,112,26,79,0,0,0,0,0,0,0,0,-32293,0,0,0,4352,0,24642,0
23197,-638,-8206,464,-54,15,-40,29219,-19,-4,1005,256,37185,113,26,79,0,0,0,0,0,0,0,0,-32293,0,0,0,4353,0,24661,0
23207,-550,-8186,472,-47,23,-58,29203,-38,-14,1001,240,37184,118,26,79,0,0,0,0,0,0,0,0,-32293,0,0,0,4351,0,24681,0
23217,-752,-8170,436,-52,37,-83,29182,-53,-33,995,256,37186,107,26,79,0,0,0,0,0,0,0,0,-32293,0,0,0,4348,0,24701,0
23227,-646,-8196,548,-55,25,-45,29176,2,15,990,312,37196,86,26,79,0,0,0,0,0,0,0,0,-32293,0,0,0,4347,0,24721,0
23237,-246,-8260,556,-59,-7,-33,29176,-5,50,1009,280,37193,84,26,79,0,0,0,0,0,0,0,0,-32293,0,0,0,4348,0,24742,0
23247,-552,-8162,484,-70,-9,-12,29175,0,7,995,296,37192,86,26,79,0,0,0,0,0,0,0,0,-32293,0,0,0,4347,0,24762,0
23257,-526,-8206,432,-56,13,-8,29176,1,0,1003,304,37189,91,26,79,0,0,0,0,0,0,0,0,-32293,0,0,0,4349,0,24782,0
23267,-434,-8214,426,-53,19,-13,29174,-7,-1,1001,288,37191,86,26,79,0,0,0,0,0,0,0,0,-32293,0,0,0,4348,0,24802,0
23277,-372,-8228,472,-48,17,10,29173,-5,-5,996,296,37194,88,26,79,0,0,0,0,0,0,0,0,-32293,0,0,0,4348,0,24822,0
23287,-470,-8216,460,-50,15,23,29172,2,-2,1000,288,37194,80,26,79,0,0,0,0,0,0,0,0,-32293,0,0,0,4347,0,24842,0
23297,-522,-8238,432,-47,21,24,29172,-6,2,997,288,37195,71,26,79,0,0,0,0,0,0,0,0,-32293,0,0,0,4348,0,24862,0
23307,-468,-8188,412,-39,27,21,29172,-2,-4,1002,304,37201,68,26,79,0,0,0,0,0,0,0,0,-32292,0,0,0,4348,0,24882,0
23317,-458,-8220,446,-38,23,34,29173,-4,-1,1000,296,37209,78,26,79,0,0,0,0,0,0,0,0,-32293,0,0,0,4348,0,24902,0
23327,-512,-8216,482,-32,16,39,29174,5,2,1000,288,37205,84,26,79,0,0,0,0,0,0,0,0,-32293,0,0,0,4347,0,24922,0
23337,-570,-8210,502,-35,20,31,29174,0,2,994,296,37202,86,26,79,0,0,0,0,0,0,0,0,-32293,0,0,0,4348,0,24942,0
23347,-592,-8208,466,-38,17,35,29175,4,0,1000,296,37201,80,26,79,0,0,0,0,0,0,0,0,-32293,0,0,0,4348,0,24962,0
23357,-588,-8222,454,-29,27,33,29175,3,6,1002,296,37205,74,26,79,0,0,0,0,0,0,0,0,-32293,0,0,0,4348,0,24982,0
23367,-540,-8206,474,-36,22,31,29177,5,1,1004,288,37198,73,26,79,0,0,0,0,0,0,0,0,-32293,0,0,0,4348,0,25002,0
23377,-580,-8204,496,-37,24,36,29177,4,1,993,296,37194,70,26,79,0,0,0,0,0,0,0,0,-32293,0,0,0,4348,0,25022,0
23387,-554,-8220,486,-44,21,39,29179,3,4,995,312,37195,73,26,79,0,0,0,0,0,0,0,0,-32293,0,0,0,4348,0,25042,0
23397,-588,-8206,480,-37,21,32,29177,-8,0,999,296,37197,67,26,79,0,0,0,0,0,0,0,0,-32293,0,0,0,4349,0,25062,0
23407,-582,-8202,506,-32,18,31,29180,3,0,1001,296,37199,71,26,79,0,0,0,0,0,0,0,0,-32293,0,0,0,4348,0,25082,0
23417,-602,-8182,484,-32,23,37,29180,3,-3,999,312,37195,74,26,79,0,0,0,0,0,0,0,0,-32293,0,0,0,4349,0,25102,0
23427,-554,-8186,490,-37,25,26,29181,3,-3,1001,288,37192,70,26,79,0,0,0,0,0,0,0,0,-32293,0,0,0,4349,0,25122,0
23437,-592,-8214,498,-44,21,21,29183,1,2,999,296,37202,62,26,79,0,0,0,0,0,0,0,0,-32293,0,0,0,4349,0,25142,0
23447,-582,-8228,522,-38,20,24,29183,-2,0,996,304,37204,68,26,79,0,0,0,0,0,0,0,0,-32293,0,0,0,4348,0,25162,0
23457,-604,-8182,496,-38,19,17,29183,-3,-1,1002,288,37201,73,26,79,0,0,0,0,0,0,0,0,-32293,0,0,0,4349,0,25182,0
23467,-616,-8212,494,-42,12,10,29184,-2,0,1001,296,37195,67,26,79,0,0,0,0,0,0,0,0,-32293,0,0,0,4349,0,25202,0
23477,-642,-8214,494,-43,8,8,29186,7,4,998,288,37189,63,26,79,0,0,0,0,0,0,0,0,-32293,0,0,0,4350,0,25222,0
23487,-600,-8238,510,-38,14,1,29184,0,0,1000,288,37194,65,26,79,0,0,0,0,0,0,0,0,-32293,0,0,0,4349,0,25242,0
23497,-594,-8218,508,-45,15,-4,29184,-2,1,1000,288,37195,80,26,79,0,0,0,0,0,0,0,0,-32293,0,0,0,4349,0,25262,0
23507,-530,-8228,488,-43,14,-3,29184,-3,-1,998,296,37198,83,26,79,0,0,0,0,0,0,0,0,-32293,0,0,0,4349,0,25282,0
23517,-440,-8240,494,-47,13,-2,29185,-1,-2,1002,304,37198,68,26,79,0,0,0,0,0,0,0,0,-32293,0,0,0,4348,0,25302,0
23527,-540,-8208,478,-48,12,-5,29183,7,-3,997,296,37205,60,26,79,0,0,0,0,0,0,0,0,-32293,0,0,0,4348,0,25322,0
23537,-524,-8182,432,-47,10,6,29183,-5,5,1001,296,37215,70,26,79,0,0,0,0,0,0,0,0,-32293,0,0,0,4349,0,25342,0
23547,-564,-8228,472,-40,7,9,29185,11,0,1002,304,37221,79,26,79,0,0,0,0,0,0,0,0,-32293,0,0,0,4349,0,25362,0
23557,-658,-8198,516,-34,11,0,29184,5,3,999,288,37224,65,26,79,0,0,0,0,0,0,0,0,-32293,0,0,0,4348,0,25382,0
23567,-648,-8214,540,-43,6,4,29185,7,3,1004,296,37215,53,26,79,0,0,0,0,0,0,0,0,-32293,0,0,0,4349,0,25402,0
23577,-630,-8192,500,-48,6,-4,29184,-2,3,998,296,37207,57,26,79,0,0,0,0,0,0,0,0,-32293,0,0,0,4348,0,25422,0
23587,-548,-8218,486,-45,9,-7,29182,4,-4,1000,288,37198,58,26,79,0,0,0,0,0,0,0,0,-32293,0,0,0,4348,0,25443,0
23597,-578,-8216,484,-50,4,5,29182,0,0,1001,296,37191,56,26,79,0,0,0,0,0,0,0,0,-32293,0,0,0,4349,0,25462,0
23607,-536,-8260,480,-45,11,-3,29183,4,2,1000,288,37191,57,26,79,0,0,0,0,0,0,0,0,-32293,0,0,0,4349,0,25482,0
23617,-496,-8188,486,-51,9,-5,29183,7,6,1001,288,37195,64,26,79,0,0,0,0,0,0,0,0,-32293,0,0,0,4349,0,25502,0
23627,-550,-8204,456,-43,12,1,29182,-5,2,997,296,37197,75,26,79,0,0,0,0,0,0,0,0,-32293,0,0,0,4348,0,25522,0
23637,-496,-8222,482,-45,12,-2,29183,-1,2,997,288,37197,82,26,79,0,0,0,0,0,0,0,0,-32293,0,0,0,4348,0,25543,0
23647,-540,-8204,502,-40,8,-2,29182,2,-4,997,288,37200,76,26,79,0,0,0,0,0,0,0,0,-32293,0,0,0,4348,0,25562,0
23657,-552,-8192,486,-48,6,0,29181,-1,-1,996,288,37204,75,26,79,0,0,0,0,0,0,0,0,-32293,0,0,0,4348,0,25582,0
23667,-560,-8218,476,-42,6,5,29181,0,1,997,296,37205,74,26,79,0,0,0,0,0,0,0,0,-32293,0,0,0,4348,0,25602,0
23677,-532,-8222,522,-40,13,-4,29182,0,-1,997,288,37201,69,26,79,0,0,0,0,0,0,0,0,-32293,0,0,0,4348,0,25622,0
23687,-530,-8208,492,-39,3,-1,29182,0,-3,999,288,37189,62,26,79,0,0,0,0,0,0,0,0,-32293,0,0,0,4348,0,25643,0
23697,-528,-8222,488,-47,6,0,29180,-6,0,999,296,37191,52,26,79,0,0,0,0,0,0,0,0,-32293,0,0,0,4348,0,25663,0
23707,-592,-8206,504,-46,8,-3,29180,-3,-5,1000,288,37196,59,26,79,0,0,0,0,0,0,0,0,-32293,0,0,0,4349,0,25683,0
23717,-538,-8204,486,-43,8,-10,29181,-6,-2,999,288,37199,67,26,79,0,0,0,0,0,0,0,0,-32293,0,0,0,4348,0,25702,0
23727,-600,-8216,486,-46,10,-9,29180,-6,-4,995,296,37197,67,26,79,0,0,0,0,0,0,0,0,-32293,0,0,0,4347,0,25722,0
23737,-552,-8220,496,-43,11,-11,29180,-4,0,1000,296,37195,64,26,79,0,0,0,0,0,0,0,0,-32293,0,0,0,4348,0,25743,0
23747,-542,-8146,494,-47,14,-14,29180,1,0,997,296,37198,66,26,79,0,0,0,0,0,0,0,0,-32293,0,0,0,4348,0,25763,0
23757,-522,-8228,512,-46,9,-14,29179,0,4,999,288,37204,78,26,79,0,0,0,0,0,0,0,0,-32292,0,0,0,4348,0,25783,0
23767,-544,-8222,518,-48,11,-10,29179,5,-1,1000,296,37198,76,26,79,0,0,0,0,0,0,0,0,-32293,0,0,0,4349,0,25803,0
23777,-558,-8214,498,-46,6,-7,29178,-1,0,995,288,37193,62,26,79,0,0,0,0,0,0,0,0,-32293,0,0,0,4348,0,25823,0
23787,-510,-8252,494,-43,9,-12,29176,-1,-1,1002,304,37196,64,26,79,0,0,0,0,0,0,0,0,-32293,0,0,0,4347,0,25843,0
23797,-504,-8188,506,-42,9,-9,29177,-5,3,1003,296,37199,72,26,79,0,0,0,0,0,0,0,0,-32293,0,0,0,4348,0,25862,0
23807,-516,-8204,506,-44,7,-6,29178,7,1,999,288,37200,86,26,79,0,0,0,0,0,0,0,0,-32293,0,0,0,4348,0,25882,0
23817,-476,-8234,436,-38,13,-4,29177,8,-4,1001,296,37197,71,26,79,0,0,0,0,0,0,0,0,-32293,0,0,0,4348,0,25902,0
23827,-548,-8234,496,-40,8,4,29176,0,-1,996,296,37199,65,26,79,0,0,0,0,0,0,0,0,-32293,0,0,0,4347,0,25922,0
23837,-568,-8174,496,-44,14,-1,29176,-2,-2,999,288,37203,61,26,79,0,0,0,0,0,0,0,0,-32293,0,0,0,4347,0,25943,0
23847,-600,-8228,504,-43,13,-4,29176,0,3,1001,296,37202,73,26,79,0,0,0,0,0,0,0,0,-32293,0,0,0,4347,0,25962,0
23857,-588,-8190,542,-48,5,-7,29175,-5,-6,997,288,37197,74,26,79,0,0,0,0,0,0,0,0,-32293,0,0,0,4348,0,25982,0
23867,-562,-8200,536,-51,7,-14,29175,-2,3,1001,296,37202,61,26,79,0,0,0,0,0,0,0,0,-32293,0,0,0,4348,0,26002,0
23877,-520,-8228,538,-58,6,-13,29174,3,-2,996,288,37209,55,26,79,0,0,0,0,0,0,0,0,-32293,0,0,0,4347,0,26022,0
23887,-510,-8236,510,-55,13,-18,29172,0,2,998,288,37209,64,26,79,0,0,0,0,0,0,0,0,-32293,0,0,0,4347,0,26042,0
23897,-544,-8186,516,-56,6,-10,29172,8,4,1001,296,37198,72,26,79,0,0,0,0,0,0,0,0,-32293,0,0,0,4347,0,26062,0
23907,-484,-8204,498,-60,15,-10,29170,-2,0,1001,304,37197,62,26,79,0,0,0,0,0,0,0,0,-32293,0,0,0,4347,0,26082,0
23917,-476,-8212,482,-56,13,-7,29169,-3,-1,1002,288,37202,62,26,79,0,0,0,0,0,0,0,0,-32293,0,0,0,4346,0,26102,0
23927,-520,-8202,480,-55,17,-12,29165,-6,-5,1002,288,37205,69,26,79,0,0,0,0,0,0,0,0,-32293,0,0,0,4346,0,26122,0
23937,-538,-8230,484,-55,19,-11,29161,-10,-5,998,272,37197,81,26,79,0,0,0,0,0,0,0,0,-32293,0,0,0,4346,0,26142,0
23947,-576,-8232,494,-58,20,-23,29152,-27,-4,1006,248,37194,74,26,79,0,0,0,0,0,0,0,0,-32293,0,0,0,4344,0,26162,0
23957,-502,-8204,466,-55,35,-53,29135,-53,-23,1006,216,37199,65,26,79,0,0,0,0,0,0,0,0,-32293,0,0,0,4344,0,26182,0
23967,-802,-8148,478,-48,57,-66,29112,-31,-30,986,256,37208,67,26,79,0,0,0,0,0,0,0,0,-32293,0,0,0,4342,0,26202,0
23977,-170,-8274,606,-61,13,-1,29116,14,48,993,288,37205,64,26,79,0,0,0,0,0,0,0,0,-32293,0,0,0,4342,0,26223,0
23987,-280,-8240,616,-60,-6,4,29113,-4,39,1000,296,37198,63,26,79,0,0,0,0,0,0,0,0,-32293,0,0,0,4342,0,26243,0
23997,-570,-8272,458,-78,2,12,29117,9,-10,1000,280,37198,46,26,79,0,0,0,0,0,0,0,0,-32293,0,0,0,4343,0,26263,0
24007,-674,-8190,376,-59,24,0,29113,1,8,1001,280,37197,47,26,79,0,0,0,0,0,0,0,0,-32293,0,0,0,4342,0,26283,0
24017,-384,-8216,458,-55,23,12,29112,-7,-5,1000,280,37197,56,26,79,0,0,0,0,0,0,0,0,-32293,0,0,0,4342,0,26303,0
24027,-408,-8180,486,-60,8,20,29114,0,2,998,288,37196,64,26,79,0,0,0,0,0,0,0,0,-32293,0,0,0,4343,0,26324,0
24037,-598,-8192,486,-55,11,25,29115,4,3,994,272,37192,61,26,79,0,0,0,0,0,0,0,0,-32293,0,0,0,4342,0,26344,0
24047,-608,-8236,438,-59,17,19,29115,3,-3,1001,264,37195,52,26,79,0,0,0,0,0,0,0,0,-32293,0,0,0,4342,0,26364,0
24057,-530,-8180,458,-47,16,11,29115,-1,0,1000,288,37198,61,26,79,0,0,0,0,0,0,0,0,-32293,0,0,0,4342,0,26384,0
24067,-436,-8202,482,-50,15,14,29116,5,-3,1002,272,37193,67,26,79,0,0,0,0,0,0,0,0,-32293,0,0,0,4343,0,26404,0
24077,-476,-8236,478,-45,8,20,29115,4,3,1001,280,37194,69,26,79,0,0,0,0,0,0,0,0,-32293,0,0,0,4343,0,26424,0
24087,-634,-8210,464,-44,11,21,29114,-2,3,998,272,37198,53,26,79,0,0,0,0,0,0,0,0,-32293,0,0,0,4343,0,26444,0
24097,-582,-8226,500,-43,16,9,29116,-1,-2,998,288,37205,60,26,79,0,0,0,0,0,0,0,0,-32293,0,0,0,4342,0,26464,0
24107,-546,-8234,504,-42,14,18,29116,-6,2,1001,288,37197,63,26,79,0,0,0,0,0,0,0,0,-32293,0,0,0,4342,0,26485,0
24117,-540,-8196,486,-53,8,16,29117,0,3,997,272,37188,69,26,79,0,0,0,0,0,0,0,0,-32293,0,0,0,4343,0,26505,0
24127,-542,-8244,464,-45,4,14,29117,5,2,1000,280,37188,58,26,79,0,0,0,0,0,0,0,0,-32293,0,0,0,4342,0,26525,0
24137,-518,-8204,498,-50,17,17,29117,2,-4,993,296,37193,59,26,79,0,0,0,0,0,0,0,0,-32293,0,0,0,4343,0,26545,0
24147,-488,-8174,510,-52,15,21,29117,-3,-2,1001,272,37190,60,26,79,0,0,0,0,0,0,0,0,-32293,0,0,0,4342,0,26565,0
24157,-562,-8226,530,-44,8,23,29119,3,2,995,272,37182,64,26,79,0,0,0,0,0,0,0,0,-32292,0,0,0,4343,0,26585,0
24167,-582,-8228,534,-57,7,15,29118,-1,-3,999,272,37183,51,26,79,0,0,0,0,0,0,0,0,-32293,0,0,0,4343,0,26605,0
24177,-594,-8226,490,-54,13,9,29119,5,2,1007,272,37194,44,26,79,0,0,0,0,0,0,0,0,-32293,0,0,0,4343,0,26625,0
24187,-642,-8228,520,-57,16,4,29119,0,-4,992,280,37195,49,26,79,0,0,0,0,0,0,0,0,-32293,0,0,0,4344,0,26645,0
24197,-604,-8230,506,-58,14,-1,29118,0,2,993,272,37188,61,26,79,0,0,0,0,0,0,0,0,-32293,0,0,0,4344,0,26665,0
24207,-596,-8196,532,-52,8,-4,29119,1,-1,999,256,37180,59,26,79,0,0,0,0,0,0,0,0,-32293,0,0,0,4344,0,26685,0
24217,-612,-8232,512,-61,9,-8,29118,-5,1,999,264,37185,52,26,79,0,0,0,0,0,0,0,0,-32293,0,0,0,4343,0,26705,0
24227,-574,-8222,498,-61,13,-12,29118,-5,-2,995,280,37194,47,26,79,0,0,0,0,0,0,0,0,-32293,0,0,0,4344,0,26725,0
24237,-524,-8206,468,-70,15,-16,29118,0,-3,995,280,37189,62,26,79,0,0,0,0,0,0,0,0,-32292,0,0,0,4344,0,26746,0
24247,-536,-8222,480,-65,9,-20,29117,-5,3,995,280,37183,68,26,79,0,0,0,0,0,0,0,0,-32293,0,0,0,4343,0,26766,0
24257,-520,-8198,486,-66,15,-22,29118,1,-1,1001,280,37184,63,26,79,0,0,0,0,0,0,0,0,-32293,0,0,0,4343,0,26786,0
24267,-566,-8220,456,-68,12,-26,29117,0,1,1004,288,37186,51,26,79,0,0,0,0,0,0,0,0,-32292,0,0,0,4343,0,26806,0
24277,-462,-8210,462,-62,10,-33,29116,0,-3,996,272,37193,64,26,79,0,0,0,0,0,0,0,0,-32293,0,0,0,4343,0,26826,0
24287,-578,-8218,448,-62,11,-27,29116,1,2,997,296,37186,67,26,79,0,0,0,0,0,0,0,0,-32293,0,0,0,4342,0,26846,0
24297,-580,-8224,454,-56,7,-26,29115,-1,3,998,288,37187,58,26,79,0,0,0,0,0,0,0,0,-32293,0,0,0,4342,0,26866,0
24307,-570,-8226,456,-56,9,-26,29114,1,-2,1000,280,37186,57,26,79,0,0,0,0,0,0,0,0,-32293,0,0,0,4342,0,26886,0
24317,-536,-8200,472,-57,7,-30,29112,-1,1,1000,280,37188,64,26,79,0,0,0,0,0,0,0,0,-32293,0,0,0,4341,0,26906,0
24327,-592,-8220,422,-48,3,-27,29110,0,-7,1005,272,37179,72,26,79,0,0,0,0,0,0,0,0,-32293,0,0,0,4343,0,26926,0
24337,-532,-8198,450,-43,7,-31,29108,0,1,998,264,37174,63,26,79,0,0,0,0,0,0,0,0,-32293,0,0,0,4342,0,26946,0
24347,-498,-8210,428,-43,8,-37,29105,-9,-2,997,264,37174,53,26,79,0,0,0,0,0,0,0,0,-32293,0,0,0,4341,0,26967,0
24357,-522,-8196,472,-47,9,-34,29101,-8,-5,996,272,37177,54,26,79,0,0,0,0,0,0,0,0,-32293,0,0,0,4341,0,26987,0
24367,-516,-8204,440,-41,12,-36,29097,-12,-4,998,264,37176,54,26,79,0,0,0,0,0,0,0,0,-32293,0,0,0,4341,0,27007,0
24377,-448,-8226,430,-40,11,-44,29090,-22,-7,998,264,37171,53,26,79,0,0,0,0,0,0,0,0,-32293,0,0,0,4340,0,27027,0
24387,-468,-8238,394,-28,20,-44,29078,-32,-16,999,256,37180,41,26,79,0,0,0,0,0,0,0,0,-32293,0,0,0,4341,0,27047,0
24397,-644,-8212,410,-19,38,-62,29060,-43,-27,994,256,37187,51,26,79,0,0,0,0,0,0,0,0,-32293,0,0,0,4339,0,27067,0
24407,-556,-8222,492,-15,33,-39,29051,-11,12,986,312,37186,64,26,79,0,0,0,0,0,0,0,0,-32293,0,0,0,4337,0,27087,0
24417,-166,-8212,558,-17,2,-11,29053,-1,42,1005,288,37174,73,26,79,0,0,0,0,0,0,0,0,-32293,0,0,0,4337,0,27107,0
24427,-524,-8206,504,-23,-7,8,29052,2,10,997,296,37172,73,26,79,0,0,0,0,0,0,0,0,-32292,0,0,0,4336,0,27127,0
24437,-552,-8262,474,-29,10,-4,29051,-1,0,999,288,37177,80,26,79,0,0,0,0,0,0,0,0,-32293,0,0,0,4337,0,27147,0
24447,-500,-8222,474,-25,19,-5,29053,5,4,1000,288,37177,89,26,79,0,0,0,0,0,0,0,0,-32293,0,0,0,4337,0,27167,0
24457,-392,-8210,532,-25,10,5,29051,1,-3,1002,288,37173,96,26,79,0,0,0,0,0,0,0,0,-32293,0,0,0,4336,0,27188,0
24467,-430,-8228,498,-33,6,8,29051,-3,-1,997,288,37173,86,26,79,0,0,0,0,0,0,0,0,-32293,0,0,0,4338,0,27207,0
24477,-544,-8208,500,-35,12,9,29051,3,-1,1001,296,37174,72,26,79,0,0,0,0,0,0,0,0,-32293,0,0,0,4336,0,27228,0
24487,-532,-8212,472,-26,17,13,29052,14,-1,997,304,37177,66,26,79,0,0,0,0,0,0,0,0,-32293,0,0,0,4337,0,27248,0
24497,-438,-8218,476,-21,18,15,29053,-3,6,998,280,37183,80,26,79,0,0,0,0,0,0,0,0,-32293,0,0,0,4337,0,27268,0
24507,-448,-8234,480,-30,12,22,29053,9,-3,1001,288,37180,88,26,79,0,0,0,0,0,0,0,0,-32293,0,0,0,4337,0,27288,0
24517,-500,-8188,502,-27,14,27,29052,-3,-1,1000,296,37180,82,26,79,0,0,0,0,0,0,0,0,-32293,0,0,0,4337,0,27308,0
24527,-472,-8236,504,-27,13,27,29052,-8,-5,999,304,37175,75,26,79,0,0,0,0,0,0,0,0,-32292,0,0,0,4338,0,27328,0
24537,-418,-8200,498,-34,19,25,29052,3,-4,997,296,37175,82,26,79,0,0,0,0,0,0,0,0,-32293,0,0,0,4337,0,27348,0
24547,-434,-8228,486,-31,14,32,29054,3,5,996,288,37172,87,26,79,0,0,0,0,0,0,0,0,-32293,0,0,0,4337,0,27368,0
24557,-464,-8210,510,-38,16,39,29055,1,-1,1004,288,37171,85,26,79,0,0,0,0,0,0,0,0,-32293,0,0,0,4338,0,27388,0
24567,-532,-8212,528,-35,23,34,29055,5,-2,996,296,37172,79,26,79,0,0,0,0,0,0,0,0,-32293,0,0,0,4337,0,27408,0
24577,-518,-8246,496,-31,22,32,29056,6,2,999,296,37171,81,26,79,0,0,0,0,0,0,0,0,-32293,0,0,0,4338,0,27428,0
24587,-528,-8222,472,-38,29,39,29057,1,4,997,296,37174,83,26,79,0,0,0,0,0,0,0,0,-32293,0,0,0,4338,0,27448,0
24597,-502,-8228,492,-33,18,37,29056,4,0,998,280,37172,85,26,79,0,0,0,0,0,0,0,0,-32293,0,0,0,4337,0,27468,0
24607,-568,-8198,514,-37,23,39,29058,0,3,1000,288,37174,84,26,79,0,0,0,0,0,0,0,0,-32292,0,0,0,4337,0,27488,0
24617,-510,-8236,508,-37,19,40,29059,0,-3,1002,296,37175,81,26,79,0,0,0,0,0,0,0,0,-32293,0,0,0,4337,0,27508,0
24627,-554,-8208,532,-39,24,31,29059,-2,-1,994,304,37174,80,26,79,0,0,0,0,0,0,0,0,-32293,0,0,0,4338,0,27528,0
24637,-486,-8212,506,-38,26,36,29062,2,2,998,288,37171,82,26,79,0,0,0,0,0,0,0,0,-32293,0,0,0,4337,0,27548,0
24647,-526,-8230,510,-41,22,33,29063,5,0,998,296,37170,70,26,79,0,0,0,0,0,0,0,0,-32293,0,0,0,4338,0,27568,0
24657,-520,-8222,512,-47,22,31,29064,0,-1,1003,296,37170,71,26,79,0,0,0,0,0,0,0,0,-32293,0,0,0,4338,0,27588,0
24667,-508,-8216,486,-49,23,28,29066,4,2,998,288,37173,76,26,79,0,0,0,0,0,0,0,0,-32293,0,0,0,4338,0,27608,0
24677,-510,-8210,490,-49,16,34,29066,5,3,998,288,37171,75,26,79,0,0,0,0,0,0,0,0,-32293,0,0,0,4339,0,27628,0
24687,-528,-8200,486,-39,17,29,29067,5,1,998,296,37174,68,26,79,0,0,0,0,0,0,0,0,-32293,0,0,0,4338,0,27648,0
24697,-528,-8220,490,-44,27,33,29068,-1,1,997,280,37178,77,26,79,0,0,0,0,0,0,0,0,-32293,0,0,0,4338,0,27668,0
24707,-514,-8208,490,-49,18,36,29070,0,-4,999,280,37180,78,26,79,0,0,0,0,0,0,0,0,-32293,0,0,0,4339,0,27688,0
24717,-554,-8228,512,-45,20,27,29072,0,0,1001,280,37184,92,26,79,0,0,0,0,0,0,0,0,-32293,0,0,0,4339,0,27708,0
24727,-572,-8188,498,-41,17,23,29073,1,-5,996,280,37183,93,26,79,0,0,0,0,0,0,0,0,-32293,0,0,0,4340,0,27728,0
24737,-580,-8264,526,-51,18,17,29074,1,-2,997,288,37182,86,26,79,0,0,0,0,0,0,0,0,-32293,0,0,0,4339,0,27748,0
24747,-550,-8206,504,-51,18,16,29076,6,-1,1000,280,37170,72,26,79,0,0,0,0,0,0,0,0,-32293,0,0,0,4339,0,27768,0
24757,-546,-8200,504,-50,13,14,29076,-1,3,999,280,37172,71,26,79,0,0,0,0,0,0,0,0,-32293,0,0,0,4339,0,27788,0
24767,-574,-8192,490,-52,18,17,29079,2,-1,1001,280,37174,78,26,79,0,0,0,0,0,0,0,0,-32293,0,0,0,4341,0,27808,0
24777,-558,-8220,490,-51,9,12,29079,0,-4,997,280,37175,72,26,79,0,0,0,0,0,0,0,0,-32293,0,0,0,4340,0,27828,0
24787,-558,-8178,478,-54,13,11,29080,11,1,998,280,37174,63,26,79,0,0,0,0,0,0,0,0,-32293,0,0,0,4338,0,27848,0
24797,-514,-8246,500,-45,14,15,29081,0,-2,999,280,37174,64,26,79,0,0,0,0,0,0,0,0,-32293,0,0,0,4340,0,27868,0
24807,-488,-8236,486,-41,19,13,29081,0,-3,1003,288,37178,71,26,79,0,0,0,0,0,0,0,0,-32293,0,0,0,4340,0,27888,0
24817,-524,-8174,508,-47,13,23,29083,0,2,1000,288,37188,73,26,79,0,0,0,0,0,0,0,0,-32292,0,0,0,4340,0,27908,0
24827,-564,-8228,486,-49,9,19,29086,9,1,993,280,37191,64,26,79,0,0,0,0,0,0,0,0,-32293,0,0,0,4340,0,27928,0
24837,-560,-8238,494,-55,4,27,29091,14,5,1001,288,37191,67,26,79,0,0,0,0,0,0,0,0,-32293,0,0,0,4341,0,27948,0
24847,-516,-8240,512,-45,1,31,29098,18,3,1000,296,37180,77,26,79,0,0,0,0,0,0,0,0,-32293,0,0,0,4341,0,27968,0
24857,-480,-8204,504,-51,1,26,29106,20,6,1001,288,37177,74,26,79,0,0,0,0,0,0,0,0,-32293,0,0,0,4341,0,27988,0
24867,-550,-8202,464,-53,6,18,29105,-14,-18,1001,256,37178,65,26,79,0,0,0,0,0,0,0,0,-32293,0,0,0,4341,0,28008,0
24877,-620,-8186,462,-47,17,11,29106,0,-14,1000,248,37177,53,26,79,0,0,0,0,0,0,0,0,-32293,0,0,0,4343,0,28028,0
24887,-550,-8246,484,-41,15,4,29106,-1,-4,998,264,37177,63,26,79,0,0,0,0,0,0,0,0,-32293,0,0,0,4341,0,28048,0
24897,-490,-8214,526,-39,10,6,29106,3,1,998,256,37180,68,26,79,0,0,0,0,0,0,0,0,-32293,0,0,0,4342,0,28068,0
24907,-562,-8234,496,-42,13,8,29107,6,0,1000,256,37182,76,26,79,0,0,0,0,0,0,0,0,-32293,0,0,0,4341,0,28088,0
24917,-528,-8208,494,-40,10,8,29106,1,5,999,256,37181,77,26,79,0,0,0,0,0,0,0,0,-32293,0,0,0,4342,0,28108,0
24927,-498,-8226,504,-40,17,7,29105,0,0,1001,248,37184,74,26,79,0,0,0,0,0,0,0,0,-32293,0,0,0,4342,0,28128,0
24937,-546,-8204,534,-41,14,13,29106,0,4,1000,256,37184,82,26,79,0,0,0,0,0,0,0,0,-32293,0,0,0,4342,0,28148,0
24947,-556,-8206,524,-45,9,14,29106,5,3,997,264,37183,81,26,79,0,0,0,0,0,0,0,0,-32293,0,0,0,4343,0,28168,0
24957,-536,-8198,498,-51,19,15,29107,7,1,1003,280,37177,76,26,79,0,0,0,0,0,0,0,0,-32293,0,0,0,4342,0,28188,0
24967,-514,-8228,492,-43,18,16,29108,7,-5,999,272,37177,61,26,79,0,0,0,0,0,0,0,0,-32293,0,0,0,4342,0,28208,0
24977,-510,-8210,506,-50,17,15,29107,3,-3,1001,256,37177,66,26,79,0,0,0,0,0,0,0,0,-32293,0,0,0,4342,0,28228,0
24987,-522,-8220,490,-48,15,19,29108,8,-1,999,264,37177,75,26,79,0,0,0,0,0,0,0,0,-32293,0,0,0,4343,0,28248,0
24997,-584,-8234,498,-41,15,17,29108,0,0,1000,256,37176,69,26,79,0,0,0,0,0,0,0,0,-32293,0,0,0,4342,0,28268,0
25007,-576,-8202,504,-43,16,16,29109,2,0,1004,280,37173,67,26,79,0,0,0,0,0,0,0,0,-32293,0,0,0,4343,0,28288,0
25017,-548,-8224,520,-36,15,14,29108,0,4,1000,272,37173,77,26,79,0,0,0,0,0,0,0,0,-32294,0,0,0,4343,0,28308,0
25027,-540,-8206,542,-43,18,17,29110,2,-3,994,256,37175,81,26,79,0,0,0,0,0,0,0,0,-32293,0,0,0,4342,0,28329,0
25037,-522,-8212,482,-47,14,13,29111,4,-1,996,280,37183,82,26,79,0,0,0,0,0,0,0,0,-32293,0,0,0,4342,0,28349,0
25047,-554,-8204,498,-47,12,13,29111,3,0,994,272,37183,71,26,79,0,0,0,0,0,0,0,0,-32293,0,0,0,4342,0,28369,0
25057,-504,-8222,510,-47,14,10,29110,-1,2,998,272,37180,83,26,79,0,0,0,0,0,0,0,0,-32293,0,0,0,4343,0,28389,0
25067,-568,-8198,508,-46,10,15,29112,0,-2,1001,272,37174,93,26,79,0,0,0,0,0,0,0,0,-32293,0,0,0,4342,0,28409,0
25077,-568,-8198,536,-54,13,12,29112,0,5,995,280,37174,94,26,79,0,0,0,0,0,0,0,0,-32293,0,0,0,4342,0,28429,0
25087,-550,-8212,492,-54,9,13,29112,3,4,994,272,37176,84,26,79,0,0,0,0,0,0,0,0,-32293,0,0,0,4342,0,28449,0
25097,-558,-8198,498,-54,15,12,29111,-7,4,997,256,37178,72,26,79,0,0,0,0,0,0,0,0,-32293,0,0,0,4343,0,28469,0
25107,-572,-8210,498,-53,12,13,29113,0,-6,1001,288,37177,75,26,79,0,0,0,0,0,0,0,0,-32293,0,0,0,4343,0,28489,0
25117,-586,-8230,498,-46,18,10,29114,-7,-2,998,272,37174,80,26,79,0,0,0,0,0,0,0,0,-32293,0,0,0,4343,0,28509,0
25127,-544,-8200,524,-53,13,8,29113,-7,2,1000,280,37174,76,26,79,0,0,0,0,0,0,0,0,-32293,0,0,0,4343,0,28529,0
25137,-562,-8198,504,-47,15,9,29113,-1,2,1001,288,37178,81,26,79,0,0,0,0,0,0,0,0,-32293,0,0,0,4342,0,28549,0
25147,-588,-8226,544,-50,13,8,29113,-1,3,1000,272,37179,82,26,79,0,0,0,0,0,0,0,0,-32293,0,0,0,4343,0,28569,0
25157,-554,-8210,494,-51,13,4,29113,-3,6,996,264,37175,81,26,79,0,0,0,0,0,0,0,0,-32293,0,0,0,4344,0,28589,0
25167,-532,-8216,498,-51,18,15,29115,2,4,998,272,37176,71,26,79,0,0,0,0,0,0,0,0,-32293,0,0,0,4342,0,28609,0
25177,-538,-8210,488,-51,16,9,29114,-1,4,999,280,37172,64,26,79,0,0,0,0,0,0,0,0,-32293,0,0,0,4343,0,28629,0
25187,-534,-8208,496,-43,14,12,29114,4,4,1000,296,37174,70,26,79,0,0,0,0,0,0,0,0,-32293,0,0,0,4343,0,28649,0
25197,-538,-8232,502,-54,24,14,29115,-1,2,999,288,37171,77,26,79,0,0,0,0,0,0,0,0,-32293,0,0,0,4343,0,28669,0
25207,-508,-8240,480,-53,14,10,29117,4,-4,998,288,37171,87,26,79,0,0,0,0,0,0,0,0,-32293,0,0,0,4343,0,28689,0
25217,-548,-8206,510,-52,14,16,29118,15,-3,1005,272,37171,90,26,79,0,0,0,0,0,0,0,0,-32293,0,0,0,4343,0,28709,0
25227,-562,-8198,500,-53,14,8,29116,5,-1,1001,280,37173,82,26,79,0,0,0,0,0,0,0,0,-32293,0,0,0,4342,0,28729,0
25237,-538,-8238,486,-44,19,13,29116,0,-2,999,288,37171,88,26,79,0,0,0,0,0,0,0,0,-32293,0,0,0,4343,0,28749,0
25247,-516,-8210,494,-51,19,17,29117,0,-2,999,288,37182,86,26,79,0,0,0,0,0,0,0,0,-32293,0,0,0,4343,0,28769,0
25257,-520,-8214,490,-40,15,16,29117,-4,0,1002,272,37180,79,26,79,0,0,0,0,0,0,0,0,-32293,0,0,0,4343,0,28789,0
25267,-540,-8232,476,-42,20,20,29117,-7,0,998,280,37179,76,26,79,0,0,0,0,0,0,0,0,-32292,0,0,0,4344,0,28809,0
25277,-544,-8214,522,-38,19,19,29118,3,-1,1002,280,37169,81,26,79,0,0,0,0,0,0,0,0,-32293,0,0,0,4343,0,28829,0
25287,-558,-8250,494,-36,16,14,29117,-3,0,999,280,37172,78,26,79,0,0,0,0,0,0,0,0,-32293,0,0,0,4344,0,28849,0
25297,-564,-8212,532,-53,15,16,29119,4,-3,995,288,37174,86,26,79,0,0,0,0,0,0,0,0,-32293,0,0,0,4344,0,28869,0
25307,-550,-8208,536,-44,13,19,29119,0,-3,1000,256,37172,88,26,79,0,0,0,0,0,0,0,0,-32293,0,0,0,4343,0,28889,0
25317,-600,-8198,516,-52,14,20,29119,-3,-7,994,272,37169,99,26,79,0,0,0,0,0,0,0,0,-32293,0,0,0,4344,0,28909,0
25327,-544,-8224,506,-48,16,18,29121,3,1,999,248,37167,84,26,79,0,0,0,0,0,0,0,0,-32293,0,0,0,4344,0,28929,0
25337,-558,-8180,454,-45,16,23,29122,8,2,1000,256,37167,86,26,79,0,0,0,0,0,0,0,0,-32293,0,0,0,4343,0,28949,0
25347,-546,-8194,466,-41,19,22,29122,0,1,1000,272,37166,86,26,79,0,0,0,0,0,0,0,0,-32293,0,0,0,4344,0,28969,0
25357,-580,-8236,460,-37,18,19,29123,0,1,997,272,37171,102,26,79,0,0,0,0,0,0,0,0,-32293,0,0,0,4344,0,28989,0
25367,-592,-8196,510,-41,18,24,29125,1,-2,995,264,37173,99,26,79,0,0,0,0,0,0,0,0,-32293,0,0,0,4344,0,29009,0
25377,-572,-8216,492,-31,25,20,29125,0,2,997,264,37174,94,26,79,0,0,0,0,0,0,0,0,-32293,0,0,0,4344,0,29029,0
25387,-578,-8218,520,-36,20,21,29127,15,2,996,288,37168,84,26,79,0,0,0,0,0,0,0,0,-32292,0,0,0,4344,0,29049,0
25397,-584,-8196,536,-42,10,27,29127,10,5,996,264,37167,89,26,79,0,0,0,0,0,0,0,0,-32293,0,0,0,4344,0,29069,0
25407,-542,-8186,514,-38,15,14,29127,0,2,995,272,37165,92,26,79,0,0,0,0,0,0,0,0,-32293,0,0,0,4344,0,29089,0
25417,-1140,-8424,482,-13,130,-106,29090,-137,-81,206,0,37165,85,26,79,0,0,0,0,0,0,0,0,-32293,0,0,0,4341,0,29109,0
25427,-1364,-8102,236,-12,183,-142,29031,-113,-125,202,0,37166,86,26,79,0,0,0,0,0,0,0,0,-32292,0,0,0,4337,0,29129,0
25437,-370,-8308,540,16,288,-125,29006,-52,45,101,0,37168,92,26,79,0,0,0,0,0,0,0,0,-32292,0,0,0,4333,0,29151,0
25447,-588,-8146,510,19,274,-126,28977,-61,48,114,0,37169,98,26,79,0,0,0,0,0,0,0,0,-32292,0,0,0,4331,0,29171,0
25457,-44,-8342,882,-34,17,-39,28963,-22,23,57,0,37171,102,26,79,0,0,0,0,0,0,0,0,-32293,0,0,0,4329,0,29191,0
25467,-142,-8176,676,-48,-28,-2,28954,-16,40,41,0,37176,103,26,79,0,0,0,0,0,0,0,0,-32293,0,0,0,4329,0,29211,0
25477,-680,-8210,502,-58,-4,-2,28944,-22,1,49,0,37178,105,26,79,0,0,0,0,0,0,0,0,-32293,0,0,0,4329,0,29231,0
25487,-746,-8218,388,-52,34,-23,28933,-26,-7,52,0,37181,89,26,79,0,0,0,0,0,0,0,0,-32293,0,0,0,4328,0,29251,0
25497,-522,-8172,382,-35,56,-21,28926,-11,5,26,0,37175,82,26,79,0,0,0,0,0,0,0,0,-32293,0,0,0,4327,0,29271,0
25507,-358,-8210,538,-30,18,-3,28925,-3,17,3,0,37176,83,26,79,0,0,0,0,0,0,0,0,-32293,0,0,0,4327,0,29291,0
25517,-540,-8212,586,-38,-8,9,28926,7,14,1,0,37175,83,26,79,0,0,0,0,0,0,0,0,-32292,0,0,0,4327,0,29311,0
25527,-666,-8210,522,-47,4,4,28924,-1,4,0,0,37172,82,26,79,0,0,0,0,0,0,0,0,-32293,0,0,0,4327,0,29331,0
25537,-594,-8216,430,-40,21,-12,28924,0,4,3,0,37172,78,26,79,0,0,0,0,0,0,0,0,-32293,0,0,0,4327,0,29351,0
25547,-420,-8248,434,-32,18,-8,28921,-2,-3,3,0,37175,81,26,79,0,0,0,0,0,0,0,0,-32292,0,0,0,4327,0,29371,0
25557,-432,-8244,518,-29,11,9,28920,-6,-1,1,0,37176,86,26,79,0,0,0,0,0,0,0,0,-32292,0,0,0,4327,0,29391,0
25567,-498,-8202,558,-32,12,13,28921,3,4,-1,0,37176,94,26,79,0,0,0,0,0,0,0,0,-32292,0,0,0,4327,0,29411,0
25577,-520,-8202,558,-37,14,12,28922,-1,5,-1,0,37180,90,26,79,0,0,0,0,0,0,0,0,-32292,0,0,0,4327,0,29431,0
25587,-524,-8204,522,-37,14,8,28922,3,0,-2,0,37179,91,26,79,0,0,0,0,0,0,0,0,-32293,0,0,0,4326,0,29451,0
25597,-536,-8222,494,-39,10,12,28921,3,-1,-1,0,37178,92,26,79,0,0,0,0,0,0,0,0,-32292,0,0,0,4326,0,29471,0
25607,-610,-8206,482,-34,9,11,28920,-1,-1,-1,0,37171,84,26,79,0,0,0,0,0,0,0,0,-32293,0,0,0,4327,0,29491,0
25617,-604,-8196,522,-40,12,-8,28921,0,2,-1,0,37171,78,26,79,0,0,0,0,0,0,0,0,-32292,0,0,0,4326,0,29511,0
25627,-556,-8226,548,-41,15,-2,28921,1,-3,0,0,37174,72,26,79,0,0,0,0,0,0,0,0,-32292,0,0,0,4326,0,29531,0
25637,-496,-8224,538,-42,9,2,28919,-5,-3,1,0,37177,77,26,79,0,0,0,0,0,0,0,0,-32292,0,0,0,4327,0,29551,0
25647,-522,-8222,530,-41,7,0,28920,-4,-2,0,0,37175,82,26,79,0,0,0,0,0,0,0,0,-32292,0,0,0,4327,0,29571,0
25657,-548,-8246,496,-37,7,8,28918,-3,-5,0,0,37174,82,26,79,0,0,0,0,0,0,0,0,-32292,0,0,0,4326,0,29591,0
25667,-518,-8200,484,-44,8,-2,28920,-2,1,0,0,37173,78,26,79,0,0,0,0,0,0,0,0,-32292,0,0,0,4327,0,29611,0
25677,-510,-8208,512,-38,9,6,28918,-7,-3,0,0,37180,76,26,79,0,0,0,0,0,0,0,0,-32293,0,0,0,4327,0,29631,0
25687,-540,-8200,524,-39,10,-1,28918,-7,-1,0,0,37183,78,26,79,0,0,0,0,0,0,0,0,-32292,0,0,0,4326,0,29651,0
25697,-562,-8212,530,-44,5,-5,28918,0,-2,0,0,37186,83,26,79,0,0,0,0,0,0,0,0,-32293,0,0,0,4326,0,29671,0
25707,-536,-8252,516,-51,7,-1,28918,0,1,2,0,37180,84,26,79,0,0,0,0,0,0,0,0,-32292,0,0,0,4326,0,29691,0
25717,-548,-8208,540,-47,11,-10,28917,0,1,1,0,37179,85,26,79,0,0,0,0,0,0,0,0,-32292,0,0,0,4327,0,29711,0
25727,-496,-8228,504,-48,8,-8,28916,-3,2,3,0,37179,96,26,79,0,0,0,0,0,0,0,0,-32292,0,0,0,4325,0,29731,0
25737,-498,-8236,522,-52,3,-8,28915,-2,-3,3,0,37181,97,26,79,0,0,0,0,0,0,0,0,-32293,0,0,0,4326,0,29751,0
25747,-500,-8208,512,-48,8,-5,28914,-1,0,2,0,37179,91,26,79,0,0,0,0,0,0,0,0,-32292,0,0,0,4326,0,29771,0
25757,-520,-8196,490,-51,9,-6,28913,1,2,2,0,37175,84,26,79,0,0,0,0,0,0,0,0,-32293,0,0,0,4326,0,29791,0
25767,-520,-8218,480,-47,13,-5,28913,1,3,4,0,37176,83,26,79,0,0,0,0,0,0,0,0,-32293,0,0,0,4327,0,29811,0
25777,-506,-8198,494,-44,12,0,28912,-4,3,0,0,37188,84,26,79,0,0,0,0,0,0,0,0,-32293,0,0,0,4326,0,29831,0
25787,-532,-8250,512,-45,15,-3,28911,-2,2,0,0,37186,76,26,79,0,0,0,0,0,0,0,0,-32293,0,0,0,4326,0,29851,0
25797,-492,-8236,544,-44,14,-2,28910,-6,-3,0,0,37185,78,26,79,0,0,0,0,0,0,0,0,-32293,0,0,0,4326,0,29871,0
25807,-514,-8190,546,-46,11,-2,28910,-5,-1,1,0,37180,83,26,79,0,0,0,0,0,0,0,0,-32293,0,0,0,4326,0,29891,0
25817,-532,-8224,532,-48,7,0,28910,3,5,3,0,37183,76,26,79,0,0,0,0,0,0,0,0,-32293,0,0,0,4326,0,29911,0
25827,-532,-8220,522,-43,8,3,28909,-3,-3,1,0,37182,66,26,79,0,0,0,0,0,0,0,0,-32292,0,0,0,4326,0,29931,0
25837,-556,-8210,536,-48,5,3,28908,-1,2,3,0,37180,63,26,79,0,0,0,0,0,0,0,0,-32292,0,0,0,4326,0,29951,0
25847,-528,-8232,552,-50,10,-7,28907,-6,0,1,0,37183,69,26,79,0,0,0,0,0,0,0,0,-32292,0,0,0,4326,0,29971,0
25857,-524,-8230,508,-54,7,-5,28906,-2,3,2,0,37183,81,26,79,0,0,0,0,0,0,0,0,-32292,0,0,0,4325,0,29991,0
25867,-502,-8212,516,-45,5,2,28905,-4,-3,4,0,37185,84,26,79,0,0,0,0,0,0,0,0,-32292,0,0,0,4326,0,30011,0
25877,-506,-8226,490,-52,17,0,28906,2,-3,1,0,37185,82,26,79,0,0,0,0,0,0,0,0,-32292,0,0,0,4326,0,30031,0
25887,-506,-8214,506,-44,13,-4,28904,-2,0,3,0,37186,85,26,79,0,0,0,0,0,0,0,0,-32292,0,0,0,4325,0,30051,0
25897,-522,-8228,520,-45,7,0,28904,-2,2,2,0,37188,93,26,79,0,0,0,0,0,0,0,0,-32292,0,0,0,4326,0,30071,0
25907,-520,-8246,512,-47,10,-1,28904,8,-3,1,0,37186,92,26,79,0,0,0,0,0,0,0,0,-32292,0,0,0,4326,0,30091,0
25917,-546,-8208,532,-47,13,-3,28903,-1,-1,2,0,37183,92,26,79,0,0,0,0,0,0,0,0,-32292,0,0,0,4326,0,30111,0
25927,-534,-8216,512,-51,6,-2,28902,-4,-4,3,0,37182,86,26,79,0,0,0,0,0,0,0,0,-32292,0,0,0,4326,0,30131,0
25937,-524,-8242,528,-54,8,-1,28900,-6,-2,4,0,37183,75,26,79,0,0,0,0,0,0,0,0,-32292,0,0,0,4325,0,30152,0
25947,-546,-8212,518,-50,7,-5,28899,0,1,5,0,37186,71,26,79,0,0,0,0,0,0,0,0,-32292,0,0,0,4324,0,30177,0
25957,-532,-8198,498,-52,4,-10,28897,-8,-2,6,0,37186,75,26,79,0,0,0,0,0,0,0,0,-32292,0,0,0,4324,0,30196,0
25967,-518,-8204,512,-46,8,-13,28895,-5,-5,11,0,37183,77,26,79,0,0,0,0,0,0,0,0,-32292,0,0,0,4324,0,30216,0
25977,-512,-8206,526,-49,10,-18,28891,-14,-7,16,0,37183,76,26,79,0,0,0,0,0,0,0,0,-32292,0,0,0,4324,0,30236,0
25987,-522,-8208,504,-48,14,-25,28885,-15,-6,29,0,37188,73,26,79,0,0,0,0,0,0,0,0,-32292,0,0,0,4324,0,30257,0
25997,-512,-8218,470,-48,37,-35,28874,-26,-15,47,0,37189,74,26,79,0,0,0,0,0,0,0,0,-32292,0,0,0,4324,0,30277,0
26007,-570,-8216,504,-37,57,-47,28861,-28,-22,61,0,37188,75,26,79,0,0,0,0,0,0,0,0,-32293,0,0,0,4321,0,30297,0
26017,-480,-8208,518,-45,45,-33,28851,-18,3,35,0,37183,77,26,79,0,0,0,0,0,0,0,0,-32294,0,0,0,4320,0,30317,0
26027,-356,-8224,590,-45,22,-18,28848,-3,27,11,0,37183,82,26,79,0,0,0,0,0,0,0,0,-32292,0,0,0,4319,0,30337,0
26037,-446,-8242,590,-57,-5,1,28847,-1,15,6,0,37183,92,26,79,0,0,0,0,0,0,0,0,-32292,0,0,0,4320,0,30357,0
26047,-562,-8228,558,-53,-1,-2,28844,2,3,5,0,37183,93,26,79,0,0,0,0,0,0,0,0,-32293,0,0,0,4320,0,30377,0
26057,-548,-8236,480,-56,15,-15,28842,-6,4,5,0,37182,93,26,79,0,0,0,0,0,0,0,0,-32293,0,0,0,4320,0,30397,0
26067,-494,-8214,522,-52,17,-17,28841,-6,2,10,0,37182,88,26,79,0,0,0,0,0,0,0,0,-32293,0,0,0,4319,0,30417,0
26077,-508,-8190,530,-52,14,-12,28837,-3,-4,16,0,37182,85,26,79,0,0,0,0,0,0,0,0,-32292,0,0,0,4319,0,30437,0
26087,-526,-8214,524,-51,16,-16,28831,-16,-8,24,0,37189,82,26,79,0,0,0,0,0,0,0,0,-32292,0,0,0,4319,0,30457,0
26097,-516,-8246,490,-49,36,-32,28820,-33,-12,45,0,37200,80,26,79,0,0,0,0,0,0,0,0,-32292,0,0,0,4318,0,30477,0
26107,-564,-8214,470,-46,56,-57,28799,-53,-33,90,0,37217,87,26,79,0,0,0,0,0,0,0,0,-32293,0,0,0,4315,0,30497,0
26117,-638,-8192,434,-34,58,-58,28777,-36,-22,76,0,37219,86,26,79,0,0,0,0,0,0,0,0,-32292,0,0,0,4315,0,30518,0
26127,-308,-8204,544,-40,24,-29,28775,-6,37,3,0,37209,89,26,79,0,0,0,0,0,0,0,0,-32293,0,0,0,4314,0,30538,0
26137,-336,-8222,618,-42,-14,4,28774,0,42,2,0,37200,90,26,79,0,0,0,0,0,0,0,0,-32292,0,0,0,4314,0,30558,0
26147,-552,-8222,514,-44,-14,3,28773,-7,6,2,0,37190,102,26,79,0,0,0,0,0,0,0,0,-32292,0,0,0,4314,0,30578,0
26157,-534,-8166,334,-40,26,-11,28772,-6,-1,2,0,37187,95,26,79,0,0,0,0,0,0,0,0,-32292,0,0,0,4314,0,30598,0
26167,-422,-8228,398,-37,26,-11,28771,-1,-2,7,0,37187,89,26,79,0,0,0,0,0,0,0,0,-32292,0,0,0,4314,0,30618,0
26177,-466,-8244,608,-24,5,-10,28768,-10,-6,12,0,37188,96,26,79,0,0,0,0,0,0,0,0,-32292,0,0,0,4314,0,30638,0
26187,-534,-8234,608,-37,3,-9,28763,-13,0,15,0,37189,100,26,79,0,0,0,0,0,0,0,0,-32292,0,0,0,4313,0,30658,0
26197,-558,-8218,562,-46,15,-24,28759,-11,-4,23,0,37192,98,26,79,0,0,0,0,0,0,0,0,-32292,0,0,0,4313,0,30678,0
26207,-502,-8204,470,-37,20,-34,28751,-22,-11,38,0,37191,95,26,79,0,0,0,0,0,0,0,0,-32292,0,0,0,4312,0,30698,0
26217,-448,-8244,476,-29,31,-38,28738,-24,-14,56,0,37190,101,26,79,0,0,0,0,0,0,0,0,-32292,0,0,0,4311,0,30718,0
26227,-486,-8196,476,-22,27,-33,28727,-21,-5,46,0,37191,107,26,79,0,0,0,0,0,0,0,0,-32292,0,0,0,4310,0,30738,0
26237,-390,-8190,554,-30,8,-8,28726,-1,24,3,0,37183,103,26,79,0,0,0,0,0,0,0,0,-32292,0,0,0,4311,0,30758,0
26247,-370,-8210,590,-34,6,1,28726,-1,17,0,0,37186,96,26,79,0,0,0,0,0,0,0,0,-32292,0,0,0,4311,0,30778,0
26257,-484,-8244,536,-43,7,5,28726,-7,-1,3,0,37196,89,26,79,0,0,0,0,0,0,0,0,-32292,0,0,0,4310,0,30798,0
26267,-526,-8232,544,-48,11,-4,28725,6,1,2,0,37199,92,26,79,0,0,0,0,0,0,0,0,-32292,0,0,0,4310,0,30818,0
26277,-508,-8192,482,-47,7,-6,28725,-2,4,2,0,37200,93,26,79,0,0,0,0,0,0,0,0,-32292,0,0,0,4310,0,30838,0
26287,-508,-8200,504,-34,8,-8,28723,-2,-1,4,0,37207,86,26,79,0,0,0,0,0,0,0,0,-32293,0,0,0,4310,0,30858,0
26297,-544,-8222,536,-37,6,-15,28722,-7,2,2,0,37212,81,26,79,0,0,0,0,0,0,0,0,-32292,0,0,0,4309,0,30878,0
26307,-550,-8214,538,-40,7,-20,28720,-9,-3,5,0,37210,90,26,79,0,0,0,0,0,0,0,0,-32292,0,0,0,4309,0,30898,0
26317,-500,-8222,520,-45,12,-22,28719,-1,-2,8,0,37204,88,26,79,0,0,0,0,0,0,0,0,-32293,0,0,0,4309,0,30918,0
26327,-492,-8206,534,-43,11,-26,28719,0,7,7,0,37201,88,26,79,0,0,0,0,0,0,0,0,-32292,0,0,0,4309,0,30938,0
26337,-436,-8234,538,-47,10,-21,28715,-1,-2,10,0,37202,81,26,79,0,0,0,0,0,0,0,0,-32292,0,0,0,4309,0,30958,0
26347,-456,-8236,574,-46,12,-14,28714,0,1,8,0,37203,98,26,79,0,0,0,0,0,0,0,0,-32293,0,0,0,4309,0,30978,0
26357,-474,-8202,548,-41,12,-14,28712,-9,2,7,0,37201,100,26,79,0,0,0,0,0,0,0,0,-32293,0,0,0,4309,0,30998,0
26367,-448,-8222,530,-44,7,-10,28710,-2,-3,6,0,37198,99,26,79,0,0,0,0,0,0,0,0,-32293,0,0,0,4308,0,31018,0
26377,-460,-8264,540,-41,3,-10,28707,-7,-2,7,0,37201,91,26,79,0,0,0,0,0,0,0,0,-32293,0,0,0,4309,0,31038,0
26387,-460,-8138,426,-41,14,-4,28706,-2,-4,7,0,37205,91,26,79,0,0,0,0,0,0,0,0,-32292,0,0,0,4308,0,31058,0
26397,-460,-8236,542,-39,14,-12,28704,-5,0,9,0,37199,95,26,79,0,0,0,0,0,0,0,0,-32293,0,0,0,4308,0,31078,0
26407,-472,-8240,598,-43,12,-6,28702,-5,-2,12,0,37195,93,26,79,0,0,0,0,0,0,0,0,-32292,0,0,0,4308,0,31098,0
26417,-466,-8194,566,-46,20,-11,28700,-8,-1,11,0,37197,87,26,79,0,0,0,0,0,0,0,0,-32293,0,0,0,4308,0,31118,0
26427,-476,-8226,534,-47,21,-10,28698,-4,-2,18,0,37203,81,26,79,0,0,0,0,0,0,0,0,-32293,0,0,0,4307,0,31138,0
26437,-478,-8218,538,-51,22,-17,28689,-20,-11,29,0,37204,87,26,79,0,0,0,0,0,0,0,0,-32293,0,0,0,4307,0,31158,0
26447,-470,-8198,554,-49,27,-19,28682,-26,-12,47,0,37196,84,26,79,0,0,0,0,0,0,0,0,-32293,0,0,0,4306,0,31178,0
26457,-468,-8206,538,-52,36,-31,28668,-36,-22,65,0,37195,77,26,79,0,0,0,0,0,0,0,0,-32292,0,0,0,4306,0,31198,0
26467,-440,-8222,520,-48,43,-16,28659,-18,0,41,0,37198,66,26,79,0,0,0,0,0,0,0,0,-32292,0,0,0,4306,0,31218,0
26477,-268,-8210,580,-49,10,10,28658,-1,25,4,0,37201,66,26,79,0,0,0,0,0,0,0,0,-32292,0,0,0,4305,0,31238,0
26487,-362,-8192,552,-58,-2,20,28656,-7,8,0,0,37200,68,26,79,0,0,0,0,0,0,0,0,-32292,0,0,0,4305,0,31258,0
26497,-506,-8212,484,-54,15,21,28658,4,1,-2,0,37198,61,26,79,0,0,0,0,0,0,0,0,-32293,0,0,0,4305,0,31278,0
26507,-486,-8220,504,-54,19,13,28657,-5,-2,-3,0,37203,70,26,79,0,0,0,0,0,0,0,0,-32292,0,0,0,4305,0,31298,0
26517,-414,-8234,532,-47,13,17,28657,-2,-1,-1,0,37207,74,26,79,0,0,0,0,0,0,0,0,-32293,0,0,0,4306,0,31318,0
26527,-400,-8208,536,-50,14,23,28657,-1,-4,0,0,37210,84,26,79,0,0,0,0,0,0,0,0,-32292,0,0,0,4305,0,31338,0
26537,-518,-8220,554,-52,14,30,28658,0,0,-2,0,37201,81,26,79,0,0,0,0,0,0,0,0,-32293,0,0,0,4306,0,31358,0
26547,-502,-8224,526,-54,20,27,28658,-2,-5,-1,0,37200,73,26,79,0,0,0,0,0,0,0,0,-32292,0,0,0,4306,0,31378,0
26557,-434,-8210,514,-51,20,26,28659,1,0,-2,0,37199,73,26,79,0,0,0,0,0,0,0,0,-32292,0,0,0,4307,0,31398,0
26567,-384,-8196,540,-49,17,30,28660,1,1,-5,0,37199,64,26,79,0,0,0,0,0,0,0,0,-32292,0,0,0,4306,0,31418,0
26577,-462,-8222,512,-51,11,40,28660,9,1,-4,0,37193,61,26,79,0,0,0,0,0,0,0,0,-32293,0,0,0,4307,0,31438,0
26587,-506,-8218,520,-49,18,40,28659,1,0,-1,0,37192,57,26,79,0,0,0,0,0,0,0,0,-32293,0,0,0,4306,0,31458,0
26597,-522,-8206,542,-53,15,34,28660,0,2,-2,0,37201,59,26,79,0,0,0,0,0,0,0,0,-32293,0,0,0,4306,0,31478,0
26607,-514,-8182,528,-58,19,33,28661,3,-1,-1,0,37205,65,26,79,0,0,0,0,0,0,0,0,-32293,0,0,0,4306,0,31498,0
26617,-508,-8220,526,-59,16,23,28660,1,-4,0,0,37198,68,26,79,0,0,0,0,0,0,0,0,-32293,0,0,0,4307,0,31518,0
26627,-516,-8154,540,-59,21,25,28661,1,-1,0,0,37198,48,26,79,0,0,0,0,0,0,0,0,-32293,0,0,0,4306,0,31538,0
26637,-574,-8172,748,-61,10,15,28661,0,0,-1,0,37203,42,26,79,0,0,0,0,0,0,0,0,-32292,0,0,0,4308,0,31558,0
26647,-460,-8210,490,-64,15,5,28662,3,2,-1,0,37210,49,26,79,0,0,0,0,0,0,0,0,-32293,0,0,0,4307,0,31578,0
26657,-458,-8360,286,-66,11,17,28660,-1,-1,-1,0,37204,65,26,79,0,0,0,0,0,0,0,0,-32292,0,0,0,4307,0,31598,0
26667,-538,-8158,486,-55,15,6,28661,-2,2,-2,0,37198,73,26,79,0,0,0,0,0,0,0,0,-32293,0,0,0,4306,0,31618,0
26677,-520,-8302,648,-59,18,-3,28661,5,1,0,0,37199,64,26,79,0,0,0,0,0,0,0,0,-32292,0,0,0,4307,0,31638,0
26687,-544,-8090,592,-60,17,-2,28660,-10,1,0,0,37206,56,26,79,0,0,0,0,0,0,0,0,-32292,0,0,0,4307,0,31658,0
26697,-548,-8066,444,-59,10,-5,28661,0,-2,0,0,37209,62,26,79,0,0,0,0,0,0,0,0,-32292,0,0,0,4306,0,31678,0
26707,-468,-8330,410,-52,19,-19,28660,-1,-1,1,0,37203,66,26,79,0,0,0,0,0,0,0,0,-32292,0,0,0,4307,0,31698,0
26717,-438,-8210,568,-44,12,-7,28659,-9,1,0,0,37195,59,26,79,0,0,0,0,0,0,0,0,-32293,0,0,0,4307,0,31718,0
26727,-334,-8312,628,-51,18,13,28660,-1,2,-3,0,37202,55,26,79,0,0,0,0,0,0,0,0,-32292,0,0,0,4307,0,31738,0
26737,-220,-8222,566,-69,20,16,28660,-7,1,0,0,37215,62,26,79,0,0,0,0,0,0,0,0,-32292,0,0,0,4307,0,31758,0
26747,-322,-8256,378,-65,17,35,28661,2,0,-2,0,37209,69,26,79,0,0,0,0,0,0,0,0,-32293,0,0,0,4306,0,31778,0
26757,-428,-8232,186,-28,25,61,28662,6,1,-4,0,37204,66,26,79,0,0,0,0,0,0,0,0,-32293,0,0,0,4307,0,31798,0
26767,-422,-8090,272,-2,37,58,28661,0,4,-3,0,37200,64,26,79,0,0,0,0,0,0,0,0,-32292,0,0,0,4306,0,31818,0
26777,-464,-8200,372,12,27,60,28663,-1,1,-3,0,37209,63,26,79,0,0,0,0,0,0,0,0,-32293,0,0,0,4307,0,31838,0
26787,-570,-8214,508,12,28,66,28663,-1,-3,-3,0,37206,69,26,79,0,0,0,0,0,0,0,0,-32292,0,0,0,4308,0,31858,0
26797,-558,-8144,550,26,27,55,28664,5,4,-4,0,37199,78,26,79,0,0,0,0,0,0,0,0,-32293,0,0,0,4309,0,31878,0
26807,-578,-8286,524,14,22,41,28664,1,-2,-2,0,37198,77,26,79,0,0,0,0,0,0,0,0,-32293,0,0,0,4308,0,31898,0
26817,-642,-8226,622,7,22,35,28664,1,-2,-1,0,37207,71,26,79,0,0,0,0,0,0,0,0,-32293,0,0,0,4308,0,31918,0
26827,-560,-8262,698,-4,21,24,28664,0,3,-2,0,37207,70,26,79,0,0,0,0,0,0,0,0,-32292,0,0,0,4308,0,31938,0
26837,-512,-8188,646,-20,16,15,28665,7,-1,2,0,37198,77,26,79,0,0,0,0,0,0,0,0,-32293,0,0,0,4308,0,31958,0
26847,-530,-8216,644,-23,12,17,28664,0,-4,0,0,37199,67,26,79,0,0,0,0,0,0,0,0,-32292,0,0,0,4308,0,31978,0
26857,-504,-8224,512,-32,21,18,28665,0,-3,-1,0,37205,65,26,79,0,0,0,0,0,0,0,0,-32292,0,0,0,4308,0,31998,0
26867,-442,-8216,476,-31,18,13,28665,2,2,-1,0,37210,72,26,79,0,0,0,0,0,0,0,0,-32293,0,0,0,4309,0,32018,0
26877,-430,-8220,470,-18,16,27,28663,0,-2,0,0,37203,75,26,79,0,0,0,0,0,0,0,0,-32292,0,0,0,4309,0,32038,0
26887,-468,-8246,506,-2,11,40,28664,7,1,-1,0,37200,66,26,79,0,0,0,0,0,0,0,0,-32292,0,0,0,4309,0,32058,0
26897,-454,-8176,526,-4,11,36,28665,7,2,-2,0,37206,60,26,79,0,0,0,0,0,0,0,0,-32293,0,0,0,4309,0,32078,0
26907,-528,-8218,516,-6,6,42,28663,0,2,-2,0,37211,64,26,79,0,0,0,0,0,0,0,0,-32293,0,0,0,4309,0,32098,0
26917,-508,-8216,528,-2,13,48,28665,8,0,-3,0,37205,74,26,79,0,0,0,0,0,0,0,0,-32293,0,0,0,4310,0,32118,0
26927,-510,-8212,540,1,7,40,28665,3,0,-1,0,37200,80,26,79,0,0,0,0,0,0,0,0,-32293,0,0,0,4311,0,32138,0
26937,-550,-8232,558,-1,10,29,28665,2,0,0,0,37198,65,26,79,0,0,0,0,0,0,0,0,-32293,0,0,0,4311,0,32158,0
26947,-614,-8202,570,0,11,31,28665,-1,-2,0,0,37209,59,26,79,0,0,0,0,0,0,0,0,-32293,0,0,0,4311,0,32178,0
26957,-476,-8192,558,-7,12,18,28664,-2,0,-1,0,37217,67,26,79,0,0,0,0,0,0,0,0,-32292,0,0,0,4311,0,32198,0
26967,-488,-8186,518,-7,12,13,28664,-3,1,-1,0,37213,80,26,79,0,0,0,0,0,0,0,0,-32292,0,0,0,4311,0,32218,0
26977,-542,-8252,558,-7,8,12,28665,-1,-1,0,0,37210,71,26,79,0,0,0,0,0,0,0,0,-32293,0,0,0,4311,0,32238,0
26987,-556,-8188,558,-4,9,-1,28665,6,0,0,0,37204,71,26,79,0,0,0,0,0,0,0,0,-32292,0,0,0,4312,0,32258,0
26997,-576,-8256,582,-4,5,-3,28666,5,-1,0,0,37208,84,26,79,0,0,0,0,0,0,0,0,-32292,0,0,0,4310,0,32278,0
27007,-552,-8170,478,5,6,-2,28665,-2,-1,0,0,37199,93,26,79,0,0,0,0,0,0,0,0,-32293,0,0,0,4312,0,32298,0
27017,-562,-8214,626,1,9,-12,28665,9,5,-1,0,37192,82,26,79,0,0,0,0,0,0,0,0,-32293,0,0,0,4311,0,32318,0
27027,-564,-8206,654,-4,-2,-16,28664,1,1,0,0,37197,66,26,79,0,0,0,0,0,0,0,0,-32292,0,0,0,4311,0,32338,0
27037,-538,-8238,634,-22,7,-20,28664,-2,3,0,0,37204,72,26,79,0,0,0,0,0,0,0,0,-32293,0,0,0,4311,0,32358,0
27047,-526,-8194,620,-22,7,-26,28665,3,-1,-1,0,37203,77,26,79,0,0,0,0,0,0,0,0,-32292,0,0,0,4310,0,32378,0
27057,-486,-8198,590,-24,4,-37,28664,-4,-5,0,0,37198,88,26,79,0,0,0,0,0,0,0,0,-32292,0,0,0,4310,0,32398,0
27067,-512,-8202,598,-31,-2,-38,28665,4,0,0,0,37197,75,26,79,0,0,0,0,0,0,0,0,-32292,0,0,0,4311,0,32418,0
27077,-518,-8220,570,-32,5,-33,28663,-5,-3,-1,0,37203,63,26,79,0,0,0,0,0,0,0,0,-32293,0,0,0,4310,0,32438,0
27087,-474,-8190,568,-29,2,-44,28664,-1,0,1,0,37206,76,26,79,0,0,0,0,0,0,0,0,-32292,0,0,0,4311,0,32458,0
27097,-514,-8242,554,-22,5,-38,28664,2,-4,2,0,37201,85,26,79,0,0,0,0,0,0,0,0,-32292,0,0,0,4308,0,32478,0
27107,-490,-8228,582,-26,7,-33,28662,-6,-1,-1,0,37199,82,26,79,0,0,0,0,0,0,0,0,-32292,0,0,0,4308,0,32498,0
27117,-424,-8164,564,-25,6,-42,28662,0,4,0,0,37198,71,26,79,0,0,0,0,0,0,0,0,-32293,0,0,0,4308,0,32519,0
27127,-498,-8174,564,-17,-1,-28,28662,3,1,1,0,37198,67,26,79,0,0,0,0,0,0,0,0,-32293,0,0,0,4308,0,32539,0
27137,-508,-8274,578,-21,9,-27,28662,3,0,0,0,37192,76,26,79,0,0,0,0,0,0,0,0,-32292,0,0,0,4308,0,32559,0
27147,-504,-8212,602,-22,2,-31,28662,6,2,2,0,37192,74,26,79,0,0,0,0,0,0,0,0,-32292,0,0,0,4307,0,32579,0
27157,-512,-8176,616,-25,-3,-34,28660,0,0,3,0,37192,67,26,79,0,0,0,0,0,0,0,0,-32292,0,0,0,4308,0,32599,0
27167,-546,-8240,610,-31,3,-34,28661,1,-6,3,0,37199,71,26,79,0,0,0,0,0,0,0,0,-32292,0,0,0,4307,0,32619,0
27177,-466,-8226,622,-29,0,-47,28661,2,-5,3,0,37195,91,26,79,0,0,0,0,0,0,0,0,-32292,0,0,0,4307,0,32639,0
27187,-462,-8178,616,-37,-1,-51,28658,0,2,7,0,37190,93,26,79,0,0,0,0,0,0,0,0,-32292,0,0,0,4306,0,32659,0
27197,-460,-8234,574,-35,-3,-39,28657,-9,-3,6,0,37189,75,26,79,0,0,0,0,0,0,0,0,-32292,0,0,0,4307,0,32679,0
27207,-436,-8234,572,-32,0,-35,28654,-11,3,8,0,37191,61,26,79,0,0,0,0,0,0,0,0,-32292,0,0,0,4305,0,32699,0
27217,-438,-8228,562,-28,1,-42,28655,1,0,12,0,37189,67,26,79,0,0,0,0,0,0,0,0,-32292,0,0,0,4305,0,32719,0
27227,-470,-8250,580,-33,1,-40,28650,-8,-1,12,0,37183,66,26,79,0,0,0,0,0,0,0,0,-32292,0,0,0,4306,0,32739,0
27237,-454,-8194,596,-29,5,-31,28650,4,3,14,0,37183,60,26,79,0,0,0,0,0,0,0,0,-32292,0,0,0,4304,0,32759,0
27247,-430,-8170,600,-27,0,-39,28646,0,3,15,0,37189,57,26,79,0,0,0,0,0,0,0,0,-32292,0,0,0,4305,0,32779,0
27257,-480,-8224,608,-34,-4,-33,28642,-11,-7,18,0,37192,72,26,79,0,0,0,0,0,0,0,0,-32292,0,0,0,4304,0,32799,0
27267,-500,-8218,612,-32,-2,-41,28640,-6,-5,22,0,37188,72,26,79,0,0,0,0,0,0,0,0,-32293,0,0,0,4302,0,32819,0
27277,-444,-8200,590,-34,6,-44,28634,-15,-5,29,0,37186,66,26,79,0,0,0,0,0,0,0,0,-32292,0,0,0,4303,0,32839,0
27287,-436,-8258,596,-37,9,-50,28624,-25,-14,53,0,37189,47,26,79,0,0,0,0,0,0,0,0,-32292,0,0,0,4301,0,32859,0
27297,-492,-8232,558,-31,33,-73,28606,-47,-25,92,0,37196,46,26,79,0,0,0,0,0,0,0,0,-32292,0,0,0,4301,0,32879,0
27307,-606,-8162,570,-33,50,-77,28585,-38,-21,86,0,37187,64,26,79,0,0,0,0,0,0,0,0,-32292,0,0,0,4299,0,32899,0
27317,-240,-8248,622,-34,18,-37,28579,-4,29,23,0,37182,82,26,79,0,0,0,0,0,0,0,0,-32292,0,0,0,4299,0,32919,0
27327,-206,-8218,622,-41,-8,-14,28578,-1,39,11,0,37180,71,26,79,0,0,0,0,0,0,0,0,-32292,0,0,0,4299,0,32939,0
27337,-522,-8230,584,-41,-2,-14,28577,9,8,13,0,37187,72,26,79,0,0,0,0,0,0,0,0,-32292,0,0,0,4299,0,32959,0
27347,-546,-8202,538,-35,9,-16,28573,-7,-2,16,0,37189,82,26,79,0,0,0,0,0,0,0,0,-32292,0,0,0,4298,0,32979,0
27357,-406,-8242,544,-29,20,-24,28568,-13,-8,23,0,37180,83,26,79,0,0,0,0,0,0,0,0,-32293,0,0,0,4298,0,32999,0
27367,-326,-8192,602,-36,21,-24,28563,-14,-6,33,0,37181,74,26,79,0,0,0,0,0,0,0,0,-32293,0,0,0,4297,0,33019,0
27377,-402,-8190,632,-28,18,-23,28554,-25,-6,50,0,37201,67,26,79,0,0,0,0,0,0,0,0,-32292,0,0,0,4297,0,33039,0
27387,-492,-8258,604,-27,29,-38,28540,-34,-17,67,0,37206,72,26,79,0,0,0,0,0,0,0,0,-32292,0,0,0,4296,0,33059,0
27397,-510,-8170,578,-29,34,-31,28529,-14,1,44,0,37198,90,26,79,0,0,0,0,0,0,0,0,-32292,0,0,0,4296,0,33079,0
27407,-278,-8200,606,-33,15,-13,28528,-3,29,6,0,37182,94,26,79,0,0,0,0,0,0,0,0,-32292,0,0,0,4296,0,33099,0
27417,-344,-8234,652,-36,-4,6,28527,-1,12,6,0,37178,91,26,79,0,0,0,0,0,0,0,0,-32292,0,0,0,4295,0,33119,0
27427,-504,-8214,608,-35,2,-1,28527,3,6,3,0,37180,82,26,79,0,0,0,0,0,0,0,0,-32293,0,0,0,4295,0,33139,0
27437,-458,-8180,564,-34,17,-8,28526,-7,0,5,0,37180,88,26,79,0,0,0,0,0,0,0,0,-32292,0,0,0,4296,0,33159,0
27447,-362,-8244,578,-32,17,-5,28525,0,-5,8,0,37175,99,26,79,0,0,0,0,0,0,0,0,-32292,0,0,0,4295,0,33179,0
27457,-364,-8194,642,-36,6,7,28525,4,3,4,0,37172,88,26,79,0,0,0,0,0,0,0,0,-32292,0,0,0,4295,0,33199,0
27467,-404,-8212,592,-39,8,2,28525,1,3,2,0,37176,87,26,79,0,0,0,0,0,0,0,0,-32292,0,0,0,4296,0,33219,0
27477,-444,-8218,582,-37,17,5,28523,-8,1,5,0,37178,96,26,79,0,0,0,0,0,0,0,0,-32292,0,0,0,4295,0,33239,0
27487,-402,-8242,606,-32,13,6,28525,1,5,1,0,37182,117,26,79,0,0,0,0,0,0,0,0,-32292,0,0,0,4295,0,33259,0
27497,-336,-8190,610,-37,5,8,28524,-1,-1,1,0,37180,118,26,79,0,0,0,0,0,0,0,0,-32293,0,0,0,4293,0,33279,0
27507,-390,-8204,614,-36,5,18,28523,-1,-1,2,0,37183,102,26,79,0,0,0,0,0,0,0,0,-32293,0,0,0,4295,0,33299,0
27517,-456,-8194,614,-41,16,16,28523,0,-3,0,0,37180,94,26,79,0,0,0,0,0,0,0,0,-32293,0,0,0,4294,0,33319,0
27527,-422,-8222,612,-40,13,11,28525,0,2,0,0,37176,91,26,79,0,0,0,0,0,0,0,0,-32292,0,0,0,4295,0,33339,0
27537,-382,-8246,584,-37,14,17,28523,-4,-6,1,0,37173,94,26,79,0,0,0,0,0,0,0,0,-32292,0,0,0,4295,0,33359,0
27547,-418,-8246,628,-36,8,21,28523,-1,-1,1,0,37177,92,26,79,0,0,0,0,0,0,0,0,-32293,0,0,0,4295,0,33379,0
27557,-430,-8232,596,-36,19,22,28524,1,0,0,0,37181,93,26,79,0,0,0,0,0,0,0,0,-32292,0,0,0,4295,0,33399,0
27567,-404,-8174,644,-37,17,22,28524,-2,2,2,0,37183,101,26,79,0,0,0,0,0,0,0,0,-32292,0,0,0,4295,0,33419,0
27577,-428,-8218,638,-46,18,26,28525,4,1,-2,0,37175,95,26,79,0,0,0,0,0,0,0,0,-32292,0,0,0,4294,0,33439,0
27587,-448,-8202,648,-38,10,22,28525,0,1,0,0,37174,92,26,79,0,0,0,0,0,0,0,0,-32292,0,0,0,4295,0,33459,0
27597,-432,-8220,630,-45,15,17,28526,5,5,2,0,37176,94,26,79,0,0,0,0,0,0,0,0,-32292,0,0,0,4293,0,33479,0
27607,-446,-8238,630,-46,17,22,28526,8,4,0,0,37177,101,26,79,0,0,0,0,0,0,0,0,-32292,0,0,0,4296,0,33499,0
27617,-436,-8204,652,-52,20,20,28525,0,0,-1,0,37174,101,26,79,0,0,0,0,0,0,0,0,-32293,0,0,0,4294,0,33519,0
27627,-396,-8222,620,-52,17,23,28525,6,0,0,0,37172,105,26,79,0,0,0,0,0,0,0,0,-32292,0,0,0,4295,0,33539,0
27637,-444,-8236,606,-52,24,25,28527,2,7,0,0,37173,99,26,79,0,0,0,0,0,0,0,0,-32293,0,0,0,4294,0,33559,0
27647,-404,-8218,612,-48,19,26,28525,0,-6,0,0,37172,104,26,79,0,0,0,0,0,0,0,0,-32292,0,0,0,4295,0,33579,0
27657,-460,-8236,576,-50,16,25,28527,5,7,1,0,37173,100,26,79,0,0,0,0,0,0,0,0,-32293,0,0,0,4295,0,33599,0
27667,-444,-8212,606,-46,21,23,28527,7,1,1,0,37172,97,26,79,0,0,0,0,0,0,0,0,-32292,0,0,0,4295,0,33619,0
27677,-442,-8186,614,-47,23,27,28526,1,-1,1,0,37173,83,26,79,0,0,0,0,0,0,0,0,-32293,0,0,0,4296,0,33639,0
27687,-478,-8226,612,-52,24,23,28527,-1,3,0,0,37185,87,26,79,0,0,0,0,0,0,0,0,-32292,0,0,0,4294,0,33659,0
27697,-462,-8252,612,-53,19,26,28527,7,0,1,0,37186,104,26,79,0,0,0,0,0,0,0,0,-32292,0,0,0,4297,0,33679,0
27707,-454,-8234,626,-49,20,24,28527,1,4,0,0,37186,117,26,79,0,0,0,0,0,0,0,0,-32293,0,0,0,4296,0,33699,0
27717,-446,-8216,602,-57,15,23,28527,-4,2,1,0,37172,107,26,79,0,0,0,0,0,0,0,0,-32292,0,0,0,4295,0,33719,0
27727,-434,-8220,620,-53,23,26,28528,2,0,1,0,37171,90,26,79,0,0,0,0,0,0,0,0,-32293,0,0,0,4296,0,33739,0
27737,-456,-8220,594,-48,17,25,28526,-4,-1,-1,0,37176,101,26,79,0,0,0,0,0,0,0,0,-32293,0,0,0,4296,0,33759,0
27747,-476,-8220,606,-51,16,28,28526,0,-1,0,0,37178,102,26,79,0,0,0,0,0,0,0,0,-32292,0,0,0,4296,0,33779,0
27757,-442,-8202,588,-54,21,27,28529,4,8,1,0,37178,108,26,79,0,0,0,0,0,0,0,0,-32293,0,0,0,4296,0,33799,0
27767,-436,-8206,606,-48,26,33,28527,-1,-1,0,0,37179,101,26,79,0,0,0,0,0,0,0,0,-32293,0,0,0,4296,0,33819,0
27777,-428,-8206,592,-50,18,31,28528,5,3,-1,0,37181,102,26,79,0,0,0,0,0,0,0,0,-32292,0,0,0,4296,0,33839,0
27787,-458,-8198,620,-43,20,31,28529,-5,-8,0,0,37183,114,26,79,0,0,0,0,0,0,0,0,-32292,0,0,0,4296,0,33859,0
27797,-462,-8218,608,-48,23,34,28529,7,0,0,0,37183,123,26,79,0,0,0,0,0,0,0,0,-32293,0,0,0,4297,0,33879,0
27807,-484,-8212,610,-51,21,28,28529,-1,-6,0,0,37180,109,26,79,0,0,0,0,0,0,0,0,-32292,0,0,0,4296,0,33899,0
27817,-496,-8232,632,-51,17,21,28529,1,-3,0,0,37180,107,26,79,0,0,0,0,0,0,0,0,-32292,0,0,0,4297,0,33919,0
27827,-482,-8210,622,-51,23,24,28529,1,-2,0,0,37180,105,26,79,0,0,0,0,0,0,0,0,-32292,0,0,0,4297,0,33939,0
27837,-448,-8212,588,-49,21,21,28529,0,3,0,0,37180,113,26,79,0,0,0,0,0,0,0,0,-32293,0,0,0,4297,0,33959,0
27847,-438,-8208,588,-54,14,19,28530,11,0,2,0,37180,112,26,79,0,0,0,0,0,0,0,0,-32293,0,0,0,4297,0,33979,0
27857,-454,-8194,584,-56,22,24,28529,5,-1,1,0,37180,96,26,79,0,0,0,0,0,0,0,0,-32292,0,0,0,4297,0,33999,0
27867,-468,-8186,614,-54,18,25,28530,3,-4,1,0,37182,96,26,79,0,0,0,0,0,0,0,0,-32292,0,0,0,4297,0,34019,0
27877,-458,-8224,622,-54,18,17,28528,-14,1,0,0,37181,94,26,79,0,0,0,0,0,0,0,0,-32292,0,0,0,4298,0,34039,0
27887,-478,-8236,612,-53,15,22,28530,-2,0,-1,0,37183,101,26,79,0,0,0,0,0,0,0,0,-32292,0,0,0,4298,0,34059,0
27897,-446,-8220,594,-50,17,18,28530,1,3,1,0,37189,99,26,79,0,0,0,0,0,0,0,0,-32292,0,0,0,4297,0,34079,0
27907,-456,-8210,604,-54,18,20,28530,1,0,0,0,37188,90,26,79,0,0,0,0,0,0,0,0,-32292,0,0,0,4297,0,34099,0
27917,-446,-8222,604,-52,14,20,28531,1,-5,1,0,37188,100,26,79,0,0,0,0,0,0,0,0,-32292,0,0,0,4298,0,34119,0
27927,-490,-8210,592,-54,12,24,28531,2,-2,1,0,37185,101,26,79,0,0,0,0,0,0,0,0,-32293,0,0,0,4298,0,34139,0
27937,-468,-8206,588,-52,20,15,28530,-4,1,0,0,37184,105,26,79,0,0,0,0,0,0,0,0,-32292,0,0,0,4298,0,34159,0
27947,-478,-8216,600,-55,21,20,28530,-3,-4,1,0,37183,97,26,79,0,0,0,0,0,0,0,0,-32292,0,0,0,4299,0,34179,0
27957,-474,-8212,614,-56,20,21,28530,-7,-4,2,0,37183,116,26,79,0,0,0,0,0,0,0,0,-32292,0,0,0,4298,0,34199,0
27967,-478,-8222,614,-51,16,14,28530,0,-1,0,0,37183,114,26,79,0,0,0,0,0,0,0,0,-32292,0,0,0,4299,0,34219,0
27977,-446,-8200,602,-53,12,18,28530,-1,4,0,0,37183,119,26,79,0,0,0,0,0,0,0,0,-32292,0,0,0,4298,0,34239,0
27987,-448,-8178,590,-53,14,24,28529,-4,2,2,0,37184,109,26,79,0,0,0,0,0,0,0,0,-32292,0,0,0,4298,0,34259,0
27997,-468,-8190,602,-58,12,22,28532,3,1,0,0,37189,102,26,79,0,0,0,0,0,0,0,0,-32292,0,0,0,4299,0,34279,0
28007,-474,-8234,594,-54,12,18,28532,5,-3,0,0,37191,107,26,79,0,0,0,0,0,0,0,0,-32292,0,0,0,4299,0,34299,0
28017,-506,-8204,588,-50,14,23,28531,0,2,2,0,37189,112,26,79,0,0,0,0,0,0,0,0,-32292,0,0,0,4298,0,34319,0
28027,-444,-8218,586,-52,17,16,28532,4,1,1,0,37186,96,26,79,0,0,0,0,0,0,0,0,-32292,0,0,0,4299,0,34339,0
28037,-442,-8196,598,-46,18,24,28530,-6,0,0,0,37181,99,26,79,0,0,0,0,0,0,0,0,-32292,0,0,0,4299,0,34359,0
28047,-456,-8202,616,-50,13,24,28531,1,0,1,0,37182,100,26,79,0,0,0,0,0,0,0,0,-32292,0,0,0,4299,0,34379,0
28057,-460,-8222,612,-50,10,33,28532,6,-2,2,0,37183,103,26,79,0,0,0,0,0,0,0,0,-32292,0,0,0,4300,0,34399,0
28067,-492,-8228,608,-52,15,28,28532,9,-2,2,0,37181,99,26,79,0,0,0,0,0,0,0,0,-32292,0,0,0,4300,0,34419,0
28077,-512,-8214,608,-51,10,20,28531,0,1,1,0,37182,91,26,79,0,0,0,0,0,0,0,0,-32293,0,0,0,4301,0,34439,0
28087,-516,-8250,592,-51,16,21,28532,-3,2,1,0,37182,94,26,79,0,0,0,0,0,0,0,0,-32292,0,0,0,4300,0,34459,0
28097,-468,-8200,604,-54,13,22,28532,6,-3,2,0,37184,102,26,79,0,0,0,0,0,0,0,0,-32292,0,0,0,4301,0,34479,0
28107,-464,-8178,572,-49,15,25,28530,-1,4,3,0,37185,111,26,79,0,0,0,0,0,0,0,0,-32293,0,0,0,4301,0,34499,0
28117,-440,-8228,566,-50,17,29,28531,1,3,1,0,37181,106,26,79,0,0,0,0,0,0,0,0,-32293,0,0,0,4300,0,34520,0
28127,-464,-8194,628,-54,10,30,28531,0,3,1,0,37179,105,26,79,0,0,0,0,0,0,0,0,-32293,0,0,0,4301,0,34540,0
28137,-486,-8210,588,-56,12,29,28530,0,0,2,0,37180,115,26,79,0,0,0,0,0,0,0,0,-32292,0,0,0,4302,0,34560,0
28147,-448,-8234,596,-44,8,35,28531,2,-2,2,0,37180,128,26,79,0,0,0,0,0,0,0,0,-32292,0,0,0,4302,0,34580,0
28157,-488,-8200,628,-53,10,40,28531,1,-2,0,0,37179,123,26,79,0,0,0,0,0,0,0,0,-32293,0,0,0,4301,0,34600,0
28167,-486,-8188,626,-51,8,38,28531,0,2,0,0,37177,112,26,79,0,0,0,0,0,0,0,0,-32292,0,0,0,4302,0,34620,0
28177,-482,-8204,622,-56,10,35,28531,1,-1,1,0,37173,109,26,79,0,0,0,0,0,0,0,0,-32292,0,0,0,4303,0,34640,0
28187,-508,-8212,608,-54,7,39,28531,2,-2,0,0,37174,115,26,79,0,0,0,0,0,0,0,0,-32293,0,0,0,4303,0,34660,0
28197,-510,-8218,606,-56,9,34,28532,3,-2,1,0,37177,120,26,79,0,0,0,0,0,0,0,0,-32293,0,0,0,4304,0,34680,0
28207,-488,-8224,576,-58,12,32,28532,7,-2,2,0,37176,123,26,79,0,0,0,0,0,0,0,0,-32293,0,0,0,4304,0,34700,0
28217,-492,-8206,602,-56,14,28,28530,-2,2,1,0,37183,117,26,79,0,0,0,0,0,0,0,0,-32292,0,0,0,4305,0,34720,0
28227,-506,-8196,596,-60,15,32,28532,0,-2,1,0,37184,118,26,79,0,0,0,0,0,0,0,0,-32293,0,0,0,4305,0,34740,0
28237,-568,-8244,612,-62,9,31,28532,8,-2,1,0,37186,120,26,79,0,0,0,0,0,0,0,0,-32292,0,0,0,4305,0,34760,0
28247,-540,-8220,626,-59,19,26,28531,-2,-1,2,0,37179,110,26,79,0,0,0,0,0,0,0,0,-32293,0,0,0,4306,0,34780,0
28257,-496,-8202,618,-60,15,20,28531,5,-3,2,0,37177,114,26,79,0,0,0,0,0,0,0,0,-32292,0,0,0,4306,0,34800,0
28267,-462,-8202,620,-65,12,14,28531,-5,2,1,0,37175,119,26,79,0,0,0,0,0,0,0,0,-32292,0,0,0,4306,0,34820,0
28277,-504,-8234,612,-66,16,16,28530,0,0,0,0,37174,125,26,79,0,0,0,0,0,0,0,0,-32292,0,0,0,4307,0,34840,0
28287,-512,-8170,592,-65,21,13,28530,-5,2,3,0,37179,126,26,79,0,0,0,0,0,0,0,0,-32292,0,0,0,4306,0,34860,0
28297,-522,-8212,580,-69,16,6,28530,-1,-5,0,0,37180,126,26,79,0,0,0,0,0,0,0,0,-32293,0,0,0,4307,0,34880,0
28307,-514,-8224,586,-65,18,4,28532,4,5,0,0,37177,129,26,79,0,0,0,0,0,0,0,0,-32292,0,0,0,4306,0,34900,0
28317,-502,-8200,576,-64,14,8,28530,-1,-3,0,0,37179,117,26,79,0,0,0,0,0,0,0,0,-32292,0,0,0,4307,0,34920,0
28327,-474,-8210,586,-65,18,9,28531,5,0,2,0,37178,112,26,79,0,0,0,0,0,0,0,0,-32292,0,0,0,4306,0,34940,0
28337,-504,-8230,590,-67,15,8,28531,0,4,1,0,37181,112,26,79,0,0,0,0,0,0,0,0,-32292,0,0,0,4306,0,34960,0
28347,-472,-8226,586,-69,17,4,28531,-3,-1,1,0,37173,114,26,79,0,0,0,0,0,0,0,0,-32292,0,0,0,4308,0,34980,0
28357,-488,-8194,576,-67,16,11,28531,1,-2,1,0,37171,114,26,79,0,0,0,0,0,0,0,0,-32292,0,0,0,4307,0,35000,0
28367,-488,-8188,592,-66,15,12,28530,-6,-1,1,0,37169,116,26,79,0,0,0,0,0,0,0,0,-32292,0,0,0,4307,0,35020,0
28377,-486,-8170,588,-63,20,17,28531,0,-3,1,0,37172,123,26,79,0,0,0,0,0,0,0,0,-32292,0,0,0,4306,0,35040,0
28387,-518,-8220,592,-66,14,14,28531,1,0,1,0,37175,116,26,79,0,0,0,0,0,0,0,0,-32292,0,0,0,4306,0,35060,0
28397,-522,-8232,564,-65,24,6,28531,5,2,0,0,37172,116,26,79,0,0,0,0,0,0,0,0,-32292,0,0,0,4308,0,35080,0
28407,-472,-8210,560,-62,20,10,28532,0,4,0,0,37171,119,26,79,0,0,0,0,0,0,0,0,-32293,0,0,0,4307,0,35100,0
28417,-482,-8178,598,-60,19,11,28531,0,-4,0,0,37180,119,26,79,0,0,0,0,0,0,0,0,-32292,0,0,0,4308,0,35120,0
28427,-462,-8210,570,-59,16,15,28530,-15,2,0,0,37180,116,26,79,0,0,0,0,0,0,0,0,-32292,0,0,0,4308,0,35140,0
28437,-478,-8208,562,-65,18,30,28531,6,-5,2,0,37180,121,26,79,0,0,0,0,0,0,0,0,-32292,0,0,0,4307,0,35160,0
28447,-462,-8202,578,-62,16,26,28532,6,3,1,0,37172,130,26,79,0,0,0,0,0,0,0,0,-32292,0,0,0,4308,0,35180,0
28457,-462,-8202,558,-59,11,40,28531,-5,-2,2,0,37173,136,26,79,0,0,0,0,0,0,0,0,-32292,0,0,0,4307,0,35200,0
28467,-472,-8224,570,-60,7,39,28532,-4,-1,2,0,37172,125,26,79,0,0,0,0,0,0,0,0,-32292,0,0,0,4308,0,35220,0
28477,-468,-8218,542,-55,7,54,28532,3,-1,1,0,37173,112,26,79,0,0,0,0,0,0,0,0,-32292,0,0,0,4308,0,35240,0
28487,-494,-8194,544,-53,9,56,28532,1,1,1,0,37178,114,26,79,0,0,0,0,0,0,0,0,-32292,0,0,0,4309,0,35260,0
28497,-532,-8202,558,-49,7,44,28531,0,-1,1,0,37177,116,26,79,0,0,0,0,0,0,0,0,-32292,0,0,0,4310,0,35280,0
28507,-578,-8202,574,-50,5,42,28531,0,1,1,0,37173,120,26,79,0,0,0,0,0,0,0,0,-32292,0,0,0,4310,0,35300,0
28517,-584,-8222,564,-48,14,34,28530,-1,-6,0,0,37172,120,26,79,0,0,0,0,0,0,0,0,-32292,0,0,0,4311,0,35320,0
28527,-544,-8236,592,-50,13,26,28531,0,-3,1,0,37178,117,26,79,0,0,0,0,0,0,0,0,-32292,0,0,0,4311,0,35340,0
28537,-536,-8190,582,-48,13,22,28532,7,0,0,0,37181,116,26,79,0,0,0,0,0,0,0,0,-32292,0,0,0,4311,0,35360,0
28547,-532,-8226,592,-50,11,17,28531,0,2,1,0,37180,120,26,79,0,0,0,0,0,0,0,0,-32292,0,0,0,4311,0,35380,0
28557,-516,-8226,602,-54,10,21,28531,4,-2,1,0,37174,117,26,79,0,0,0,0,0,0,0,0,-32292,0,0,0,4311,0,35400,0
28567,-552,-8176,570,-50,14,15,28532,0,5,1,0,37177,119,26,79,0,0,0,0,0,0,0,0,-32292,0,0,0,4311,0,35420,0
28577,-488,-8234,558,-50,12,14,28532,-2,1,0,0,37177,117,26,79,0,0,0,0,0,0,0,0,-32292,0,0,0,4311,0,35440,0
28587,-490,-8202,554,-47,15,17,28531,0,-6,2,0,37176,123,26,79,0,0,0,0,0,0,0,0,-32292,0,0,0,4312,0,35460,0
28597,-528,-8214,606,-47,14,19,28532,0,6,2,0,37174,131,26,79,0,0,0,0,0,0,0,0,-32292,0,0,0,4311,0,35480,0
28607,-494,-8216,590,-51,13,23,28532,3,-2,1,0,37175,128,26,79,0,0,0,0,0,0,0,0,-32292,0,0,0,4311,0,35500,0
28617,-516,-8206,572,-50,15,14,28531,-2,-3,1,0,37176,123,26,79,0,0,0,0,0,0,0,0,-32292,0,0,0,4313,0,35520,0
28627,-528,-8210,568,-45,10,21,28530,-5,1,0,0,37181,119,26,79,0,0,0,0,0,0,0,0,-32292,0,0,0,4311,0,35540,0
28637,-532,-8216,558,-44,11,19,28530,-4,1,2,0,37180,120,26,79,0,0,0,0,0,0,0,0,-32292,0,0,0,4311,0,35560,0
28647,-550,-8214,590,-47,11,11,28531,1,-2,2,0,37185,118,26,79,0,0,0,0,0,0,0,0,-32292,0,0,0,4313,0,35580,0
28657,-564,-8184,580,-47,12,9,28530,-8,-4,1,0,37193,117,26,79,0,0,0,0,0,0,0,0,-32292,0,0,0,4314,0,35600,0
28667,-544,-8228,564,-51,15,9,28532,-3,2,1,0,37206,116,26,79,0,0,0,0,0,0,0,0,-32292,0,0,0,4314,0,35620,0
28677,-510,-8206,586,-43,11,2,28532,3,1,1,0,37205,118,26,79,0,0,0,0,0,0,0,0,-32292,0,0,0,4313,0,35640,0
28687,-524,-8212,594,-45,14,5,28531,2,2,0,0,37191,114,26,79,0,0,0,0,0,0,0,0,-32292,0,0,0,4313,0,35660,0
28697,-528,-8194,590,-50,16,5,28532,0,1,1,0,37183,116,26,79,0,0,0,0,0,0,0,0,-32292,0,0,0,4313,0,35680,0
28707,-570,-8212,624,-49,10,6,28530,0,-4,1,0,37180,120,26,79,0,0,0,0,0,0,0,0,-32293,0,0,0,4313,0,35700,0
28717,-534,-8208,558,-46,14,5,28532,0,4,0,0,37180,124,26,79,0,0,0,0,0,0,0,0,-32292,0,0,0,4313,0,35720,0
28727,-476,-8222,554,-45,10,6,28530,-2,0,1,0,37180,111,26,79,0,0,0,0,0,0,0,0,-32292,0,0,0,4313,0,35740,0
28737,-522,-8204,570,-45,12,4,28531,-3,-1,1,0,37182,116,26,79,0,0,0,0,0,0,0,0,-32292,0,0,0,4313,0,35760,0
28747,-518,-8198,612,-52,5,7,28532,3,1,2,0,37184,128,26,79,0,0,0,0,0,0,0,0,-32292,0,0,0,4313,0,35780,0
28757,-516,-8190,560,-49,12,2,28531,0,-2,1,0,37181,131,26,79,0,0,0,0,0,0,0,0,-32292,0,0,0,4314,0,35800,0
28767,-486,-8214,594,-51,13,10,28531,0,2,1,0,37180,129,26,79,0,0,0,0,0,0,0,0,-32293,0,0,0,4313,0,35820,0
28777,-508,-8238,624,-43,13,10,28532,0,-3,1,0,37181,125,26,79,0,0,0,0,0,0,0,0,-32293,0,0,0,4313,0,35840,0
28787,-494,-8198,612,-48,15,10,28531,5,-2,1,0,37183,124,26,79,0,0,0,0,0,0,0,0,-32293,0,0,0,4313,0,35860,0
28797,-472,-8210,570,-52,18,12,28531,-3,1,2,0,37181,123,26,79,0,0,0,0,0,0,0,0,-32293,0,0,0,4313,0,35880,0
28807,-502,-8232,552,-48,16,18,28531,0,-3,1,0,37180,121,26,79,0,0,0,0,0,0,0,0,-32293,0,0,0,4314,0,35900,0
28817,-522,-8214,570,-50,16,18,28529,-3,2,0,0,37180,118,26,79,0,0,0,0,0,0,0,0,-32293,0,0,0,4313,0,35920,0
28827,-542,-8236,588,-49,13,29,28530,-5,0,1,0,37184,114,26,79,0,0,0,0,0,0,0,0,-32292,0,0,0,4313,0,35940,0
28837,-490,-8220,572,-50,10,29,28532,7,0,1,0,37191,106,26,79,0,0,0,0,0,0,0,0,-32292,0,0,0,4315,0,35960,0
28847,-532,-8188,584,-50,11,26,28531,0,2,1,0,37189,109,26,79,0,0,0,0,0,0,0,0,-32292,0,0,0,4315,0,35980,0
28857,-526,-8214,600,-46,13,21,28531,0,-1,2,0,37189,116,26,79,0,0,0,0,0,0,0,0,-32293,0,0,0,4315,0,36000,0
28867,-534,-8214,612,-49,11,26,28532,5,-1,2,0,37185,112,26,79,0,0,0,0,0,0,0,0,-32292,0,0,0,4316,0,36020,0
28877,-536,-8220,598,-52,11,18,28532,1,-2,0,0,37187,107,26,79,0,0,0,0,0,0,0,0,-32293,0,0,0,4316,0,36040,0
28887,-548,-8222,576,-55,6,17,28530,-7,4,1,0,37189,109,26,79,0,0,0,0,0,0,0,0,-32292,0,0,0,4316,0,36060,0
28897,-532,-8200,598,-58,14,22,28532,0,0,1,0,37186,124,26,79,0,0,0,0,0,0,0,0,-32292,0,0,0,4316,0,36080,0
28907,-536,-8186,600,-58,14,22,28531,-1,3,1,0,37183,121,26,79,0,0,0,0,0,0,0,0,-32292,0,0,0,4316,0,36100,0
28917,-510,-8202,592,-56,18,15,28531,-8,1,1,0,37183,117,26,79,0,0,0,0,0,0,0,0,-32292,0,0,0,4316,0,36120,0
28927,-566,-8200,562,-59,16,16,28531,-1,-1,0,0,37183,120,26,79,0,0,0,0,0,0,0,0,-32292,0,0,0,4316,0,36140,0
28937,-534,-8180,578,-58,15,12,28531,3,-4,0,0,37191,121,26,79,0,0,0,0,0,0,0,0,-32292,0,0,0,4317,0,36160,0
28947,-562,-8212,586,-66,13,6,28531,2,0,2,0,37191,119,26,79,0,0,0,0,0,0,0,0,-32292,0,0,0,4316,0,36180,0
28957,-566,-8186,582,-66,15,2,28532,-4,-6,1,0,37191,117,26,79,0,0,0,0,0,0,0,0,-32292,0,0,0,4316,0,36200,0
28967,-568,-8192,564,-69,11,4,28531,-1,-3,0,0,37186,118,26,79,0,0,0,0,0,0,0,0,-32292,0,0,0,4317,0,36220,0
28977,-658,-8230,634,-78,7,-19,28530,1,5,2,0,37186,115,26,79,0,0,0,0,0,0,0,0,-32292,0,0,0,4316,0,36240,0
28987,-650,-8220,616,-77,10,-21,28531,-2,-4,0,0,37183,120,26,79,0,0,0,0,0,0,0,0,-32292,0,0,0,4316,0,36260,0
28997,-614,-8238,718,-101,-1,-47,28531,5,2,0,0,37183,116,26,79,0,0,0,0,0,0,0,0,-32292,0,0,0,4316,0,36280,0
29007,-562,-8228,712,-100,6,-58,28531,0,0,1,0,37183,120,26,79,0,0,0,0,0,0,0,0,-32292,0,0,0,4316,0,36300,0
29017,-528,-8216,604,-110,12,-64,28531,1,0,0,0,37185,109,26,79,0,0,0,0,0,0,0,0,-32292,0,0,0,4313,0,36320,0
29027,-464,-8212,548,-114,18,-66,28531,-2,1,1,0,37184,109,26,79,0,0,0,0,0,0,0,0,-32293,0,0,0,4313,0,36340,0
29037,-350,-8222,506,-103,18,-45,28531,1,1,-2,0,37183,109,26,79,0,0,0,0,0,0,0,0,-32292,0,0,0,4311,0,36360,0
