state_time,accelx,accely,accelz,gyrox,gyroy,gyroz,mot_ang,mot_vel,mot_acc,mot_cur,mot_volt,batt_volt,batt_curr,temperature,status_mn,status_ex,status_re,genvar_0,genvar_1,genvar_2,genvar_3,genvar_4,genvar_5,genvar_6,genvar_7,genvar_8,genvar_9,ank_ang,ank_vel,sys_time,event flags
19523,-234,-8276,698,-52,41,18,5371,0,-4,0,0,37574,281,25,79,0,0,0,0,0,0,0,0,-32318,0,0,0,4026,0,7793,0
19533,-248,-8242,720,-50,39,12,5371,6,3,0,0,37571,280,25,79,0,0,0,0,0,0,0,0,-32317,0,0,0,4025,0,19543,0
19543,-242,-8276,732,-57,43,8,5370,-10,1,1,0,37569,281,25,79,0,0,0,0,0,0,0,0,-32317,0,0,0,4025,0,19564,0
19553,-244,-8248,724,-53,41,9,5372,3,5,0,0,37577,282,25,79,0,0,0,0,0,0,0,0,-32317,0,0,0,4025,0,19584,0
19563,-226,-8266,744,-50,48,8,5370,-1,0,0,0,37590,282,25,79,0,0,0,0,0,0,0,0,-32317,0,0,0,4025,0,19604,0
19573,-206,-8282,724,-49,44,13,5370,1,5,1,0,37591,291,25,79,0,0,0,0,0,0,0,0,-32317,0,0,0,4024,0,19624,0
19583,-176,-8254,718,-50,37,11,5373,7,-5,0,0,37584,290,25,79,0,0,0,0,0,0,0,0,-32318,0,0,0,4024,0,19644,0
19593,-204,-8280,712,-49,38,16,5370,0,1,1,0,37577,289,25,79,0,0,0,0,0,0,0,0,-32317,0,0,0,4025,0,19667,0
19603,-230,-8280,726,-54,40,16,5371,2,-3,0,0,37573,289,25,79,0,0,0,0,0,0,0,0,-32317,0,0,0,4025,0,19687,0
19613,-216,-8244,710,-50,43,20,5370,5,5,2,0,37575,283,25,79,0,0,0,0,0,0,0,0,-32317,0,0,0,4024,0,19707,0
19623,-232,-8262,740,-51,45,19,5371,6,-3,0,0,37574,283,25,79,0,0,0,0,0,0,0,0,-32318,0,0,0,4025,0,19727,0
19633,-232,-8244,754,-50,43,18,5369,3,1,1,0,37575,282,25,79,0,0,0,0,0,0,0,0,-32317,0,0,0,4024,0,19747,0
19643,-218,-8250,740,-53,46,19,5371,0,5,0,0,37577,280,25,79,0,0,0,0,0,0,0,0,-32317,0,0,0,4025,0,19767,0
19653,-238,-8272,714,-56,40,17,5370,-5,0,1,0,37580,287,25,79,0,0,0,0,0,0,0,0,-32318,0,0,0,4025,0,19787,0
19663,-232,-8270,720,-53,44,24,5371,0,1,0,0,37578,286,25,79,0,0,0,0,0,0,0,0,-32318,0,0,0,4025,0,19807,0
19673,-232,-8308,724,-59,42,22,5370,-2,3,0,0,37577,284,25,79,0,0,0,0,0,0,0,0,-32317,0,0,0,4025,0,19827,0
19683,-212,-8280,728,-54,42,17,5370,-5,-4,0,0,37574,285,25,79,0,0,0,0,0,0,0,0,-32318,0,0,0,4025,0,19847,0
19693,-238,-8258,742,-53,42,23,5369,-1,7,0,0,37575,283,25,79,0,0,0,0,0,0,0,0,-32317,0,0,0,4025,0,19867,0
19703,-230,-8288,706,-56,40,19,5371,1,-4,0,0,37575,283,25,79,0,0,0,0,0,0,0,0,-32317,0,0,0,4026,0,19887,0
19713,-226,-8252,714,-56,39,18,5369,0,4,0,0,37574,275,25,79,0,0,0,0,0,0,0,0,-32318,0,0,0,4025,0,19907,0
19723,-252,-8274,702,-57,40,19,5371,-1,-1,0,0,37574,276,25,79,0,0,0,0,0,0,0,0,-32317,0,0,0,4025,0,19928,0
19733,-236,-8252,716,-53,40,12,5372,0,-4,0,0,37578,280,25,79,0,0,0,0,0,0,0,0,-32317,0,0,0,4025,0,19948,0
19743,-246,-8284,698,-51,43,14,5371,0,-2,0,0,37578,286,25,79,0,0,0,0,0,0,0,0,-32318,0,0,0,4025,0,19968,0
19753,-200,-8280,732,-52,40,13,5372,0,6,1,0,37580,286,25,79,0,0,0,0,0,0,0,0,-32317,0,0,0,4026,0,19988,0
19763,-174,-8256,712,-48,47,13,5370,-3,-6,0,0,37582,284,25,79,0,0,0,0,0,0,0,0,-32317,0,0,0,4025,0,20008,0
19773,-194,-8268,730,-52,44,11,5371,-2,0,0,0,37585,283,25,79,0,0,0,0,0,0,0,0,-32318,0,0,0,4027,0,20028,0
19783,-208,-8296,724,-48,42,17,5371,-2,-2,1,0,37586,275,25,79,0,0,0,0,0,0,0,0,-32317,0,0,0,4025,0,20048,0
19793,-188,-8266,736,-54,42,18,5370,-14,4,0,0,37582,273,25,79,0,0,0,0,0,0,0,0,-32317,0,0,0,4025,0,20068,0
19803,-220,-8250,714,-55,38,20,5371,3,-3,0,0,37585,271,25,79,0,0,0,0,0,0,0,0,-32317,0,0,0,4025,0,20088,0
19813,-210,-8300,710,-56,39,17,5371,0,2,0,0,37587,277,25,79,0,0,0,0,0,0,0,0,-32317,0,0,0,4026,0,20108,0
19823,-226,-8244,742,-58,38,21,5370,-3,-6,1,0,37586,285,25,79,0,0,0,0,0,0,0,0,-32317,0,0,0,4025,0,20128,0
19833,-258,-8270,712,-56,45,13,5371,-1,2,1,0,37583,283,25,79,0,0,0,0,0,0,0,0,-32318,0,0,0,4025,0,20148,0
19843,-254,-8266,700,-55,40,14,5371,9,3,1,0,37583,280,25,79,0,0,0,0,0,0,0,0,-32317,0,0,0,4024,0,20168,0
19853,-258,-8250,722,-56,42,6,5372,0,5,0,0,37583,281,25,79,0,0,0,0,0,0,0,0,-32317,0,0,0,4025,0,20188,0
19863,-248,-8266,716,-56,42,10,5372,12,1,0,0,37588,281,25,79,0,0,0,0,0,0,0,0,-32318,0,0,0,4025,0,20208,0
19873,-232,-8266,718,-56,36,12,5371,-8,6,0,0,37584,287,25,79,0,0,0,0,0,0,0,0,-32317,0,0,0,4025,0,20228,0
19883,-184,-8254,736,-50,45,9,5372,7,4,0,0,37582,283,25,79,0,0,0,0,0,0,0,0,-32318,0,0,0,4025,0,20247,0
19893,-202,-8262,730,-54,42,14,5371,-3,0,0,0,37576,283,25,79,0,0,0,0,0,0,0,0,-32317,0,0,0,4025,0,20268,0
19903,-202,-8282,752,-55,40,17,5371,-1,1,0,0,37576,283,25,79,0,0,0,0,0,0,0,0,-32317,0,0,0,4026,0,20288,0
19913,-214,-8258,722,-54,41,23,5370,-6,-3,0,0,37576,281,25,79,0,0,0,0,0,0,0,0,-32317,0,0,0,4025,0,20307,0
19923,-210,-8264,704,-55,37,23,5371,-2,-4,1,0,37576,288,25,79,0,0,0,0,0,0,0,0,-32318,0,0,0,4026,0,20328,0
19933,-248,-8256,704,-52,45,16,5371,0,2,0,0,37576,285,25,79,0,0,0,0,0,0,0,0,-32317,0,0,0,4026,0,20347,0
19943,-236,-8244,724,-54,39,16,5371,-2,1,0,0,37573,286,25,79,0,0,0,0,0,0,0,0,-32317,0,0,0,4026,0,20368,0
19953,-244,-8242,732,-49,39,17,5371,9,0,0,0,37572,288,25,79,0,0,0,0,0,0,0,0,-32317,0,0,0,4025,0,20387,0
19963,-192,-8250,720,-47,41,18,5370,2,5,2,0,37577,296,25,79,0,0,0,0,0,0,0,0,-32318,0,0,0,4025,0,20408,0
19973,-208,-8260,718,-54,44,14,5372,3,4,0,0,37578,294,25,79,0,0,0,0,0,0,0,0,-32318,0,0,0,4026,0,20428,0
19983,-246,-8272,718,-51,44,16,5371,0,3,1,0,37576,283,25,79,0,0,0,0,0,0,0,0,-32318,0,0,0,4024,0,20448,0
19993,-222,-8276,718,-48,44,9,5372,10,5,0,0,37571,286,25,79,0,0,0,0,0,0,0,0,-32318,0,0,0,4024,0,20468,0
20003,-212,-8260,706,-49,44,15,5371,2,0,0,0,37570,282,25,79,0,0,0,0,0,0,0,0,-32317,0,0,0,4025,0,20488,0
20013,-216,-8252,732,-51,43,14,5371,1,2,0,0,37571,287,25,79,0,0,0,0,0,0,0,0,-32318,0,0,0,4025,0,20508,0
20023,-186,-8290,742,-46,37,19,5370,-3,-4,1,0,37572,285,25,79,0,0,0,0,0,0,0,0,-32318,0,0,0,4025,0,20528,0
20033,-238,-8272,746,-52,41,18,5370,-8,-2,0,0,37572,280,25,79,0,0,0,0,0,0,0,0,-32318,0,0,0,4025,0,20548,0
20043,-204,-8234,732,-46,35,22,5370,-6,-1,1,0,37570,275,25,79,0,0,0,0,0,0,0,0,-32318,0,0,0,4025,0,20568,0
20053,-198,-8262,728,-51,45,21,5371,-7,1,1,0,37572,282,25,79,0,0,0,0,0,0,0,0,-32318,0,0,0,4025,0,20588,0
20063,-202,-8260,720,-52,42,18,5371,3,-2,0,0,37573,282,25,79,0,0,0,0,0,0,0,0,-32317,0,0,0,4025,0,20608,0
20073,-218,-8266,720,-57,46,22,5371,2,-1,1,0,37580,287,25,79,0,0,0,0,0,0,0,0,-32318,0,0,0,4025,0,20628,0
20083,-210,-8284,724,-49,41,17,5371,4,0,0,0,37575,279,25,79,0,0,0,0,0,0,0,0,-32317,0,0,0,4025,0,20648,0
20093,-226,-8274,730,-55,39,22,5369,-3,-3,0,0,37573,276,25,79,0,0,0,0,0,0,0,0,-32318,0,0,0,4025,0,20668,0
20103,-254,-8272,708,-47,39,15,5371,1,-2,1,0,37568,282,25,79,0,0,0,0,0,0,0,0,-32317,0,0,0,4025,0,20688,0
20113,-240,-8244,690,-49,40,20,5371,-2,-10,2,0,37571,287,25,79,0,0,0,0,0,0,0,0,-32318,0,0,0,4026,0,20708,0
20123,-216,-8278,710,-49,40,16,5370,-6,4,0,0,37568,292,25,79,0,0,0,0,0,0,0,0,-32317,0,0,0,4025,0,20728,0
20133,-222,-8242,744,-49,43,20,5371,0,4,1,0,37567,288,25,79,0,0,0,0,0,0,0,0,-32317,0,0,0,4025,0,20748,0
20143,-200,-8276,762,-52,41,22,5371,1,2,0,0,37565,289,25,79,0,0,0,0,0,0,0,0,-32317,0,0,0,4025,0,20768,0
20153,-204,-8272,730,-51,41,28,5373,10,-1,0,0,37567,282,25,79,0,0,0,0,0,0,0,0,-32318,0,0,0,4026,0,20788,0
20163,-214,-8246,738,-52,42,21,5371,2,8,0,0,37565,283,25,79,0,0,0,0,0,0,0,0,-32318,0,0,0,4026,0,20808,0
20173,-224,-8286,730,-54,40,25,5369,-2,0,0,0,37571,275,25,79,0,0,0,0,0,0,0,0,-32318,0,0,0,4026,0,20828,0
20183,-202,-8280,706,-54,35,27,5371,-1,4,0,0,37570,277,25,79,0,0,0,0,0,0,0,0,-32318,0,0,0,4026,0,20848,0
20193,-238,-8228,708,-51,38,28,5371,-3,-5,0,0,37572,276,25,79,0,0,0,0,0,0,0,0,-32318,0,0,0,4027,0,20868,0
20203,-254,-8264,702,-51,37,22,5370,4,3,1,0,37567,271,25,79,0,0,0,0,0,0,0,0,-32318,0,0,0,4026,0,20888,0
20213,-252,-8266,720,-51,42,18,5370,-2,2,0,0,37565,273,25,79,0,0,0,0,0,0,0,0,-32318,0,0,0,4026,0,20908,0
20223,-226,-8232,728,-53,38,13,5371,7,3,0,0,37564,279,25,79,0,0,0,0,0,0,0,0,-32318,0,0,0,4027,0,20928,0
20233,-218,-8268,734,-47,45,11,5371,-5,-2,0,0,37561,284,25,79,0,0,0,0,0,0,0,0,-32317,0,0,0,4027,0,20948,0
20243,-214,-8270,744,-55,42,14,5370,-10,-7,0,0,37561,283,25,79,0,0,0,0,0,0,0,0,-32318,0,0,0,4026,0,20968,0
20253,-224,-8276,760,-50,44,15,5371,1,2,2,0,37564,288,25,79,0,0,0,0,0,0,0,0,-32318,0,0,0,4026,0,20988,0
20263,-220,-8252,728,-56,41,19,5373,4,6,1,0,37565,289,25,79,0,0,0,0,0,0,0,0,-32317,0,0,0,4027,0,21008,0
20273,-224,-8300,712,-56,42,19,5370,3,5,4,0,37569,303,25,79,0,0,0,0,0,0,0,0,-32318,0,0,0,4027,0,21028,0
20283,-224,-8154,744,-54,40,24,5372,-4,-5,1,0,37568,290,25,79,0,0,0,0,0,0,0,0,-32318,0,0,0,4026,0,21048,0
20293,-294,-8136,836,-51,43,21,5370,-3,3,0,0,37566,284,25,79,0,0,0,0,0,0,0,0,-32318,0,0,0,4027,0,21068,0
20303,-232,-8220,644,-58,37,25,5371,-5,1,0,0,37562,271,25,79,0,0,0,0,0,0,0,0,-32317,0,0,0,4027,0,21088,0
20313,-210,-8288,556,-49,34,8,5369,-2,-3,2,0,37561,279,25,79,0,0,0,0,0,0,0,0,-32318,0,0,0,4026,0,21108,0
20323,-272,-8242,688,-34,37,21,5371,1,5,0,0,37562,286,25,79,0,0,0,0,0,0,0,0,-32317,0,0,0,4027,0,21128,0
20333,-140,-8378,784,-37,21,28,5371,5,2,0,0,37562,283,25,79,0,0,0,0,0,0,0,0,-32317,0,0,0,4028,0,21148,0
20343,-140,-8286,832,-45,17,28,5372,-4,1,0,0,37561,277,25,79,0,0,0,0,0,0,0,0,-32317,0,0,0,4028,0,21168,0
20353,-398,-8164,794,-48,-22,28,5370,-3,-2,0,0,37563,274,25,79,0,0,0,0,0,0,0,0,-32317,0,0,0,4028,0,21188,0
20363,-346,-8280,648,-45,-40,28,5372,5,4,0,0,37562,282,25,79,0,0,0,0,0,0,0,0,-32317,0,0,0,4029,0,21208,0
20373,-296,-8268,706,-38,-7,-8,5371,2,-3,3,0,37571,285,25,79,0,0,0,0,0,0,0,0,-32318,0,0,0,4030,0,21228,0
20383,-366,-8158,722,-36,24,-19,5371,8,-2,0,0,37571,281,25,79,0,0,0,0,0,0,0,0,-32317,0,0,0,4029,0,21248,0
20393,-336,-8080,828,-45,47,-21,5371,0,4,0,0,37574,273,25,79,0,0,0,0,0,0,0,0,-32317,0,0,0,4029,0,21268,0
20403,-170,-8344,740,-54,58,-29,5370,-1,4,2,0,37572,268,25,79,0,0,0,0,0,0,0,0,-32317,0,0,0,4029,0,21288,0
20413,-214,-8274,678,-50,73,-31,5371,0,4,0,0,37569,268,25,79,0,0,0,0,0,0,0,0,-32318,0,0,0,4027,0,21308,0
20423,-208,-8206,626,-42,64,-2,5371,1,4,0,0,37569,268,25,79,0,0,0,0,0,0,0,0,-32317,0,0,0,4027,0,21328,0
20433,-60,-8370,604,-31,35,3,5370,0,-2,0,0,37573,275,25,79,0,0,0,0,0,0,0,0,-32318,0,0,0,4027,0,21348,0
20443,-170,-8276,710,-20,21,6,5371,0,-5,1,0,37576,281,25,79,0,0,0,0,0,0,0,0,-32317,0,0,0,4027,0,21368,0
20453,-274,-8248,774,-12,-1,20,5371,14,5,0,0,37574,285,25,79,0,0,0,0,0,0,0,0,-32317,0,0,0,4028,0,21388,0
20463,-162,-8274,882,-29,10,20,5371,10,1,0,0,37573,289,25,79,0,0,0,0,0,0,0,0,-32317,0,0,0,4028,0,21408,0
20473,-260,-8242,942,-52,23,-7,5371,1,-2,0,0,37578,293,25,79,0,0,0,0,0,0,0,0,-32317,0,0,0,4028,0,21428,0
20483,-278,-8240,878,-66,55,7,5372,2,1,0,0,37579,292,25,79,0,0,0,0,0,0,0,0,-32317,0,0,0,4029,0,21448,0
20493,-168,-8250,774,-72,53,11,5370,3,4,0,0,37578,288,25,79,0,0,0,0,0,0,0,0,-32317,0,0,0,4028,0,21468,0
20503,-130,-8272,696,-74,59,4,5371,0,-2,1,0,37574,283,25,79,0,0,0,0,0,0,0,0,-32317,0,0,0,4028,0,21488,0
20513,-206,-8274,608,-76,46,31,5370,2,-5,1,0,37570,281,25,79,0,0,0,0,0,0,0,0,-32317,0,0,0,4028,0,21508,0
20523,-200,-8256,616,-60,37,45,5371,0,0,0,0,37571,285,25,79,0,0,0,0,0,0,0,0,-32318,0,0,0,4028,0,21528,0
20533,-202,-8296,632,-47,27,31,5371,-3,-2,1,0,37569,285,25,79,0,0,0,0,0,0,0,0,-32318,0,0,0,4029,0,21548,0
20543,-322,-8286,724,-43,25,28,5372,7,-1,1,0,37567,286,25,79,0,0,0,0,0,0,0,0,-32317,0,0,0,4029,0,21568,0
20553,-326,-8228,732,-51,25,27,5372,-1,4,1,0,37569,279,25,79,0,0,0,0,0,0,0,0,-32317,0,0,0,4029,0,21588,0
20563,-268,-8256,754,-53,27,-2,5370,0,1,0,0,37572,276,25,79,0,0,0,0,0,0,0,0,-32317,0,0,0,4029,0,21608,0
20573,-346,-8222,740,-47,44,-20,5371,-3,-1,1,0,37575,273,25,79,0,0,0,0,0,0,0,0,-32318,0,0,0,4029,0,21628,0
20583,-318,-8262,700,-48,55,-27,5370,-10,-2,-1,0,37581,278,25,79,0,0,0,0,0,0,0,0,-32318,0,0,0,4028,0,21648,0
20593,-152,-8294,706,-47,66,-39,5371,0,-5,0,0,37580,276,25,79,0,0,0,0,0,0,0,0,-32317,0,0,0,4027,0,21668,0
20603,-178,-8272,768,-48,75,-43,5371,5,-2,0,0,37580,284,25,79,0,0,0,0,0,0,0,0,-32317,0,0,0,4026,0,21688,0
20613,-180,-8190,744,-46,70,-19,5371,6,3,0,0,37575,283,25,79,0,0,0,0,0,0,0,0,-32318,0,0,0,4025,0,21708,0
20623,-54,-8304,722,-50,53,-11,5371,2,4,0,0,37574,281,25,79,0,0,0,0,0,0,0,0,-32317,0,0,0,4025,0,21728,0
20633,-78,-8286,740,-51,39,7,5370,0,0,1,0,37573,280,25,79,0,0,0,0,0,0,0,0,-32318,0,0,0,4024,0,21748,0
20643,-138,-8260,746,-56,32,26,5372,6,4,1,0,37572,273,25,79,0,0,0,0,0,0,0,0,-32317,0,0,0,4025,0,21769,0
20653,-232,-8296,712,-49,26,25,5370,-5,2,0,0,37574,271,25,79,0,0,0,0,0,0,0,0,-32317,0,0,0,4024,0,21788,0
20663,-282,-8284,710,-47,35,9,5370,0,-2,0,0,37575,278,25,79,0,0,0,0,0,0,0,0,-32317,0,0,0,4026,0,21808,0
20673,-314,-8234,758,-53,46,4,5371,4,0,2,0,37573,280,25,79,0,0,0,0,0,0,0,0,-32317,0,0,0,4024,0,21828,0
20683,-242,-8266,702,-58,53,-4,5371,1,1,1,0,37579,282,25,79,0,0,0,0,0,0,0,0,-32317,0,0,0,4024,0,21848,0
20693,-170,-8294,724,-57,56,-10,5371,-2,1,1,0,37582,275,25,79,0,0,0,0,0,0,0,0,-32317,0,0,0,4024,0,21868,0
20703,-162,-8254,756,-52,60,1,5371,-4,0,0,0,37585,275,25,79,0,0,0,0,0,0,0,0,-32318,0,0,0,4024,0,21888,0
20713,-104,-8266,750,-54,39,22,5370,-12,-1,0,0,37579,278,25,79,0,0,0,0,0,0,0,0,-32317,0,0,0,4024,0,21908,0
20723,-32,-8302,772,-63,41,26,5371,2,4,0,0,37575,278,25,79,0,0,0,0,0,0,0,0,-32317,0,0,0,4024,0,21929,0
20733,-156,-8252,768,-70,32,48,5372,3,1,1,0,37573,286,25,79,0,0,0,0,0,0,0,0,-32317,0,0,0,4024,0,21949,0
20743,-198,-8256,728,-62,39,60,5370,-3,0,2,0,37575,291,25,79,0,0,0,0,0,0,0,0,-32317,0,0,0,4025,0,21969,0
20753,-168,-8268,710,-65,32,49,5370,-8,6,0,0,37577,296,25,79,0,0,0,0,0,0,0,0,-32317,0,0,0,4026,0,21989,0
20763,-252,-8250,728,-67,37,47,5371,-1,5,0,0,37575,291,25,79,0,0,0,0,0,0,0,0,-32317,0,0,0,4026,0,22009,0
20773,-302,-8242,682,-62,28,49,5370,-3,-3,1,0,37577,287,25,79,0,0,0,0,0,0,0,0,-32317,0,0,0,4027,0,22029,0
20783,-246,-8252,622,-58,28,34,5369,-2,-1,2,0,37580,286,25,79,0,0,0,0,0,0,0,0,-32317,0,0,0,4028,0,22049,0
20793,-314,-8284,680,-51,37,20,5370,-3,0,0,0,37580,279,25,79,0,0,0,0,0,0,0,0,-32317,0,0,0,4028,0,22069,0
20803,-308,-8250,710,-47,38,18,5370,-4,0,0,0,37579,284,25,79,0,0,0,0,0,0,0,0,-32317,0,0,0,4028,0,22089,0
20813,-250,-8276,706,-42,40,6,5369,0,-5,0,0,37578,283,25,79,0,0,0,0,0,0,0,0,-32317,0,0,0,4028,0,22109,0
20823,-246,-8292,718,-50,38,-7,5371,-1,4,0,0,37577,285,25,79,0,0,0,0,0,0,0,0,-32317,0,0,0,4027,0,22129,0
20833,-232,-8238,776,-45,50,7,5371,2,2,0,0,37578,278,25,79,0,0,0,0,0,0,0,0,-32318,0,0,0,4028,0,22149,0
20843,-160,-8268,748,-48,41,9,5370,-3,-2,1,0,37587,275,25,79,0,0,0,0,0,0,0,0,-32317,0,0,0,4026,0,22169,0
20853,-208,-8288,760,-52,39,-10,5370,0,-3,0,0,37597,284,25,79,0,0,0,0,0,0,0,0,-32317,0,0,0,4027,0,22189,0
20863,-236,-8254,738,-52,50,16,5370,-10,0,-1,0,37604,288,25,79,0,0,0,0,0,0,0,0,-32317,0,0,0,4027,0,22209,0
20873,-168,-8272,710,-49,44,14,5372,12,1,0,0,37596,290,25,79,0,0,0,0,0,0,0,0,-32317,0,0,0,4026,0,22229,0
20883,-134,-8294,718,-48,41,10,5373,10,12,0,0,37585,289,25,79,0,0,0,0,0,0,0,0,-32318,0,0,0,4027,0,22249,0
20893,-246,-8240,714,-47,42,16,5369,-5,-3,2,0,37579,286,25,79,0,0,0,0,0,0,0,0,-32317,0,0,0,4027,0,22269,0
20903,-242,-8240,712,-47,38,24,5371,4,5,0,0,37577,285,25,79,0,0,0,0,0,0,0,0,-32317,0,0,0,4027,0,22289,0
20913,-168,-8268,732,-47,39,11,5372,0,5,0,0,37577,281,25,79,0,0,0,0,0,0,0,0,-32318,0,0,0,4028,0,22309,0
20923,-210,-8236,728,-44,44,12,5371,-2,-3,1,0,37574,280,25,79,0,0,0,0,0,0,0,0,-32317,0,0,0,4027,0,22329,0
20933,-188,-8262,726,-53,40,29,5371,-1,-3,1,0,37574,277,25,79,0,0,0,0,0,0,0,0,-32317,0,0,0,4028,0,22349,0
20943,-180,-8286,726,-45,37,26,5371,11,0,2,0,37571,283,25,79,0,0,0,0,0,0,0,0,-32317,0,0,0,4028,0,22369,0
20953,-244,-8260,744,-49,41,25,5370,4,1,0,0,37571,280,25,79,0,0,0,0,0,0,0,0,-32317,0,0,0,4028,0,22389,0
20963,-268,-8216,730,-49,43,26,5370,-1,-2,0,0,37573,286,25,79,0,0,0,0,0,0,0,0,-32317,0,0,0,4027,0,22409,0
20973,-204,-8302,746,-52,43,21,5371,-2,2,0,0,37574,284,25,79,0,0,0,0,0,0,0,0,-32317,0,0,0,4027,0,22429,0
20983,-242,-8278,756,-57,48,15,5371,2,2,0,0,37571,279,25,79,0,0,0,0,0,0,0,0,-32317,0,0,0,4027,0,22449,0
20993,-222,-8242,710,-53,43,19,5370,0,-6,2,0,37576,267,25,79,0,0,0,0,0,0,0,0,-32317,0,0,0,4027,0,22469,0
21003,-232,-8298,712,-56,46,15,5370,1,1,0,0,37577,272,25,79,0,0,0,0,0,0,0,0,-32317,0,0,0,4027,0,22489,0
21013,-188,-8250,728,-51,50,8,5371,7,2,1,0,37578,268,25,79,0,0,0,0,0,0,0,0,-32317,0,0,0,4027,0,22509,0
21023,-252,-8258,744,-53,45,19,5371,4,2,0,0,37575,274,25,79,0,0,0,0,0,0,0,0,-32317,0,0,0,4027,0,22529,0
21033,-164,-8286,690,-56,45,17,5370,-5,0,0,0,37569,265,25,79,0,0,0,0,0,0,0,0,-32317,0,0,0,4028,0,22549,0
21043,-180,-8304,716,-51,38,25,5370,-3,-2,0,0,37571,267,25,79,0,0,0,0,0,0,0,0,-32317,0,0,0,4027,0,22569,0
21053,-230,-8242,712,-49,39,26,5372,7,3,0,0,37573,269,25,79,0,0,0,0,0,0,0,0,-32317,0,0,0,4028,0,22589,0
21063,-200,-8242,692,-51,32,29,5371,2,5,0,0,37576,275,25,79,0,0,0,0,0,0,0,0,-32317,0,0,0,4028,0,22609,0
21073,-202,-8268,726,-45,34,24,5371,7,2,0,0,37577,276,25,79,0,0,0,0,0,0,0,0,-32317,0,0,0,4028,0,22629,0
21083,-244,-8242,732,-49,38,23,5371,1,2,0,0,37576,273,25,79,0,0,0,0,0,0,0,0,-32317,0,0,0,4028,0,22649,0
21093,-232,-8248,760,-48,40,28,5372,7,1,1,0,37573,279,25,79,0,0,0,0,0,0,0,0,-32317,0,0,0,4029,0,22670,0
21103,-194,-8302,750,-50,35,18,5371,4,-1,0,0,37574,282,25,79,0,0,0,0,0,0,0,0,-32317,0,0,0,4028,0,22690,0
21113,-262,-8266,748,-57,43,16,5372,6,-2,0,0,37574,296,25,79,0,0,0,0,0,0,0,0,-32318,0,0,0,4029,0,22710,0
21123,-248,-8258,746,-54,44,22,5370,-6,-3,0,0,37573,289,25,79,0,0,0,0,0,0,0,0,-32317,0,0,0,4029,0,22730,0
21133,-150,-8268,734,-53,40,22,5370,0,3,1,0,37567,279,25,79,0,0,0,0,0,0,0,0,-32317,0,0,0,4029,0,22750,0
21143,-198,-8238,760,-56,45,22,5371,3,7,0,0,37564,276,25,79,0,0,0,0,0,0,0,0,-32317,0,0,0,4029,0,22770,0
21153,-216,-8248,726,-59,39,37,5369,-12,-6,1,0,37564,273,25,79,0,0,0,0,0,0,0,0,-32317,0,0,0,4029,0,22790,0
21163,-174,-8276,708,-58,34,35,5372,2,-3,0,0,37566,271,25,79,0,0,0,0,0,0,0,0,-32318,0,0,0,4030,0,22810,0
21173,-250,-8260,730,-51,31,32,5370,-4,-1,0,0,37564,272,25,79,0,0,0,0,0,0,0,0,-32318,0,0,0,4031,0,22830,0
21183,-252,-8244,708,-54,35,35,5369,-6,2,2,0,37563,276,25,79,0,0,0,0,0,0,0,0,-32318,0,0,0,4031,0,22850,0
21193,-232,-8248,720,-53,31,26,5373,2,-4,1,0,37563,281,25,79,0,0,0,0,0,0,0,0,-32318,0,0,0,4032,0,22870,0
21203,-260,-8272,736,-53,40,20,5372,0,0,0,0,37564,279,25,79,0,0,0,0,0,0,0,0,-32317,0,0,0,4032,0,22890,0
21213,-288,-8254,712,-55,41,17,5373,6,-4,0,0,37570,280,25,79,0,0,0,0,0,0,0,0,-32317,0,0,0,4031,0,22910,0
21223,-230,-8244,694,-49,41,14,5372,6,2,-1,0,37568,280,25,79,0,0,0,0,0,0,0,0,-32318,0,0,0,4031,0,22930,0
21233,-242,-8252,726,-52,42,12,5371,4,1,0,0,37565,283,25,79,0,0,0,0,0,0,0,0,-32317,0,0,0,4031,0,22950,0
21243,-246,-8240,712,-50,39,16,5371,-1,5,1,0,37560,279,25,79,0,0,0,0,0,0,0,0,-32318,0,0,0,4031,0,22970,0
21253,-226,-8244,726,-48,40,16,5370,-3,3,1,0,37562,276,25,79,0,0,0,0,0,0,0,0,-32317,0,0,0,4031,0,22990,0
21263,-220,-8296,730,-50,41,9,5370,-2,4,0,0,37564,278,25,79,0,0,0,0,0,0,0,0,-32317,0,0,0,4031,0,23010,0
21273,-244,-8242,730,-51,44,11,5371,6,5,1,0,37565,283,25,79,0,0,0,0,0,0,0,0,-32318,0,0,0,4030,0,23030,0
21283,-244,-8268,710,-45,42,10,5372,-1,3,0,0,37562,287,25,79,0,0,0,0,0,0,0,0,-32317,0,0,0,4029,0,23050,0
21293,-208,-8272,718,-51,40,7,5370,-5,-4,0,0,37561,281,25,79,0,0,0,0,0,0,0,0,-32318,0,0,0,4030,0,23070,0
21303,-228,-8276,722,-53,42,9,5370,-6,0,2,0,37560,282,25,79,0,0,0,0,0,0,0,0,-32318,0,0,0,4030,0,23090,0
21313,-232,-8256,734,-56,38,19,5370,-2,6,2,0,37569,281,25,79,0,0,0,0,0,0,0,0,-32317,0,0,0,4029,0,23110,0
21323,-200,-8284,738,-51,43,13,5369,-8,0,0,0,37568,283,25,79,0,0,0,0,0,0,0,0,-32317,0,0,0,4031,0,23130,0
21333,-248,-8270,736,-47,41,12,5369,0,4,0,0,37569,278,25,79,0,0,0,0,0,0,0,0,-32317,0,0,0,4030,0,23150,0
21343,-226,-8256,722,-57,40,15,5372,0,0,0,0,37567,271,25,79,0,0,0,0,0,0,0,0,-32317,0,0,0,4029,0,23170,0
21353,-190,-8266,724,-61,41,12,5371,-3,2,1,0,37565,281,25,79,0,0,0,0,0,0,0,0,-32317,0,0,0,4031,0,23190,0
21363,-242,-8262,710,-54,48,12,5372,0,-6,0,0,37563,278,25,79,0,0,0,0,0,0,0,0,-32317,0,0,0,4029,0,23210,0
21373,-226,-8252,702,-50,39,14,5371,7,-4,1,0,37563,283,25,79,0,0,0,0,0,0,0,0,-32318,0,0,0,4029,0,23230,0
21383,-188,-8266,720,-53,40,9,5371,-1,0,0,0,37562,276,25,79,0,0,0,0,0,0,0,0,-32317,0,0,0,4030,0,23250,0
21393,-224,-8274,716,-52,50,10,5369,-6,2,1,0,37563,278,25,79,0,0,0,0,0,0,0,0,-32317,0,0,0,4029,0,23270,0
21403,-228,-8266,710,-51,43,13,5370,-4,3,1,0,37563,277,25,79,0,0,0,0,0,0,0,0,-32317,0,0,0,4029,0,23290,0
21413,-234,-8302,718,-47,41,14,5371,0,-4,0,0,37563,280,25,79,0,0,0,0,0,0,0,0,-32318,0,0,0,4029,0,23310,0
21423,-232,-8242,738,-50,39,11,5369,-5,-4,1,0,37571,279,25,79,0,0,0,0,0,0,0,0,-32317,0,0,0,4030,0,23330,0
21433,-234,-8274,732,-52,41,9,5372,5,-1,0,0,37572,271,25,79,0,0,0,0,0,0,0,0,-32318,0,0,0,4029,0,23350,0
21443,-250,-8276,704,-53,45,11,5370,0,2,1,0,37573,278,25,79,0,0,0,0,0,0,0,0,-32317,0,0,0,4029,0,23370,0
21453,-236,-8268,730,-49,40,7,5371,2,-2,0,0,37570,281,25,79,0,0,0,0,0,0,0,0,-32317,0,0,0,4029,0,23390,0
21463,-218,-8264,726,-46,48,8,5370,-6,1,0,0,37566,283,25,79,0,0,0,0,0,0,0,0,-32317,0,0,0,4029,0,23410,0
21473,-210,-8290,716,-48,41,11,5370,-3,-1,0,0,37567,273,25,79,0,0,0,0,0,0,0,0,-32318,0,0,0,4031,0,23430,0
21483,-228,-8278,728,-48,41,8,5372,-5,3,1,0,37568,275,25,79,0,0,0,0,0,0,0,0,-32318,0,0,0,4031,0,23450,0
21493,-250,-8246,726,-53,41,13,5372,7,-2,1,0,37570,276,25,79,0,0,0,0,0,0,0,0,-32317,0,0,0,4029,0,23470,0
21503,-246,-8244,730,-52,38,13,5370,-7,-5,2,0,37569,279,25,79,0,0,0,0,0,0,0,0,-32318,0,0,0,4031,0,23490,0
21513,-190,-8234,766,-54,37,5,5370,-5,-2,0,0,37568,280,25,79,0,0,0,0,0,0,0,0,-32318,0,0,0,4029,0,23510,0
21523,-208,-8256,754,-55,47,11,5370,-2,1,0,0,37569,284,25,79,0,0,0,0,0,0,0,0,-32318,0,0,0,4029,0,23530,0
21533,-176,-8248,738,-48,44,23,5369,-2,4,1,0,37576,288,25,79,0,0,0,0,0,0,0,0,-32317,0,0,0,4029,0,23550,0
21543,-180,-8290,742,-56,36,23,5370,-9,1,1,0,37575,288,25,79,0,0,0,0,0,0,0,0,-32317,0,0,0,4028,0,23570,0
21553,-230,-8272,732,-52,38,24,5371,1,6,0,0,37575,289,25,79,0,0,0,0,0,0,0,0,-32318,0,0,0,4028,0,23590,0
21563,-220,-8266,704,-52,38,32,5371,7,5,0,0,37572,282,25,79,0,0,0,0,0,0,0,0,-32318,0,0,0,4029,0,23610,0
21573,-220,-8226,704,-53,39,25,5370,0,0,1,0,37573,277,25,79,0,0,0,0,0,0,0,0,-32317,0,0,0,4029,0,23630,0
21583,-238,-8284,730,-48,38,19,5373,4,2,1,0,37574,273,25,79,0,0,0,0,0,0,0,0,-32318,0,0,0,4030,0,23650,0
21593,-252,-8244,742,-51,39,17,5371,-3,-1,1,0,37572,276,25,79,0,0,0,0,0,0,0,0,-32317,0,0,0,4029,0,23670,0
21603,-258,-8248,720,-53,44,16,5370,-4,2,2,0,37574,282,25,79,0,0,0,0,0,0,0,0,-32317,0,0,0,4029,0,23690,0
21613,-242,-8270,748,-52,47,6,5371,-4,0,0,0,37574,288,25,79,0,0,0,0,0,0,0,0,-32317,0,0,0,4029,0,23710,0
21623,-276,-8258,722,-57,42,12,5371,0,-5,0,0,37572,282,25,79,0,0,0,0,0,0,0,0,-32318,0,0,0,4029,0,23730,0
21633,-198,-8272,718,-53,41,13,5370,-1,2,1,0,37572,284,25,79,0,0,0,0,0,0,0,0,-32317,0,0,0,4029,0,23750,0
21643,-190,-8256,702,-50,40,13,5372,8,1,0,0,37579,289,25,79,0,0,0,0,0,0,0,0,-32317,0,0,0,4029,0,23770,0
21653,-196,-8262,736,-52,41,25,5371,5,4,1,0,37582,281,25,79,0,0,0,0,0,0,0,0,-32317,0,0,0,4029,0,23790,0
21663,-226,-8280,704,-52,38,21,5372,6,3,0,0,37583,279,25,79,0,0,0,0,0,0,0,0,-32317,0,0,0,4031,0,23810,0
21673,-204,-8250,726,-51,39,23,5371,9,4,0,0,37579,272,25,79,0,0,0,0,0,0,0,0,-32317,0,0,0,4030,0,23830,0
21683,-230,-8266,740,-49,36,23,5371,4,8,0,0,37579,278,25,79,0,0,0,0,0,0,0,0,-32317,0,0,0,4031,0,23850,0
21693,-222,-8238,714,-49,44,13,5370,-6,-4,2,0,37579,287,25,79,0,0,0,0,0,0,0,0,-32317,0,0,0,4029,0,23871,0
21703,-224,-8266,722,-52,46,13,5372,12,3,1,0,37582,292,25,79,0,0,0,0,0,0,0,0,-32317,0,0,0,4029,0,23890,0
21713,-230,-8288,730,-56,41,18,5371,0,-2,1,0,37581,294,25,79,0,0,0,0,0,0,0,0,-32317,0,0,0,4029,0,23910,0
21723,-212,-8276,700,-51,40,16,5371,1,4,0,0,37579,292,25,79,0,0,0,0,0,0,0,0,-32317,0,0,0,4029,0,23931,0
21733,-208,-8286,716,-54,43,19,5371,2,-3,0,0,37577,282,25,79,0,0,0,0,0,0,0,0,-32317,0,0,0,4030,0,23951,0
21743,-204,-8294,704,-53,43,16,5370,0,1,1,0,37578,284,25,79,0,0,0,0,0,0,0,0,-32318,0,0,0,4031,0,23971,0
21753,-216,-8236,708,-49,40,23,5370,3,0,0,0,37576,286,25,79,0,0,0,0,0,0,0,0,-32317,0,0,0,4029,0,23991,0
21763,-226,-8258,716,-48,42,23,5372,0,-4,1,0,37577,291,25,79,0,0,0,0,0,0,0,0,-32317,0,0,0,4031,0,24011,0
21773,-232,-8242,746,-52,38,20,5371,-3,-3,0,0,37574,286,25,79,0,0,0,0,0,0,0,0,-32318,0,0,0,4030,0,24031,0
21783,-226,-8246,740,-55,43,25,5371,1,-2,1,0,37576,283,25,79,0,0,0,0,0,0,0,0,-32317,0,0,0,4029,0,24051,0
21793,-210,-8268,750,-53,43,19,5368,-12,-7,2,0,37577,278,25,79,0,0,0,0,0,0,0,0,-32317,0,0,0,4029,0,24071,0
21803,-216,-8266,724,-58,40,18,5371,0,1,0,0,37578,281,25,79,0,0,0,0,0,0,0,0,-32317,0,0,0,4029,0,24091,0
21813,-212,-8270,728,-52,41,28,5370,-3,-3,0,0,37576,282,25,79,0,0,0,0,0,0,0,0,-32317,0,0,0,4030,0,24111,0
21823,-230,-8274,720,-55,41,26,5371,0,-1,0,0,37576,280,25,79,0,0,0,0,0,0,0,0,-32317,0,0,0,4031,0,24131,0
21833,-244,-8274,714,-58,39,22,5370,0,3,0,0,37577,278,25,79,0,0,0,0,0,0,0,0,-32317,0,0,0,4031,0,24151,0
21843,-246,-8272,722,-54,38,20,5369,-5,-1,2,0,37580,280,25,79,0,0,0,0,0,0,0,0,-32318,0,0,0,4031,0,24171,0
21853,-238,-8256,718,-49,39,15,5371,3,-1,0,0,37582,294,25,79,0,0,0,0,0,0,0,0,-32317,0,0,0,4031,0,24191,0
21863,-244,-8260,706,-55,37,16,5371,-2,2,1,0,37579,298,25,79,0,0,0,0,0,0,0,0,-32317,0,0,0,4031,0,24211,0
21873,-250,-8298,712,-51,37,14,5369,-11,-7,0,0,37576,296,25,79,0,0,0,0,0,0,0,0,-32317,0,0,0,4032,0,24231,0
21883,-236,-8252,708,-48,43,16,5370,0,-7,1,0,37572,287,25,79,0,0,0,0,0,0,0,0,-32318,0,0,0,4032,0,24251,0
21893,-222,-8286,740,-52,42,13,5370,-1,-2,0,0,37574,284,25,79,0,0,0,0,0,0,0,0,-32317,0,0,0,4031,0,24271,0
21903,-212,-8262,724,-49,40,11,5372,-1,0,0,0,37574,284,25,79,0,0,0,0,0,0,0,0,-32317,0,0,0,4031,0,24291,0
21913,-210,-8252,724,-51,39,17,5371,-1,0,0,0,37571,288,25,79,0,0,0,0,0,0,0,0,-32318,0,0,0,4031,0,24311,0
21923,-204,-8292,720,-46,39,12,5371,0,-4,0,0,37570,284,25,79,0,0,0,0,0,0,0,0,-32317,0,0,0,4030,0,24331,0
21933,-240,-8246,716,-48,40,16,5371,-4,-2,0,0,37573,289,25,79,0,0,0,0,0,0,0,0,-32317,0,0,0,4031,0,24351,0
21943,-246,-8258,726,-49,42,17,5371,-3,-1,0,0,37574,287,25,79,0,0,0,0,0,0,0,0,-32317,0,0,0,4031,0,24371,0
21953,-214,-8262,704,-50,40,16,5371,9,1,0,0,37575,283,25,79,0,0,0,0,0,0,0,0,-32317,0,0,0,4031,0,24391,0
21963,-222,-8278,750,-52,42,12,5370,-7,-1,1,0,37575,282,25,79,0,0,0,0,0,0,0,0,-32317,0,0,0,4032,0,24411,0
21973,-220,-8246,734,-50,41,13,5370,-3,0,0,0,37575,284,25,79,0,0,0,0,0,0,0,0,-32318,0,0,0,4031,0,24431,0
21983,-202,-8274,736,-46,32,20,5372,5,4,0,0,37575,281,25,79,0,0,0,0,0,0,0,0,-32317,0,0,0,4032,0,24451,0
21993,-230,-8248,738,-52,41,18,5372,3,1,0,0,37570,282,25,79,0,0,0,0,0,0,0,0,-32317,0,0,0,4031,0,24471,0
22003,-244,-8238,704,-52,41,18,5372,7,3,0,0,37568,283,25,79,0,0,0,0,0,0,0,0,-32318,0,0,0,4031,0,24491,0
22013,-238,-8242,738,-49,44,12,5370,0,-1,2,0,37568,288,25,79,0,0,0,0,0,0,0,0,-32318,0,0,0,4031,0,24511,0
22023,-244,-8258,724,-53,40,12,5373,2,6,0,0,37570,290,25,79,0,0,0,0,0,0,0,0,-32317,0,0,0,4031,0,24531,0
22033,-238,-8262,752,-53,36,20,5371,8,0,0,0,37571,284,25,79,0,0,0,0,0,0,0,0,-32317,0,0,0,4031,0,24551,0
22043,-212,-8254,704,-48,44,15,5370,-3,3,0,0,37569,274,25,79,0,0,0,0,0,0,0,0,-32317,0,0,0,4031,0,24571,0
22053,-204,-8282,700,-51,46,14,5372,4,1,2,0,37568,277,25,79,0,0,0,0,0,0,0,0,-32318,0,0,0,4031,0,24591,0
22063,-200,-8256,720,-53,41,16,5371,0,1,2,0,37569,278,25,79,0,0,0,0,0,0,0,0,-32318,0,0,0,4031,0,24611,0
22073,-244,-8260,714,-48,36,17,5371,-3,1,0,0,37571,285,25,79,0,0,0,0,0,0,0,0,-32318,0,0,0,4031,0,24631,0
22083,-232,-8270,718,-55,35,24,5373,12,7,1,0,37571,286,25,79,0,0,0,0,0,0,0,0,-32317,0,0,0,4031,0,24651,0
22093,-238,-8222,718,-54,35,24,5370,-6,6,0,0,37571,282,25,79,0,0,0,0,0,0,0,0,-32318,0,0,0,4032,0,24671,0
22103,-256,-8268,708,-47,38,21,5372,9,2,0,0,37566,281,25,79,0,0,0,0,0,0,0,0,-32317,0,0,0,4032,0,24691,0
22113,-226,-8252,726,-51,42,14,5369,0,-2,0,0,37567,278,25,79,0,0,0,0,0,0,0,0,-32317,0,0,0,4032,0,24711,0
22123,-238,-8260,732,-46,41,11,5370,-4,-5,0,0,37577,279,25,79,0,0,0,0,0,0,0,0,-32318,0,0,0,4032,0,24731,0
22133,-206,-8242,700,-47,43,15,5371,0,-5,0,0,37579,284,25,79,0,0,0,0,0,0,0,0,-32318,0,0,0,4032,0,24751,0
22143,-212,-8286,710,-50,39,12,5370,-3,-8,2,0,37579,287,25,79,0,0,0,0,0,0,0,0,-32318,0,0,0,4032,0,24771,0
22153,-214,-8280,724,-49,37,16,5370,-8,-3,0,0,37572,285,25,79,0,0,0,0,0,0,0,0,-32317,0,0,0,4032,0,24791,0
22163,-228,-8268,734,-50,39,21,5371,7,0,0,0,37566,283,25,79,0,0,0,0,0,0,0,0,-32318,0,0,0,4032,0,24811,0
22173,-240,-8262,724,-58,44,15,5369,-1,10,1,0,37567,285,25,79,0,0,0,0,0,0,0,0,-32317,0,0,0,4032,0,24831,0
22183,-234,-8260,726,-50,38,14,5370,-3,-3,0,0,37565,289,25,79,0,0,0,0,0,0,0,0,-32318,0,0,0,4032,0,24851,0
22193,-248,-8240,720,-55,39,12,5371,8,1,0,0,37565,293,25,79,0,0,0,0,0,0,0,0,-32317,0,0,0,4032,0,24871,0
22203,-238,-8270,730,-53,43,13,5370,-3,-2,0,0,37563,289,25,79,0,0,0,0,0,0,0,0,-32318,0,0,0,4031,0,24891,0
22213,-200,-8252,716,-53,40,14,5371,-4,2,0,0,37562,278,25,79,0,0,0,0,0,0,0,0,-32317,0,0,0,4032,0,24911,0
22223,-188,-8248,700,-51,41,21,5372,2,-2,0,0,37562,278,25,79,0,0,0,0,0,0,0,0,-32318,0,0,0,4031,0,24931,0
22233,-226,-8286,716,-50,41,21,5372,-1,3,0,0,37563,279,25,79,0,0,0,0,0,0,0,0,-32317,0,0,0,4032,0,24951,0
22243,-222,-8284,726,-51,36,23,5369,-6,-1,0,0,37563,279,25,79,0,0,0,0,0,0,0,0,-32317,0,0,0,4032,0,24971,0
22253,-268,-8250,714,-50,43,20,5372,7,-4,0,0,37562,278,25,79,0,0,0,0,0,0,0,0,-32318,0,0,0,4032,0,24991,0
22263,-266,-8286,720,-52,42,15,5371,1,-3,0,0,37561,280,25,79,0,0,0,0,0,0,0,0,-32318,0,0,0,4032,0,25011,0
22273,-200,-8264,738,-54,41,17,5370,0,2,2,0,37565,287,25,79,0,0,0,0,0,0,0,0,-32317,0,0,0,4031,0,25031,0
22283,-206,-8240,732,-55,43,13,5370,-9,0,0,0,37565,284,25,79,0,0,0,0,0,0,0,0,-32317,0,0,0,4033,0,25051,0
22293,-214,-8258,758,-51,42,20,5370,-2,3,1,0,37568,276,25,79,0,0,0,0,0,0,0,0,-32318,0,0,0,4033,0,25071,0
22303,-212,-8270,734,-52,40,19,5370,-1,1,1,0,37565,272,25,79,0,0,0,0,0,0,0,0,-32317,0,0,0,4032,0,25092,0
22313,-226,-8248,732,-59,39,19,5371,4,0,0,0,37566,271,25,79,0,0,0,0,0,0,0,0,-32318,0,0,0,4032,0,25112,0
22323,-250,-8256,686,-51,40,21,5371,-5,2,0,0,37565,279,25,79,0,0,0,0,0,0,0,0,-32317,0,0,0,4033,0,25132,0
22333,-230,-8276,690,-54,35,15,5369,-10,2,0,0,37565,288,25,79,0,0,0,0,0,0,0,0,-32317,0,0,0,4034,0,25152,0
22343,-250,-8262,696,-48,34,14,5371,1,0,0,0,37566,301,25,79,0,0,0,0,0,0,0,0,-32317,0,0,0,4032,0,25172,0
22353,-234,-8252,706,-47,39,14,5372,8,0,1,0,37566,301,25,79,0,0,0,0,0,0,0,0,-32317,0,0,0,4032,0,25192,0
22363,-228,-8248,732,-47,38,14,5370,-6,0,-1,0,37565,295,25,79,0,0,0,0,0,0,0,0,-32317,0,0,0,4033,0,25212,0
22373,-228,-8254,720,-51,42,12,5370,3,-4,0,0,37567,298,25,79,0,0,0,0,0,0,0,0,-32317,0,0,0,4034,0,25232,0
22383,-240,-8260,748,-48,43,11,5371,2,2,0,0,37566,296,25,79,0,0,0,0,0,0,0,0,-32317,0,0,0,4032,0,25252,0
22393,-200,-8290,734,-49,41,14,5370,2,-3,0,0,37566,294,25,79,0,0,0,0,0,0,0,0,-32317,0,0,0,4033,0,25272,0
22403,-220,-8268,720,-49,43,12,5370,-6,-1,1,0,37564,287,25,79,0,0,0,0,0,0,0,0,-32317,0,0,0,4032,0,25292,0
22413,-182,-8282,704,-52,43,20,5370,3,2,2,0,37566,288,25,79,0,0,0,0,0,0,0,0,-32317,0,0,0,4032,0,25312,0
22423,-224,-8282,732,-52,38,22,5373,16,-1,1,0,37564,290,25,79,0,0,0,0,0,0,0,0,-32317,0,0,0,4032,0,25332,0
22433,-222,-8262,718,-52,39,16,5373,2,1,1,0,37563,280,25,79,0,0,0,0,0,0,0,0,-32317,0,0,0,4032,0,25352,0
22443,-270,-8266,700,-54,43,17,5372,10,-3,2,0,37566,275,25,79,0,0,0,0,0,0,0,0,-32317,0,0,0,4032,0,25372,0
22453,-258,-8282,706,-49,42,11,5371,2,-2,0,0,37568,276,25,79,0,0,0,0,0,0,0,0,-32317,0,0,0,4034,0,25392,0
22463,-242,-8266,694,-47,47,11,5370,-4,-3,0,0,37568,271,25,79,0,0,0,0,0,0,0,0,-32317,0,0,0,4032,0,25412,0
22473,-238,-8260,702,-51,40,4,5373,9,5,1,0,37564,275,25,79,0,0,0,0,0,0,0,0,-32317,0,0,0,4032,0,25432,0
22483,-232,-8252,708,-42,41,7,5370,6,5,1,0,37573,276,25,79,0,0,0,0,0,0,0,0,-32317,0,0,0,4032,0,25452,0
22493,-224,-8244,742,-46,42,7,5371,3,-4,1,0,37577,283,25,79,0,0,0,0,0,0,0,0,-32317,0,0,0,4032,0,25472,0
22503,-198,-8278,728,-50,49,14,5369,-7,-4,0,0,37577,289,25,79,0,0,0,0,0,0,0,0,-32317,0,0,0,4032,0,25492,0
22513,-210,-8282,732,-50,39,18,5370,2,-3,1,0,37566,284,25,79,0,0,0,0,0,0,0,0,-32317,0,0,0,4032,0,25512,0
22523,-196,-8264,728,-51,40,22,5371,1,5,1,0,37566,282,25,79,0,0,0,0,0,0,0,0,-32317,0,0,0,4032,0,25532,0
22533,-222,-8252,718,-53,39,23,5371,-6,0,0,0,37571,286,25,79,0,0,0,0,0,0,0,0,-32317,0,0,0,4032,0,25552,0
22543,-236,-8272,728,-50,37,29,5371,-1,-3,0,0,37573,283,25,79,0,0,0,0,0,0,0,0,-32317,0,0,0,4032,0,25572,0
22553,-266,-8270,702,-52,38,20,5372,7,-3,0,0,37571,291,25,79,0,0,0,0,0,0,0,0,-32317,0,0,0,4033,0,25592,0
22563,-282,-8258,710,-48,38,23,5371,6,-2,1,0,37567,295,25,79,0,0,0,0,0,0,0,0,-32317,0,0,0,4033,0,25612,0
22573,-278,-8270,712,-50,45,21,5370,-3,1,1,0,37568,288,25,79,0,0,0,0,0,0,0,0,-32317,0,0,0,4034,0,25632,0
22583,-216,-8274,708,-46,37,13,5369,-3,-3,0,0,37576,284,25,79,0,0,0,0,0,0,0,0,-32317,0,0,0,4033,0,25652,0
22593,-232,-8260,712,-54,42,14,5371,2,-2,0,0,37575,283,25,79,0,0,0,0,0,0,0,0,-32318,0,0,0,4032,0,25672,0
22603,-244,-8294,706,-53,39,11,5372,3,4,0,0,37575,285,25,79,0,0,0,0,0,0,0,0,-32317,0,0,0,4032,0,25692,0
22613,-210,-8274,746,-50,43,15,5372,10,-4,1,0,37570,280,25,79,0,0,0,0,0,0,0,0,-32317,0,0,0,4032,0,25712,0
22623,-220,-8282,738,-51,38,19,5370,5,1,0,0,37571,279,25,79,0,0,0,0,0,0,0,0,-32317,0,0,0,4033,0,25732,0
22633,-210,-8274,748,-56,44,16,5371,2,-1,0,0,37570,279,25,79,0,0,0,0,0,0,0,0,-32317,0,0,0,4032,0,25752,0
22643,-258,-8236,716,-51,44,21,5371,4,-2,0,0,37569,290,25,79,0,0,0,0,0,0,0,0,-32317,0,0,0,4033,0,25772,0
22653,-258,-8246,718,-57,36,18,5373,6,-3,1,0,37569,288,25,79,0,0,0,0,0,0,0,0,-32317,0,0,0,4033,0,25792,0
22663,-238,-8264,682,-55,37,18,5370,0,5,0,0,37573,288,25,79,0,0,0,0,0,0,0,0,-32317,0,0,0,4032,0,25812,0
22673,-262,-8254,704,-51,41,18,5371,8,3,0,0,37573,283,25,79,0,0,0,0,0,0,0,0,-32318,0,0,0,4032,0,25832,0
22683,-248,-8268,698,-49,38,17,5373,2,-3,0,0,37572,280,25,79,0,0,0,0,0,0,0,0,-32317,0,0,0,4033,0,25852,0
22693,-266,-8260,704,-46,44,6,5373,11,-1,2,0,37578,276,25,79,0,0,0,0,0,0,0,0,-32317,0,0,0,4033,0,25872,0
22703,-274,-8288,704,-53,45,5,5370,-4,-2,0,0,37580,275,25,79,0,0,0,0,0,0,0,0,-32317,0,0,0,4033,0,25892,0
22713,-254,-8274,726,-45,43,2,5369,-3,-1,1,0,37582,284,25,79,0,0,0,0,0,0,0,0,-32317,0,0,0,4032,0,25912,0
22723,-186,-8272,740,-47,43,8,5371,-1,-10,0,0,37574,291,25,79,0,0,0,0,0,0,0,0,-32317,0,0,0,4033,0,25932,0
22733,-202,-8266,736,-47,38,9,5372,0,-3,0,0,37572,290,25,79,0,0,0,0,0,0,0,0,-32318,0,0,0,4031,0,25952,0
22743,-234,-8266,738,-54,43,11,5371,-2,-3,0,0,37573,276,25,79,0,0,0,0,0,0,0,0,-32318,0,0,0,4032,0,25972,0
22753,-232,-8262,732,-51,42,11,5370,-8,-1,0,0,37577,275,25,79,0,0,0,0,0,0,0,0,-32317,0,0,0,4031,0,25992,0
22763,-218,-8266,728,-54,38,13,5371,3,7,0,0,37577,273,25,79,0,0,0,0,0,0,0,0,-32318,0,0,0,4032,0,26012,0
22773,-218,-8258,726,-51,40,13,5370,-2,-2,1,0,37574,285,25,79,0,0,0,0,0,0,0,0,-32317,0,0,0,4032,0,26032,0
22783,-216,-8300,730,-51,42,15,5369,-5,-5,0,0,37574,286,25,79,0,0,0,0,0,0,0,0,-32318,0,0,0,4032,0,26052,0
22793,-200,-8268,722,-51,41,17,5371,-2,-2,0,0,37577,287,25,79,0,0,0,0,0,0,0,0,-32318,0,0,0,4032,0,26072,0
22803,-238,-8242,748,-50,44,15,5372,5,1,0,0,37581,296,25,79,0,0,0,0,0,0,0,0,-32317,0,0,0,4032,0,26092,0
22813,-240,-8284,740,-57,44,17,5369,-4,-5,1,0,37580,297,25,79,0,0,0,0,0,0,0,0,-32317,0,0,0,4032,0,26112,0
22823,-234,-8246,720,-55,39,15,5371,-7,1,0,0,37579,296,25,79,0,0,0,0,0,0,0,0,-32317,0,0,0,4032,0,26132,0
22833,-216,-8264,692,-58,41,16,5372,0,-1,0,0,37576,284,25,79,0,0,0,0,0,0,0,0,-32317,0,0,0,4033,0,26152,0
22843,-210,-8282,718,-56,43,22,5370,0,-1,0,0,37576,280,25,79,0,0,0,0,0,0,0,0,-32317,0,0,0,4033,0,26172,0
22853,-212,-8276,712,-52,37,21,5371,2,1,1,0,37575,280,25,79,0,0,0,0,0,0,0,0,-32317,0,0,0,4033,0,26192,0
22863,-232,-8282,724,-55,39,25,5371,-3,-2,2,0,37574,283,25,79,0,0,0,0,0,0,0,0,-32317,0,0,0,4033,0,26212,0
22873,-246,-8290,710,-49,39,19,5371,15,-4,0,0,37574,279,25,79,0,0,0,0,0,0,0,0,-32317,0,0,0,4032,0,26232,0
22883,-260,-8276,716,-51,44,20,5370,-8,3,0,0,37573,277,25,79,0,0,0,0,0,0,0,0,-32317,0,0,0,4032,0,26252,0
22893,-244,-8266,728,-50,43,18,5371,6,-4,1,0,37574,284,25,79,0,0,0,0,0,0,0,0,-32317,0,0,0,4033,0,26272,0
22903,-254,-8238,720,-55,41,15,5371,2,5,1,0,37575,276,25,79,0,0,0,0,0,0,0,0,-32317,0,0,0,4033,0,26292,0
22913,-250,-8254,732,-54,38,13,5371,3,-1,0,0,37580,271,25,79,0,0,0,0,0,0,0,0,-32317,0,0,0,4034,0,26312,0
22923,-224,-8262,704,-54,41,19,5371,-1,2,-1,0,37579,273,25,79,0,0,0,0,0,0,0,0,-32317,0,0,0,4033,0,26332,0
22933,-248,-8252,718,-49,44,8,5370,-9,1,0,0,37584,273,25,79,0,0,0,0,0,0,0,0,-32317,0,0,0,4033,0,26352,0
22943,-218,-8288,714,-53,40,9,5371,-7,-1,0,0,37580,283,25,79,0,0,0,0,0,0,0,0,-32317,0,0,0,4033,0,26373,0
22953,-216,-8270,716,-53,43,9,5369,-9,-7,1,0,37579,278,25,79,0,0,0,0,0,0,0,0,-32317,0,0,0,4032,0,26393,0
22963,-224,-8270,714,-50,39,13,5370,3,2,1,0,37576,280,25,79,0,0,0,0,0,0,0,0,-32317,0,0,0,4032,0,26413,0
22973,-240,-8280,722,-53,36,12,5372,-2,5,2,0,37576,286,25,79,0,0,0,0,0,0,0,0,-32317,0,0,0,4033,0,26432,0
22983,-254,-8238,734,-52,39,11,5369,-7,-4,0,0,37576,290,25,79,0,0,0,0,0,0,0,0,-32317,0,0,0,4034,0,26452,0
22993,-266,-8276,706,-44,48,7,5372,9,3,0,0,37576,289,25,79,0,0,0,0,0,0,0,0,-32317,0,0,0,4032,0,26473,0
23003,-244,-8260,708,-49,37,7,5370,3,-1,0,0,37573,282,25,79,0,0,0,0,0,0,0,0,-32317,0,0,0,4032,0,26493,0
23013,-200,-8258,710,-49,42,6,5371,-1,3,0,0,37572,282,25,79,0,0,0,0,0,0,0,0,-32317,0,0,0,4032,0,26512,0
23023,-192,-8284,720,-49,37,10,5370,-15,-2,0,0,37571,284,25,79,0,0,0,0,0,0,0,0,-32317,0,0,0,4032,0,26532,0
23033,-218,-8280,690,-49,42,18,5370,-4,-7,0,0,37571,281,25,79,0,0,0,0,0,0,0,0,-32317,0,0,0,4032,0,26552,0
23043,-240,-8254,720,-51,37,18,5371,3,-3,0,0,37571,279,25,79,0,0,0,0,0,0,0,0,-32317,0,0,0,4031,0,26572,0
23053,-234,-8254,738,-44,45,16,5370,0,4,0,0,37571,276,25,79,0,0,0,0,0,0,0,0,-32317,0,0,0,4031,0,26592,0
23063,-214,-8256,740,-53,43,16,5372,-3,2,1,0,37570,284,25,79,0,0,0,0,0,0,0,0,-32317,0,0,0,4031,0,26612,0
23073,-212,-8252,736,-52,44,17,5369,-9,-6,0,0,37567,283,25,79,0,0,0,0,0,0,0,0,-32317,0,0,0,4031,0,26632,0
23083,-228,-8262,736,-55,40,18,5370,-2,-3,0,0,37568,286,25,79,0,0,0,0,0,0,0,0,-32317,0,0,0,4032,0,26652,0
23093,-212,-8276,720,-53,39,20,5371,-3,-3,0,0,37567,281,25,79,0,0,0,0,0,0,0,0,-32317,0,0,0,4032,0,26673,0
23103,-218,-8260,718,-58,47,22,5369,-12,-2,1,0,37566,281,25,79,0,0,0,0,0,0,0,0,-32317,0,0,0,4032,0,26693,0
23113,-208,-8262,692,-55,37,21,5371,-1,0,1,0,37573,282,25,79,0,0,0,0,0,0,0,0,-32317,0,0,0,4032,0,26713,0
23123,-256,-8272,698,-53,40,18,5369,-7,-2,0,0,37576,288,25,79,0,0,0,0,0,0,0,0,-32317,0,0,0,4032,0,26733,0
23133,-240,-8274,710,-49,39,18,5372,4,-1,0,0,37577,287,25,79,0,0,0,0,0,0,0,0,-32317,0,0,0,4032,0,26753,0
23143,-212,-8252,706,-52,44,24,5371,5,1,0,0,37572,292,25,79,0,0,0,0,0,0,0,0,-32317,0,0,0,4032,0,26774,0
23153,-234,-8264,726,-54,42,25,5371,3,-1,0,0,37563,289,25,79,0,0,0,0,0,0,0,0,-32317,0,0,0,4032,0,26794,0
23163,-236,-8292,764,-50,40,23,5370,-2,0,0,0,37562,286,25,79,0,0,0,0,0,0,0,0,-32317,0,0,0,4032,0,26814,0
23173,-218,-8264,724,-51,40,25,5371,0,2,0,0,37564,280,25,79,0,0,0,0,0,0,0,0,-32318,0,0,0,4032,0,26834,0
23183,-276,-8266,720,-61,41,21,5370,1,-2,1,0,37564,273,25,79,0,0,0,0,0,0,0,0,-32317,0,0,0,4033,0,26854,0
23193,-246,-8270,724,-55,47,18,5371,1,0,0,0,37564,270,25,79,0,0,0,0,0,0,0,0,-32317,0,0,0,4032,0,26874,0
23203,-254,-8282,692,-55,59,16,5371,-6,0,0,0,37561,273,25,79,0,0,0,0,0,0,0,0,-32317,0,0,0,4033,0,26894,0
23213,-234,-8282,714,-55,54,10,5370,0,2,1,0,37563,273,25,79,0,0,0,0,0,0,0,0,-32317,0,0,0,4032,0,26914,0
23223,-242,-8276,722,-59,54,11,5371,6,4,0,0,37572,269,25,79,0,0,0,0,0,0,0,0,-32317,0,0,0,4032,0,26934,0
23233,-208,-8254,726,-55,57,14,5370,-6,-2,0,0,37571,268,25,79,0,0,0,0,0,0,0,0,-32317,0,0,0,4031,0,26954,0
23243,-212,-8278,690,-53,39,14,5371,0,-4,1,0,37571,266,25,79,0,0,0,0,0,0,0,0,-32317,0,0,0,4031,0,26974,0
23253,-210,-8262,720,-54,39,22,5371,5,-5,1,0,37561,273,25,79,0,0,0,0,0,0,0,0,-32317,0,0,0,4031,0,26994,0
23263,-246,-8276,754,-54,37,20,5370,-3,-5,1,0,37561,278,25,79,0,0,0,0,0,0,0,0,-32317,0,0,0,4032,0,27014,0
23273,-254,-8276,740,-55,41,17,5371,-7,-1,0,0,37561,285,25,79,0,0,0,0,0,0,0,0,-32317,0,0,0,4032,0,27034,0
23283,-264,-8272,730,-55,44,11,5370,-7,-5,0,0,37559,289,25,79,0,0,0,0,0,0,0,0,-32318,0,0,0,4032,0,27054,0
23293,-268,-8268,704,-58,44,10,5369,-8,1,0,0,37559,286,25,79,0,0,0,0,0,0,0,0,-32317,0,0,0,4032,0,27074,0
23303,-250,-8262,698,-50,46,5,5370,2,3,2,0,37560,281,25,79,0,0,0,0,0,0,0,0,-32317,0,0,0,4030,0,27095,0
23313,-216,-8270,692,-50,47,6,5369,1,-1,1,0,37560,284,25,79,0,0,0,0,0,0,0,0,-32317,0,0,0,4031,0,27115,0
23323,-202,-8278,712,-51,42,14,5371,-8,-2,0,0,37567,279,25,79,0,0,0,0,0,0,0,0,-32317,0,0,0,4031,0,27135,0
23333,-194,-8240,740,-48,39,13,5371,-4,-5,0,0,37566,273,25,79,0,0,0,0,0,0,0,0,-32318,0,0,0,4031,0,27155,0
23343,-198,-8282,744,-49,37,20,5370,-5,-3,1,0,37567,277,25,79,0,0,0,0,0,0,0,0,-32317,0,0,0,4032,0,27175,0
23353,-232,-8254,718,-52,36,24,5372,2,3,0,0,37561,274,25,79,0,0,0,0,0,0,0,0,-32317,0,0,0,4031,0,27195,0
23363,-232,-8270,734,-55,37,23,5372,0,-2,0,0,37559,280,25,79,0,0,0,0,0,0,0,0,-32318,0,0,0,4031,0,27215,0
23373,-244,-8276,716,-51,39,21,5371,5,2,0,0,37559,280,25,79,0,0,0,0,0,0,0,0,-32318,0,0,0,4031,0,27235,0
23383,-212,-8296,708,-51,41,24,5370,3,1,0,0,37561,279,25,79,0,0,0,0,0,0,0,0,-32317,0,0,0,4032,0,27255,0
23393,-240,-8258,714,-55,45,20,5370,-3,-1,0,0,37563,273,25,79,0,0,0,0,0,0,0,0,-32318,0,0,0,4031,0,27275,0
23403,-226,-8274,734,-50,39,28,5372,7,-1,3,0,37574,274,25,79,0,0,0,0,0,0,0,0,-32318,0,0,0,4032,0,27295,0
23413,-228,-8276,728,-52,37,22,5370,-3,0,2,0,37583,283,25,79,0,0,0,0,0,0,0,0,-32318,0,0,0,4032,0,27315,0
23423,-228,-8264,716,-55,45,25,5370,-2,1,2,0,37597,287,25,79,0,0,0,0,0,0,0,0,-32317,0,0,0,4032,0,27335,0
23433,-250,-8250,730,-56,46,25,5371,0,2,0,0,37590,285,25,79,0,0,0,0,0,0,0,0,-32318,0,0,0,4032,0,27355,0
23443,-236,-8262,718,-55,46,24,5370,0,3,-1,0,37582,285,25,79,0,0,0,0,0,0,0,0,-32318,0,0,0,4032,0,27375,0
23453,-252,-8292,708,-53,39,23,5372,-3,1,1,0,37571,284,25,79,0,0,0,0,0,0,0,0,-32317,0,0,0,4032,0,27395,0
23463,-262,-8250,688,-53,39,19,5370,-1,-2,0,0,37567,287,25,79,0,0,0,0,0,0,0,0,-32318,0,0,0,4033,0,27415,0
23473,-264,-8266,712,-50,41,16,5370,-4,2,0,0,37565,281,25,79,0,0,0,0,0,0,0,0,-32317,0,0,0,4033,0,27435,0
23483,-256,-8250,720,-50,45,17,5369,1,3,0,0,37565,277,25,79,0,0,0,0,0,0,0,0,-32317,0,0,0,4032,0,27455,0
23493,-260,-8252,712,-52,47,14,5371,0,-5,2,0,37568,274,25,79,0,0,0,0,0,0,0,0,-32317,0,0,0,4032,0,27475,0
23503,-230,-8306,710,-52,46,15,5370,-6,-2,0,0,37569,281,25,79,0,0,0,0,0,0,0,0,-32317,0,0,0,4033,0,27495,0
23513,-238,-8232,706,-46,46,15,5370,-5,0,2,0,37567,280,25,79,0,0,0,0,0,0,0,0,-32317,0,0,0,4032,0,27515,0
23523,-190,-8294,690,-51,37,17,5372,5,0,0,0,37567,284,25,79,0,0,0,0,0,0,0,0,-32317,0,0,0,4032,0,27535,0
23533,-206,-8266,726,-48,36,24,5372,0,-2,2,0,37571,283,25,79,0,0,0,0,0,0,0,0,-32317,0,0,0,4032,0,27555,0
23543,-254,-8260,726,-50,33,17,5371,-2,2,0,0,37573,282,25,79,0,0,0,0,0,0,0,0,-32317,0,0,0,4034,0,27575,0
23553,-256,-8308,708,-49,37,15,5370,-2,2,0,0,37572,278,25,79,0,0,0,0,0,0,0,0,-32317,0,0,0,4033,0,27595,0
23563,-274,-8264,696,-50,34,16,5372,14,-1,0,0,37569,277,25,79,0,0,0,0,0,0,0,0,-32317,0,0,0,4032,0,27615,0
23573,-264,-8250,714,-47,41,8,5370,-8,6,0,0,37569,279,25,79,0,0,0,0,0,0,0,0,-32317,0,0,0,4032,0,27635,0
23583,-248,-8248,720,-47,36,6,5371,-2,1,0,0,37569,278,25,79,0,0,0,0,0,0,0,0,-32317,0,0,0,4032,0,27655,0
23593,-202,-8256,742,-51,42,2,5370,-6,-3,-1,0,37572,277,25,79,0,0,0,0,0,0,0,0,-32317,0,0,0,4032,0,27675,0
23603,-204,-8232,748,-51,41,8,5371,3,7,1,0,37574,274,25,79,0,0,0,0,0,0,0,0,-32317,0,0,0,4031,0,27695,0
23613,-188,-8272,734,-49,37,15,5372,5,-2,1,0,37578,277,25,79,0,0,0,0,0,0,0,0,-32317,0,0,0,4032,0,27715,0
23623,-182,-8282,728,-50,39,19,5372,-1,2,0,0,37580,276,25,79,0,0,0,0,0,0,0,0,-32317,0,0,0,4033,0,27735,0
23633,-236,-8256,718,-49,38,18,5370,0,3,1,0,37579,281,25,79,0,0,0,0,0,0,0,0,-32317,0,0,0,4032,0,27755,0
23643,-242,-8258,696,-45,42,25,5370,-5,0,1,0,37586,281,25,79,0,0,0,0,0,0,0,0,-32317,0,0,0,4032,0,27778,0
23653,-224,-8282,724,-53,42,22,5369,6,3,0,0,37583,283,25,79,0,0,0,0,0,0,0,0,-32318,0,0,0,4032,0,27801,0
23663,-246,-8256,734,-56,39,13,5370,1,8,0,0,37581,283,25,79,0,0,0,0,0,0,0,0,-32317,0,0,0,4033,0,27821,0
23673,-258,-8256,744,-56,42,17,5372,5,2,1,0,37573,283,25,79,0,0,0,0,0,0,0,0,-32317,0,0,0,4032,0,27841,0
23683,-238,-8278,706,-57,43,16,5370,-11,2,-1,0,37573,288,25,79,0,0,0,0,0,0,0,0,-32317,0,0,0,4032,0,27861,0
23693,-230,-8248,696,-57,46,17,5370,-3,-2,0,0,37571,280,25,79,0,0,0,0,0,0,0,0,-32317,0,0,0,4032,0,27881,0
23703,-214,-8244,702,-52,45,22,5371,1,-6,0,0,37571,277,25,79,0,0,0,0,0,0,0,0,-32317,0,0,0,4034,0,27901,0
23713,-212,-8276,690,-49,43,15,5373,6,1,0,0,37573,276,25,79,0,0,0,0,0,0,0,0,-32317,0,0,0,4032,0,27921,0
23723,-264,-8254,720,-50,40,19,5370,-3,3,0,0,37572,282,25,79,0,0,0,0,0,0,0,0,-32317,0,0,0,4032,0,27941,0
23733,-236,-8278,696,-47,38,19,5369,-2,4,0,0,37572,284,25,79,0,0,0,0,0,0,0,0,-32317,0,0,0,4032,0,27961,0
23743,-258,-8270,736,-53,38,16,5370,-12,-8,-1,0,37575,280,25,79,0,0,0,0,0,0,0,0,-32317,0,0,0,4032,0,27981,0
23753,-272,-8270,720,-54,41,9,5371,4,-1,0,0,37577,284,25,79,0,0,0,0,0,0,0,0,-32317,0,0,0,4032,0,28001,0
23763,-280,-8244,728,-56,48,10,5370,-1,-3,1,0,37578,283,25,79,0,0,0,0,0,0,0,0,-32317,0,0,0,4032,0,28021,0
23773,-244,-8266,714,-53,44,4,5371,5,1,0,0,37575,289,25,79,0,0,0,0,0,0,0,0,-32317,0,0,0,4032,0,28041,0
23783,-206,-8270,706,-57,46,7,5372,5,1,0,0,37574,285,25,79,0,0,0,0,0,0,0,0,-32317,0,0,0,4032,0,28061,0
23793,-192,-8248,696,-54,42,9,5370,-2,-3,0,0,37574,282,25,79,0,0,0,0,0,0,0,0,-32318,0,0,0,4032,0,28081,0
23803,-200,-8280,692,-51,42,13,5370,-1,0,1,0,37574,283,25,79,0,0,0,0,0,0,0,0,-32317,0,0,0,4032,0,28101,0
23813,-190,-8256,716,-50,39,20,5370,-6,0,-1,0,37574,289,25,79,0,0,0,0,0,0,0,0,-32317,0,0,0,4031,0,28121,0
23823,-220,-8242,698,-54,36,21,5371,7,0,0,0,37574,294,25,79,0,0,0,0,0,0,0,0,-32317,0,0,0,4029,0,28141,0
23833,-264,-8266,728,-54,38,18,5371,2,0,0,0,37573,287,25,79,0,0,0,0,0,0,0,0,-32317,0,0,0,4031,0,28161,0
23843,-242,-8248,738,-52,41,20,5371,3,-1,0,0,37575,283,25,79,0,0,0,0,0,0,0,0,-32317,0,0,0,4032,0,28181,0
23853,-266,-8250,720,-50,44,15,5370,-5,-4,4,0,37577,280,25,79,0,0,0,0,0,0,0,0,-32318,0,0,0,4032,0,28201,0
23863,-240,-8288,734,-63,39,17,5371,0,3,0,0,37575,282,25,79,0,0,0,0,0,0,0,0,-32317,0,0,0,4032,0,28221,0
23873,-256,-8260,694,-57,47,16,5372,1,1,0,0,37573,285,25,79,0,0,0,0,0,0,0,0,-32317,0,0,0,4032,0,28241,0
23883,-218,-8240,694,-55,53,16,5371,5,-1,0,0,37570,279,25,79,0,0,0,0,0,0,0,0,-32317,0,0,0,4032,0,28261,0
23893,-208,-8280,718,-52,49,16,5371,4,3,0,0,37573,285,25,79,0,0,0,0,0,0,0,0,-32317,0,0,0,4032,0,28281,0
23903,-186,-8258,716,-52,50,17,5369,-9,-4,0,0,37575,289,25,79,0,0,0,0,0,0,0,0,-32317,0,0,0,4031,0,28301,0
23913,-230,-8258,736,-54,43,19,5371,0,3,1,0,37574,281,25,79,0,0,0,0,0,0,0,0,-32317,0,0,0,4032,0,28321,0
23923,-244,-8276,738,-55,42,21,5373,11,7,1,0,37570,283,25,79,0,0,0,0,0,0,0,0,-32317,0,0,0,4031,0,28341,0
23933,-254,-8290,730,-52,45,24,5370,1,0,0,0,37568,280,25,79,0,0,0,0,0,0,0,0,-32317,0,0,0,4032,0,28361,0
23943,-238,-8242,730,-52,37,22,5371,-5,-1,1,0,37572,286,25,79,0,0,0,0,0,0,0,0,-32317,0,0,0,4032,0,28381,0
23953,-252,-8270,692,-57,39,20,5370,-3,0,0,0,37579,294,25,79,0,0,0,0,0,0,0,0,-32317,0,0,0,4032,0,28401,0
23963,-248,-8270,684,-57,43,14,5370,-5,-7,0,0,37576,291,25,79,0,0,0,0,0,0,0,0,-32317,0,0,0,4032,0,28421,0
23973,-280,-8240,668,-43,47,10,5371,4,-5,0,0,37574,281,25,79,0,0,0,0,0,0,0,0,-32317,0,0,0,4031,0,28441,0
23983,-240,-8304,694,-47,43,8,5371,-4,0,-1,0,37570,276,25,79,0,0,0,0,0,0,0,0,-32317,0,0,0,4031,0,28461,0
23993,-250,-8286,730,-49,42,5,5373,1,5,1,0,37571,275,25,79,0,0,0,0,0,0,0,0,-32317,0,0,0,4031,0,28481,0
24003,-244,-8258,736,-43,45,6,5371,2,-1,2,0,37568,284,25,79,0,0,0,0,0,0,0,0,-32317,0,0,0,4031,0,28501,0
24013,-224,-8300,728,-52,40,11,5371,2,1,0,0,37565,281,25,79,0,0,0,0,0,0,0,0,-32317,0,0,0,4032,0,28521,0
24023,-212,-8284,750,-58,41,11,5370,-2,-5,0,0,37564,276,25,79,0,0,0,0,0,0,0,0,-32317,0,0,0,4031,0,28541,0
24033,-216,-8248,722,-52,41,15,5370,-3,0,0,0,37567,272,25,79,0,0,0,0,0,0,0,0,-32317,0,0,0,4031,0,28561,0
24043,-210,-8254,708,-53,36,13,5370,-1,1,0,0,37569,278,25,79,0,0,0,0,0,0,0,0,-32317,0,0,0,4032,0,28581,0
24053,-222,-8286,716,-46,43,18,5372,-1,2,1,0,37569,279,25,79,0,0,0,0,0,0,0,0,-32317,0,0,0,4032,0,28601,0
24063,-230,-8272,720,-51,40,25,5371,0,-3,0,0,37570,279,25,79,0,0,0,0,0,0,0,0,-32317,0,0,0,4033,0,28621,0
24073,-248,-8272,738,-55,40,27,5369,-7,0,1,0,37569,286,25,79,0,0,0,0,0,0,0,0,-32317,0,0,0,4031,0,28641,0
24083,-258,-8262,726,-53,35,24,5371,1,1,0,0,37570,291,25,79,0,0,0,0,0,0,0,0,-32317,0,0,0,4031,0,28661,0
24093,-256,-8260,700,-51,42,23,5373,11,-1,2,0,37568,290,25,79,0,0,0,0,0,0,0,0,-32317,0,0,0,4032,0,28681,0
24103,-248,-8242,698,-50,45,18,5371,5,2,1,0,37566,288,25,79,0,0,0,0,0,0,0,0,-32317,0,0,0,4031,0,28701,0
24113,134,-8270,732,-43,25,44,5339,-158,-45,-762,-696,37563,279,25,79,0,0,0,0,0,0,0,0,-32317,0,0,0,4031,0,28721,0
24123,-402,-8272,756,-47,21,57,5191,-410,-304,-892,-1392,37560,288,25,79,0,0,0,0,0,0,0,0,-32318,0,0,0,4032,0,28741,0
24133,-374,-8240,774,-38,24,42,4931,-627,-446,-985,-1960,37554,311,25,79,0,0,0,0,0,0,0,0,-32317,0,0,0,4034,0,28761,0
24143,-266,-8238,732,-38,46,23,4574,-842,-384,-1035,-2456,37542,332,25,79,0,0,0,0,0,0,0,0,-32317,0,0,0,4034,0,28782,0
24153,-266,-8264,756,-36,56,20,4133,-1029,-356,-996,-2848,37532,354,25,79,0,0,0,0,0,0,0,0,-32317,0,0,0,4034,0,28802,0
24163,-186,-8262,772,-25,43,16,3601,-1225,-343,-1026,-3256,37521,365,25,79,0,0,0,0,0,0,0,0,-32318,0,0,0,4033,0,28821,0
24173,-186,-8278,670,-17,32,23,2977,-1439,-350,-1001,-3784,37520,376,25,79,0,0,0,0,0,0,0,0,-32317,0,0,0,4034,0,28841,0
24183,-198,-8250,760,-7,8,36,2250,-1671,-370,-1016,-4184,37514,388,25,79,0,0,0,0,0,0,0,0,-32317,0,0,0,4034,0,28861,0
24193,-244,-8238,718,-12,-9,33,1413,-1913,-416,-1041,-4560,37508,410,25,79,0,0,0,0,0,0,0,0,-32317,0,0,0,4035,0,28882,0
24203,-288,-8260,778,-9,-9,28,480,-2103,-399,-1052,-4728,37492,422,25,79,0,0,0,0,0,0,0,0,-32317,0,0,0,4036,0,28901,0
24213,-346,-8226,740,-54,38,22,-505,-2178,-290,-991,-5016,37484,427,25,79,0,0,0,0,0,0,0,0,-32318,0,0,0,4035,0,28921,0
24223,-392,-8242,688,-57,28,11,-1475,-2113,-64,-881,-5416,37480,433,25,79,0,0,0,0,0,0,0,0,-32317,0,0,0,4035,0,28941,0
24233,-274,-8298,698,-65,18,13,-2425,-2096,72,-913,-5760,37480,438,25,79,0,0,0,0,0,0,0,0,-32317,0,0,0,4034,0,28961,0
24243,-184,-8260,668,-69,22,12,-3413,-2210,-27,-1031,-6008,37477,453,25,79,0,0,0,0,0,0,0,0,-32316,0,0,0,4034,0,28981,0
24253,-324,-8260,762,-97,33,10,-4458,-2337,-183,-1033,-6032,37469,460,25,79,0,0,0,0,0,0,0,0,-32318,0,0,0,4035,0,29001,0
24263,-260,-8296,678,-97,47,12,-5575,-2526,-242,-1013,-6432,37463,466,25,79,0,0,0,0,0,0,0,0,-32316,0,0,0,4036,0,29021,0
24273,-190,-8292,722,-94,62,26,-6830,-2869,-393,-1044,-6960,37461,476,25,79,0,0,0,0,0,0,0,0,-32318,0,0,0,4035,0,29041,0
24283,-156,-8252,806,-94,76,27,-8236,-3172,-566,-1118,-7280,37453,501,25,79,0,0,0,0,0,0,0,0,-32318,0,0,0,4035,0,29061,0
24293,-388,-8226,852,-64,108,9,-9676,-3124,-369,-800,-7840,37442,521,25,79,0,0,0,0,0,0,0,0,-32317,0,0,0,4035,0,29081,0
24303,2192,-8242,602,-58,154,-260,-11038,-2911,78,-1126,-7008,37423,538,25,79,0,0,0,0,0,0,0,0,-32317,0,0,0,4011,-5,29102,0
24313,-27080,-8978,1516,-301,2371,-2596,-11999,-1628,868,-1273,-2824,37418,511,25,79,0,0,0,0,0,0,0,0,-32317,0,0,0,3919,-8,29122,0
24323,-5774,-11556,1912,-445,867,-1733,-12131,270,2409,-784,104,37442,444,25,79,0,0,0,0,0,0,0,0,-32318,0,0,0,3898,0,29142,0
24333,18098,-7316,-2534,-697,-275,-85,-11800,781,2567,-735,96,37477,368,25,79,0,0,0,0,0,0,0,0,-32317,0,0,0,3921,2,29162,0
24343,14072,-10888,-258,-101,-718,674,-11634,133,546,-1183,-320,37514,302,25,79,0,0,0,0,0,0,0,0,-32317,0,0,0,3937,1,29182,0
24353,-3236,-8116,-424,114,-588,840,-11658,-56,-752,-1012,-312,37527,283,25,79,0,0,0,0,0,0,0,0,-32317,0,0,0,3940,0,29202,0
24363,-5732,-7958,-722,138,12,621,-11615,170,-223,-1032,-104,37529,282,25,79,0,0,0,0,0,0,0,0,-32317,0,0,0,3946,1,29222,0
24373,-1748,-8130,494,83,448,263,-11506,243,283,-986,-104,37540,278,25,79,0,0,0,0,0,0,0,0,-32317,0,0,0,3954,0,29242,0
24383,698,-9368,1144,166,168,112,-11433,111,51,-989,-232,37546,286,25,79,0,0,0,0,0,0,0,0,-32317,0,0,0,3959,0,29262,0
24393,212,-8372,1040,80,20,82,-11442,-53,-233,-975,-352,37549,297,25,79,0,0,0,0,0,0,0,0,-32317,0,0,0,3960,0,29282,0
24403,-1126,-8352,1428,47,3,126,-11442,32,-141,-1025,-240,37545,313,25,79,0,0,0,0,0,0,0,0,-32317,0,0,0,3959,0,29302,0
24413,-696,-8064,1634,-65,51,-12,-11432,3,52,-982,-296,37543,319,25,79,0,0,0,0,0,0,0,0,-32317,0,0,0,3960,0,29322,0
24423,-918,-8262,1480,-138,114,-83,-11441,-6,-25,-1006,-288,37544,326,25,79,0,0,0,0,0,0,0,0,-32317,0,0,0,3959,0,29342,0
24433,380,-8218,578,-151,75,-61,-11441,0,-12,-991,-288,37545,326,25,79,0,0,0,0,0,0,0,0,-32317,0,0,0,3959,0,29362,0
24443,690,-8300,198,-136,26,-19,-11446,-15,8,-998,-280,37545,319,25,79,0,0,0,0,0,0,0,0,-32317,0,0,0,3958,0,29382,0
24453,128,-8174,202,-57,-5,49,-11442,8,2,-1001,-296,37548,314,25,79,0,0,0,0,0,0,0,0,-32317,0,0,0,3959,0,29402,0
24463,-436,-8208,314,-43,4,44,-11442,4,5,-998,-272,37551,307,25,79,0,0,0,0,0,0,0,0,-32317,0,0,0,3959,0,29422,0
24473,-344,-8380,620,-27,56,-21,-11445,-9,-4,-1000,-296,37554,313,25,79,0,0,0,0,0,0,0,0,-32317,0,0,0,3959,0,29442,0
24483,14,-8268,720,-31,67,-17,-11443,7,-2,-1000,-296,37554,316,25,79,0,0,0,0,0,0,0,0,-32317,0,0,0,3959,0,29462,0
24493,242,-8270,710,-31,26,39,-11443,1,3,-1002,-280,37558,321,25,79,0,0,0,0,0,0,0,0,-32317,0,0,0,3959,0,29482,0
24503,38,-8308,878,-30,11,43,-11442,8,10,-1002,-296,37560,321,25,79,0,0,0,0,0,0,0,0,-32317,0,0,0,3960,0,29502,0
24513,-340,-8280,1042,-70,43,17,-11443,-5,-3,-997,-280,37556,316,25,79,0,0,0,0,0,0,0,0,-32317,0,0,0,3958,0,29522,0
24523,-324,-8226,912,-92,60,6,-11442,0,-3,-999,-288,37553,307,25,79,0,0,0,0,0,0,0,0,-32317,0,0,0,3959,0,29542,0
24533,50,-8362,574,-109,48,2,-11443,-3,-2,-995,-288,37554,302,25,79,0,0,0,0,0,0,0,0,-32317,0,0,0,3960,0,29562,0
24543,122,-8246,462,-89,39,12,-11442,3,-1,-995,-280,37561,307,25,79,0,0,0,0,0,0,0,0,-32317,0,0,0,3960,0,29582,0
24553,-234,-8162,384,-48,23,33,-11442,1,3,-1001,-288,37563,317,25,79,0,0,0,0,0,0,0,0,-32317,0,0,0,3960,0,29602,0
24563,-266,-8310,472,-30,30,14,-11442,10,2,-999,-280,37560,320,25,79,0,0,0,0,0,0,0,0,-32317,0,0,0,3960,0,29622,0
24573,-130,-8292,686,-34,46,-15,-11443,0,-6,-996,-280,37558,316,25,79,0,0,0,0,0,0,0,0,-32317,0,0,0,3960,0,29642,0
24583,-88,-8260,694,-30,45,-2,-11443,2,-3,-998,-296,37568,313,25,79,0,0,0,0,0,0,0,0,-32316,0,0,0,3960,0,29662,0
24593,-44,-8342,730,-32,30,11,-11444,-4,1,-1001,-296,37570,315,25,79,0,0,0,0,0,0,0,0,-32317,0,0,0,3960,0,29682,0
24603,-48,-8288,816,-38,32,4,-11443,3,6,-1000,-288,37568,314,25,79,0,0,0,0,0,0,0,0,-32317,0,0,0,3959,0,29702,0
24613,-164,-8212,812,-56,41,10,-11445,0,5,-1002,-296,37562,321,25,79,0,0,0,0,0,0,0,0,-32317,0,0,0,3959,0,29722,0
24623,-108,-8268,722,-68,42,18,-11444,-3,-1,-999,-296,37559,324,25,79,0,0,0,0,0,0,0,0,-32317,0,0,0,3960,0,29742,0
24633,-20,-8342,674,-64,42,8,-11443,2,1,-1003,-288,37563,320,25,79,0,0,0,0,0,0,0,0,-32317,0,0,0,3958,0,29762,0
24643,-66,-8252,658,-59,36,25,-11443,9,0,-1000,-280,37562,315,25,79,0,0,0,0,0,0,0,0,-32317,0,0,0,3960,0,29782,0
24653,-168,-8296,640,-56,41,31,-11444,0,-1,-999,-288,37562,318,25,79,0,0,0,0,0,0,0,0,-32317,0,0,0,3960,0,29802,0
24663,-136,-8302,654,-55,36,14,-11444,3,-1,-997,-296,37562,315,25,79,0,0,0,0,0,0,0,0,-32317,0,0,0,3960,0,29822,0
24673,-116,-8192,706,-50,45,14,-11444,0,-2,-1002,-288,37564,316,25,79,0,0,0,0,0,0,0,0,-32317,0,0,0,3960,0,29842,0
24683,-58,-8278,668,-55,43,24,-11443,5,-1,-999,-296,37574,315,25,79,0,0,0,0,0,0,0,0,-32317,0,0,0,3960,0,29862,0
24693,-46,-8310,694,-58,32,15,-11443,0,-2,-998,-272,37579,315,25,79,0,0,0,0,0,0,0,0,-32317,0,0,0,3960,0,29882,0
24703,-78,-8254,718,-54,45,11,-11444,-2,-6,-1000,-288,37578,310,25,79,0,0,0,0,0,0,0,0,-32317,0,0,0,3959,0,29902,0
24713,-122,-8260,642,-52,45,23,-11444,0,-6,-1002,-280,37570,312,25,79,0,0,0,0,0,0,0,0,-32317,0,0,0,3960,0,29922,0
24723,-12,-8292,626,-44,41,17,-11443,6,3,-997,-288,37561,310,25,79,0,0,0,0,0,0,0,0,-32317,0,0,0,3959,0,29942,0
24733,-114,-8264,668,-48,45,19,-11443,3,4,-999,-296,37562,316,25,79,0,0,0,0,0,0,0,0,-32317,0,0,0,3959,0,29962,0
24743,-88,-8254,664,-47,38,30,-11444,-3,-3,-999,-296,37563,320,25,79,0,0,0,0,0,0,0,0,-32317,0,0,0,3960,0,29982,0
24753,-114,-8308,678,-42,39,25,-11444,-5,2,-1000,-288,37567,316,25,79,0,0,0,0,0,0,0,0,-32317,0,0,0,3960,0,30002,0
24763,-124,-8250,728,-44,47,10,-11443,4,-2,-996,-288,37569,328,25,79,0,0,0,0,0,0,0,0,-32317,0,0,0,3959,0,30022,0
24773,-96,-8222,704,-43,46,17,-11443,3,3,-995,-288,37568,322,25,79,0,0,0,0,0,0,0,0,-32317,0,0,0,3960,0,30042,0
24783,-98,-8300,704,-47,40,21,-11442,3,2,-997,-288,37565,318,25,79,0,0,0,0,0,0,0,0,-32317,0,0,0,3960,0,30062,0
24793,-90,-8268,708,-52,43,13,-11443,1,-1,-1000,-280,37571,309,25,79,0,0,0,0,0,0,0,0,-32317,0,0,0,3960,0,30082,0
24803,-76,-8250,680,-49,46,15,-11443,4,3,-997,-280,37573,310,25,79,0,0,0,0,0,0,0,0,-32317,0,0,0,3959,0,30102,0
24813,-112,-8318,624,-43,39,20,-11443,1,0,-999,-288,37572,310,25,79,0,0,0,0,0,0,0,0,-32317,0,0,0,3960,0,30122,0
24823,-82,-8262,686,-48,43,13,-11444,-4,-6,-999,-296,37566,313,25,79,0,0,0,0,0,0,0,0,-32317,0,0,0,3960,0,30142,0
24833,-98,-8212,672,-49,39,22,-11445,-10,-4,-1002,-296,37566,303,25,79,0,0,0,0,0,0,0,0,-32317,0,0,0,3959,0,30162,0
24843,-80,-8278,656,-46,42,28,-11445,-7,-3,-1001,-280,37569,306,25,79,0,0,0,0,0,0,0,0,-32317,0,0,0,3959,0,30183,0
24853,-104,-8288,710,-43,41,15,-11444,3,-7,-999,-288,37572,307,25,79,0,0,0,0,0,0,0,0,-32317,0,0,0,3959,0,30202,0
24863,-46,-8222,732,-45,38,21,-11445,0,3,-996,-288,37571,311,25,79,0,0,0,0,0,0,0,0,-32317,0,0,0,3958,0,30222,0
24873,-78,-8244,702,-50,43,26,-11443,0,-1,-999,-288,37570,317,25,79,0,0,0,0,0,0,0,0,-32317,0,0,0,3960,0,30242,0
24883,-112,-8298,680,-51,42,21,-11444,-6,-5,-999,-296,37571,323,25,79,0,0,0,0,0,0,0,0,-32317,0,0,0,3959,0,30262,0
24893,-66,-8242,694,-47,48,21,-11443,-1,-1,-997,-288,37571,325,25,79,0,0,0,0,0,0,0,0,-32318,0,0,0,3960,0,30283,0
24903,-104,-8260,676,-51,46,26,-11444,-1,-4,-999,-296,37576,320,25,79,0,0,0,0,0,0,0,0,-32317,0,0,0,3960,0,30303,0
24913,-30,-8322,678,-64,39,21,-11442,1,3,-1001,-296,37574,323,25,79,0,0,0,0,0,0,0,0,-32317,0,0,0,3960,0,30322,0
24923,-96,-8266,670,-49,42,19,-11443,-2,-2,-1000,-296,37570,321,25,79,0,0,0,0,0,0,0,0,-32317,0,0,0,3959,0,30342,0
24933,-144,-8268,640,-44,47,25,-11442,1,-2,-1002,-304,37560,322,25,79,0,0,0,0,0,0,0,0,-32317,0,0,0,3960,0,30362,0
24943,-118,-8276,688,-48,40,21,-11443,1,-5,-1001,-296,37560,317,25,79,0,0,0,0,0,0,0,0,-32317,0,0,0,3960,0,30383,0
24953,-86,-8276,670,-48,42,12,-11444,-12,-2,-1001,-296,37559,317,25,79,0,0,0,0,0,0,0,0,-32317,0,0,0,3960,0,30403,0
24963,-130,-8270,696,-52,42,18,-11442,7,-4,-999,-288,37561,311,25,79,0,0,0,0,0,0,0,0,-32317,0,0,0,3960,0,30423,0
24973,-148,-8284,694,-52,39,18,-11444,-5,-1,-1001,-288,37559,307,25,79,0,0,0,0,0,0,0,0,-32317,0,0,0,3960,0,30443,0
24983,-122,-8284,722,-53,45,9,-11444,0,-7,-1002,-288,37560,320,25,79,0,0,0,0,0,0,0,0,-32317,0,0,0,3960,0,30463,0
24993,-110,-8266,676,-59,37,13,-11443,3,-3,-996,-280,37561,329,25,79,0,0,0,0,0,0,0,0,-32317,0,0,0,3959,0,30483,0
25003,-86,-8290,676,-48,38,18,-11443,-3,-4,-1002,-288,37568,325,25,79,0,0,0,0,0,0,0,0,-32316,0,0,0,3960,0,30503,0
25013,-42,-8248,678,-45,47,8,-11442,2,-3,-1003,-296,37569,316,25,79,0,0,0,0,0,0,0,0,-32317,0,0,0,3960,0,30523,0
25023,-92,-8264,696,-52,46,11,-11442,2,3,-999,-288,37566,309,25,79,0,0,0,0,0,0,0,0,-32317,0,0,0,3960,0,30543,0
25033,-84,-8258,690,-51,38,21,-11443,-9,3,-999,-280,37565,314,25,79,0,0,0,0,0,0,0,0,-32317,0,0,0,3959,0,30563,0
25043,-86,-8280,700,-50,41,15,-11443,-1,-6,-999,-296,37559,318,25,79,0,0,0,0,0,0,0,0,-32317,0,0,0,3959,0,30583,0
25053,-94,-8264,702,-51,44,19,-11443,-8,-2,-1000,-304,37562,319,25,79,0,0,0,0,0,0,0,0,-32317,0,0,0,3960,0,30603,0
25063,-138,-8262,668,-55,36,25,-11443,-5,2,-1003,-288,37561,320,25,79,0,0,0,0,0,0,0,0,-32316,0,0,0,3960,0,30623,0
25073,-140,-8282,680,-51,39,17,-11443,-3,-2,-1002,-296,37557,316,25,79,0,0,0,0,0,0,0,0,-32317,0,0,0,3959,0,30643,0
25083,-80,-8266,670,-56,46,11,-11442,1,-1,-1001,-288,37557,318,25,79,0,0,0,0,0,0,0,0,-32317,0,0,0,3960,0,30663,0
25093,-104,-8208,676,-51,42,14,-11442,7,-5,-998,-304,37559,311,25,79,0,0,0,0,0,0,0,0,-32317,0,0,0,3959,0,30683,0
25103,-86,-8302,662,-51,44,20,-11442,-3,3,-999,-288,37559,314,25,79,0,0,0,0,0,0,0,0,-32317,0,0,0,3960,0,30703,0
25113,-46,-8278,716,-49,47,17,-11442,4,3,-1000,-288,37559,310,25,79,0,0,0,0,0,0,0,0,-32317,0,0,0,3960,0,30722,0
25123,-68,-8258,678,-52,39,19,-11443,0,-3,-1001,-296,37556,313,25,79,0,0,0,0,0,0,0,0,-32317,0,0,0,3959,0,30742,0
25133,-108,-8308,702,-56,37,18,-11442,1,-3,-996,-288,37558,318,25,79,0,0,0,0,0,0,0,0,-32317,0,0,0,3960,0,30762,0
25143,-142,-8302,694,-56,48,19,-11441,5,2,-999,-288,37560,321,25,79,0,0,0,0,0,0,0,0,-32317,0,0,0,3960,0,30782,0
25153,-130,-8288,694,-58,45,19,-11442,0,-4,-999,-288,37556,323,25,79,0,0,0,0,0,0,0,0,-32317,0,0,0,3960,0,30802,0
25163,-114,-8290,676,-61,42,23,-11442,4,-2,-996,-296,37551,315,25,79,0,0,0,0,0,0,0,0,-32316,0,0,0,3960,0,30822,0
25173,-98,-8272,664,-56,39,15,-11444,0,3,-1000,-288,37549,318,25,79,0,0,0,0,0,0,0,0,-32317,0,0,0,3959,0,30842,0
25183,-118,-8284,640,-53,46,16,-11442,0,0,-1001,-296,37552,318,25,79,0,0,0,0,0,0,0,0,-32317,0,0,0,3959,0,30862,0
25193,-112,-8284,678,-57,41,18,-11442,3,2,-999,-280,37553,321,25,79,0,0,0,0,0,0,0,0,-32317,0,0,0,3960,0,30882,0
25203,-96,-8254,676,-50,42,11,-11443,0,2,-1001,-296,37549,325,25,79,0,0,0,0,0,0,0,0,-32317,0,0,0,3960,0,30902,0
25213,-92,-8272,698,-52,38,14,-11442,-1,2,-1002,-304,37549,329,25,79,0,0,0,0,0,0,0,0,-32317,0,0,0,3960,0,30922,0
25223,-112,-8266,696,-51,39,18,-11441,8,3,-999,-280,37556,328,25,79,0,0,0,0,0,0,0,0,-32317,0,0,0,3960,0,30942,0
25233,-112,-8258,714,-49,39,11,-11442,5,-2,-995,-288,37560,318,25,79,0,0,0,0,0,0,0,0,-32317,0,0,0,3959,0,30962,0
25243,-92,-8264,718,-51,41,12,-11442,-1,-3,-999,-296,37561,324,25,79,0,0,0,0,0,0,0,0,-32318,0,0,0,3959,0,30982,0
25253,-136,-8296,696,-60,36,18,-11443,1,5,-1002,-296,37552,321,25,79,0,0,0,0,0,0,0,0,-32317,0,0,0,3960,0,31002,0
25263,-68,-8298,664,-54,40,15,-11444,-4,2,-997,-280,37549,319,25,79,0,0,0,0,0,0,0,0,-32317,0,0,0,3960,0,31022,0
25273,-100,-8282,684,-54,42,19,-11442,-8,5,-1000,-296,37549,316,25,79,0,0,0,0,0,0,0,0,-32317,0,0,0,3960,0,31042,0
25283,-78,-8244,702,-50,45,17,-11443,-4,2,-997,-296,37549,318,25,79,0,0,0,0,0,0,0,0,-32317,0,0,0,3960,0,31062,0
25293,-94,-8266,690,-50,44,13,-11441,2,-2,-999,-288,37551,318,25,79,0,0,0,0,0,0,0,0,-32317,0,0,0,3959,0,31082,0
25303,-126,-8274,674,-51,41,15,-11442,2,2,-1002,-296,37549,319,25,79,0,0,0,0,0,0,0,0,-32317,0,0,0,3960,0,31103,0
25313,-132,-8266,658,-53,40,13,-11443,6,-1,-999,-296,37550,314,25,79,0,0,0,0,0,0,0,0,-32317,0,0,0,3959,0,31123,0
25323,-170,-8270,676,-54,39,19,-11442,-1,2,-1004,-296,37549,317,25,79,0,0,0,0,0,0,0,0,-32317,0,0,0,3960,0,31143,0
25333,-120,-8298,672,-53,42,10,-11442,0,1,-1000,-288,37555,321,25,79,0,0,0,0,0,0,0,0,-32317,0,0,0,3960,0,31163,0
25343,-72,-8278,670,-51,41,18,-11444,-10,1,-997,-288,37556,319,25,79,0,0,0,0,0,0,0,0,-32317,0,0,0,3959,0,31183,0
25353,-104,-8268,672,-50,42,20,-11442,10,7,-1002,-296,37556,324,25,79,0,0,0,0,0,0,0,0,-32317,0,0,0,3959,0,31203,0
25363,-134,-8286,690,-41,40,12,-11443,-9,-1,-997,-288,37553,317,25,79,0,0,0,0,0,0,0,0,-32317,0,0,0,3959,0,31223,0
25373,-112,-8234,710,-58,41,11,-11443,3,4,-1002,-296,37552,320,25,79,0,0,0,0,0,0,0,0,-32317,0,0,0,3960,0,31243,0
25383,-56,-8258,690,-45,39,17,-11441,7,2,-1001,-288,37552,320,25,79,0,0,0,0,0,0,0,0,-32317,0,0,0,3959,0,31263,0
25393,-92,-8246,708,-52,42,6,-11441,4,2,-998,-288,37552,317,25,79,0,0,0,0,0,0,0,0,-32317,0,0,0,3960,0,31283,0
25403,-80,-8290,690,-50,43,12,-11442,-5,1,-999,-288,37553,313,25,79,0,0,0,0,0,0,0,0,-32317,0,0,0,3960,0,31303,0
25413,-52,-8262,690,-53,38,15,-11443,-1,4,-996,-288,37553,311,25,79,0,0,0,0,0,0,0,0,-32317,0,0,0,3959,0,31323,0
25423,-142,-8264,666,-58,42,17,-11443,-1,-2,-1001,-296,37554,309,25,79,0,0,0,0,0,0,0,0,-32317,0,0,0,3959,0,31343,0
25433,-126,-8274,648,-54,38,13,-11442,3,2,-997,-296,37563,310,25,79,0,0,0,0,0,0,0,0,-32317,0,0,0,3960,0,31363,0
25443,-132,-8278,654,-54,42,19,-11442,5,0,-999,-288,37564,316,25,79,0,0,0,0,0,0,0,0,-32317,0,0,0,3959,0,31383,0
25453,-122,-8266,676,-49,39,13,-11442,0,-2,-1002,-296,37563,314,25,79,0,0,0,0,0,0,0,0,-32317,0,0,0,3959,0,31403,0
25463,-124,-8272,672,-49,43,10,-11442,5,1,-1001,-288,37556,309,25,79,0,0,0,0,0,0,0,0,-32317,0,0,0,3959,0,31423,0
25473,-184,-8260,678,-54,41,12,-11444,-6,-1,-1003,-288,37559,308,25,79,0,0,0,0,0,0,0,0,-32317,0,0,0,3960,0,31443,0
25483,-60,-8236,680,-52,37,15,-11444,-2,-6,-998,-280,37559,302,25,79,0,0,0,0,0,0,0,0,-32317,0,0,0,3960,0,31463,0
25493,-74,-8284,686,-51,43,5,-11443,-3,6,-998,-288,37562,304,25,79,0,0,0,0,0,0,0,0,-32317,0,0,0,3959,0,31483,0
25503,-116,-8292,690,-49,43,9,-11442,7,0,-1000,-280,37566,312,25,79,0,0,0,0,0,0,0,0,-32317,0,0,0,3960,0,31503,0
25513,-118,-8266,682,-51,34,10,-11442,3,2,-997,-296,37569,320,25,79,0,0,0,0,0,0,0,0,-32317,0,0,0,3959,0,31523,0
25523,-126,-8302,662,-46,31,9,-11442,1,-4,-1003,-296,37568,321,25,79,0,0,0,0,0,0,0,0,-32317,0,0,0,3960,0,31543,0
25533,-124,-8240,672,-48,41,14,-11442,13,-1,-998,-296,37566,317,25,79,0,0,0,0,0,0,0,0,-32317,0,0,0,3960,0,31563,0
25543,-152,-8254,680,-50,38,15,-11444,-5,3,-999,-296,37567,317,25,79,0,0,0,0,0,0,0,0,-32317,0,0,0,3960,0,31583,0
25553,-96,-8280,658,-47,37,12,-11442,3,3,-999,-288,37567,320,25,79,0,0,0,0,0,0,0,0,-32317,0,0,0,3960,0,31603,0
25563,-104,-8266,674,-47,42,15,-11444,-6,6,-1000,-288,37561,311,25,79,0,0,0,0,0,0,0,0,-32317,0,0,0,3960,0,31623,0
25573,-96,-8244,684,-46,41,10,-11444,-4,-3,-998,-288,37557,316,25,79,0,0,0,0,0,0,0,0,-32317,0,0,0,3960,0,31643,0
25583,-122,-8290,694,-48,44,16,-11443,-7,0,-998,-280,37557,320,25,79,0,0,0,0,0,0,0,0,-32317,0,0,0,3960,0,31663,0
25593,-54,-8268,690,-51,44,7,-11443,4,0,-1001,-288,37562,322,25,79,0,0,0,0,0,0,0,0,-32317,0,0,0,3960,0,31683,0
25603,-116,-8268,688,-49,39,8,-11443,0,1,-1001,-288,37564,310,25,79,0,0,0,0,0,0,0,0,-32317,0,0,0,3959,0,31703,0
25613,-126,-8264,694,-50,41,14,-11444,-4,0,-1004,-296,37562,315,25,79,0,0,0,0,0,0,0,0,-32317,0,0,0,3960,0,31723,0
25623,-80,-8284,672,-55,42,16,-11442,4,0,-1002,-296,37559,313,25,79,0,0,0,0,0,0,0,0,-32317,0,0,0,3960,0,31743,0
25633,-126,-8264,644,-51,49,19,-11443,2,-3,-998,-288,37561,318,25,79,0,0,0,0,0,0,0,0,-32317,0,0,0,3959,0,31763,0
25643,-82,-8272,662,-44,40,12,-11443,7,4,-996,-288,37571,311,25,79,0,0,0,0,0,0,0,0,-32317,0,0,0,3959,0,31783,0
25653,-170,-8282,660,-51,39,12,-11443,2,-4,-1002,-296,37570,316,25,79,0,0,0,0,0,0,0,0,-32317,0,0,0,3960,0,31803,0
25663,-98,-8256,668,-48,36,9,-11444,3,2,-996,-280,37569,317,25,79,0,0,0,0,0,0,0,0,-32317,0,0,0,3960,0,31823,0
25673,-70,-8278,692,-51,40,7,-11443,3,2,-998,-296,37562,322,25,79,0,0,0,0,0,0,0,0,-32317,0,0,0,3960,0,31843,0
25683,-102,-8296,694,-49,45,8,-11443,1,0,-997,-280,37563,318,25,79,0,0,0,0,0,0,0,0,-32317,0,0,0,3960,0,31863,0
25693,-70,-8264,708,-48,38,16,-11442,3,1,-999,-296,37565,321,25,79,0,0,0,0,0,0,0,0,-32317,0,0,0,3960,0,31883,0
25703,-100,-8248,688,-52,42,17,-11443,4,-2,-999,-288,37564,323,25,79,0,0,0,0,0,0,0,0,-32317,0,0,0,3960,0,31903,0
25713,-74,-8272,684,-51,44,14,-11443,0,-2,-998,-296,37563,322,25,79,0,0,0,0,0,0,0,0,-32317,0,0,0,3960,0,31923,0
25723,-170,-8264,672,-54,34,20,-11444,-13,-5,-1002,-296,37564,315,25,79,0,0,0,0,0,0,0,0,-32317,0,0,0,3960,0,31944,0
25733,-132,-8270,666,-49,42,19,-11443,-2,-1,-998,-288,37567,310,25,79,0,0,0,0,0,0,0,0,-32317,0,0,0,3960,0,31963,0
25743,-106,-8272,658,-53,39,14,-11443,1,1,-998,-296,37567,311,25,79,0,0,0,0,0,0,0,0,-32317,0,0,0,3959,0,31984,0
25753,-60,-8234,674,-50,37,22,-11442,6,10,-1003,-296,37571,305,25,79,0,0,0,0,0,0,0,0,-32317,0,0,0,3960,0,32004,0
25763,-88,-8232,682,-48,44,15,-11443,0,-5,-997,-288,37571,304,25,79,0,0,0,0,0,0,0,0,-32317,0,0,0,3960,0,32024,0
25773,-118,-8300,706,-46,41,18,-11443,4,0,-1001,-296,37572,310,25,79,0,0,0,0,0,0,0,0,-32317,0,0,0,3960,0,32044,0
25783,-94,-8274,712,-47,49,13,-11443,-1,0,-998,-280,37568,312,25,79,0,0,0,0,0,0,0,0,-32317,0,0,0,3959,0,32064,0
25793,-150,-8274,710,-47,43,13,-11442,3,2,-1001,-296,37567,313,25,79,0,0,0,0,0,0,0,0,-32317,0,0,0,3959,0,32084,0
25803,-66,-8304,714,-50,41,16,-11442,4,2,-999,-296,37566,314,25,79,0,0,0,0,0,0,0,0,-32317,0,0,0,3960,0,32104,0
25813,-68,-8242,700,-50,39,12,-11444,-13,2,-1000,-288,37569,320,25,79,0,0,0,0,0,0,0,0,-32317,0,0,0,3960,0,32124,0
25823,-126,-8280,692,-50,45,18,-11442,5,-2,-997,-304,37569,317,25,79,0,0,0,0,0,0,0,0,-32317,0,0,0,3960,0,32144,0
25833,-84,-8310,688,-52,42,18,-11442,2,0,-1001,-288,37567,317,25,79,0,0,0,0,0,0,0,0,-32317,0,0,0,3960,0,32164,0
25843,-108,-8230,692,-55,41,13,-11443,0,1,-995,-296,37566,315,25,79,0,0,0,0,0,0,0,0,-32317,0,0,0,3960,0,32184,0
25853,-88,-8268,654,-53,39,18,-11442,2,1,-1001,-288,37566,315,25,79,0,0,0,0,0,0,0,0,-32317,0,0,0,3960,0,32204,0
25863,-78,-8304,708,-47,40,20,-11443,-2,-2,-996,-288,37570,315,25,79,0,0,0,0,0,0,0,0,-32317,0,0,0,3960,0,32224,0
25873,-74,-8298,714,-50,41,11,-11443,2,1,-1001,-288,37570,322,25,79,0,0,0,0,0,0,0,0,-32317,0,0,0,3960,0,32244,0
25883,-112,-8262,678,-51,42,17,-11443,6,4,-995,-280,37567,325,25,79,0,0,0,0,0,0,0,0,-32317,0,0,0,3960,0,32264,0
25893,-72,-8260,686,-51,44,19,-11442,8,10,-997,-296,37563,317,25,79,0,0,0,0,0,0,0,0,-32318,0,0,0,3959,0,32284,0
25903,-136,-8292,672,-59,39,16,-11442,3,3,-999,-288,37563,312,25,79,0,0,0,0,0,0,0,0,-32317,0,0,0,3960,0,32304,0
25913,-110,-8254,666,-56,43,12,-11442,3,1,-1001,-288,37565,316,25,79,0,0,0,0,0,0,0,0,-32317,0,0,0,3960,0,32324,0
25923,-124,-8290,658,-51,41,12,-11443,-3,1,-1002,-288,37562,320,25,79,0,0,0,0,0,0,0,0,-32317,0,0,0,3960,0,32344,0
25933,-148,-8296,662,-53,43,12,-11444,-4,-1,-1001,-296,37562,321,25,79,0,0,0,0,0,0,0,0,-32317,0,0,0,3960,0,32364,0
25943,-86,-8258,706,-50,39,13,-11443,-1,2,-997,-288,37562,322,25,79,0,0,0,0,0,0,0,0,-32317,0,0,0,3960,0,32384,0
25953,-94,-8280,694,-45,46,11,-11443,-4,0,-999,-296,37565,319,25,79,0,0,0,0,0,0,0,0,-32317,0,0,0,3960,0,32404,0
25963,-86,-8292,684,-54,40,16,-11443,-3,-3,-997,-288,37573,321,25,79,0,0,0,0,0,0,0,0,-32317,0,0,0,3960,0,32424,0
25973,-56,-8236,724,-58,39,15,-11443,-3,1,-999,-296,37581,310,25,79,0,0,0,0,0,0,0,0,-32317,0,0,0,3959,0,32444,0
25983,-104,-8262,682,-51,37,17,-11442,-4,3,-994,-288,37594,310,25,79,0,0,0,0,0,0,0,0,-32317,0,0,0,3960,0,32464,0
25993,-118,-8304,710,-49,48,16,-11443,-2,-1,-1002,-288,37587,314,25,79,0,0,0,0,0,0,0,0,-32317,0,0,0,3960,0,32484,0
26003,-120,-8258,694,-54,38,21,-11443,0,3,-1001,-280,37577,310,25,79,0,0,0,0,0,0,0,0,-32317,0,0,0,3959,0,32504,0
26013,-98,-8250,648,-58,40,14,-11443,4,-2,-996,-288,37563,308,25,79,0,0,0,0,0,0,0,0,-32317,0,0,0,3960,0,32524,0
26023,-148,-8286,674,-55,40,17,-11442,0,3,-1001,-296,37557,307,25,79,0,0,0,0,0,0,0,0,-32317,0,0,0,3960,0,32544,0
26033,-190,-8272,664,-55,37,16,-11444,4,-6,-1000,-288,37557,313,25,79,0,0,0,0,0,0,0,0,-32317,0,0,0,3960,0,32564,0
26043,-78,-8264,660,-52,41,16,-11444,-3,0,-1001,-296,37557,318,25,79,0,0,0,0,0,0,0,0,-32317,0,0,0,3961,0,32584,0
26053,-90,-8276,696,-54,37,13,-11442,9,1,-1000,-296,37556,312,25,79,0,0,0,0,0,0,0,0,-32317,0,0,0,3960,0,32604,0
26063,-126,-8256,684,-50,41,10,-11443,1,3,-1001,-304,37555,314,25,79,0,0,0,0,0,0,0,0,-32317,0,0,0,3960,0,32624,0
26073,-80,-8280,706,-54,46,13,-11444,-7,2,-1001,-288,37562,311,25,79,0,0,0,0,0,0,0,0,-32317,0,0,0,3960,0,32644,0
26083,-132,-8284,664,-50,39,17,-11441,12,1,-998,-288,37562,313,25,79,0,0,0,0,0,0,0,0,-32317,0,0,0,3959,0,32664,0
26093,-156,-8234,676,-44,39,15,-11444,0,1,-1001,-296,37565,318,25,79,0,0,0,0,0,0,0,0,-32317,0,0,0,3959,0,32684,0
26103,-120,-8282,682,-50,38,14,-11444,-6,1,-1000,-288,37562,315,25,79,0,0,0,0,0,0,0,0,-32317,0,0,0,3959,0,32704,0
26113,-96,-8252,692,-53,37,17,-11442,-4,-1,-1000,-288,37563,311,25,79,0,0,0,0,0,0,0,0,-32317,0,0,0,3960,0,32724,0
26123,-116,-8266,706,-44,42,15,-11444,2,0,-1002,-296,37561,305,25,79,0,0,0,0,0,0,0,0,-32317,0,0,0,3960,0,32744,0
26133,-148,-8270,656,-56,41,13,-11442,0,-1,-997,-288,37561,311,25,79,0,0,0,0,0,0,0,0,-32317,0,0,0,3960,0,32764,0
26143,-76,-8276,710,-53,42,15,-11444,3,-1,-995,-288,37561,316,25,79,0,0,0,0,0,0,0,0,-32317,0,0,0,3959,0,32784,0
26153,-102,-8270,660,-49,46,14,-11444,0,3,-999,-280,37561,317,25,79,0,0,0,0,0,0,0,0,-32317,0,0,0,3960,0,32804,0
26163,-120,-8302,696,-52,43,14,-11444,-3,-3,-996,-280,37559,317,25,79,0,0,0,0,0,0,0,0,-32317,0,0,0,3960,0,32824,0
26173,-86,-8274,656,-48,40,13,-11443,0,7,-1001,-288,37557,320,25,79,0,0,0,0,0,0,0,0,-32317,0,0,0,3960,0,32844,0
26183,-136,-8246,680,-50,41,15,-11444,0,4,-999,-304,37556,323,25,79,0,0,0,0,0,0,0,0,-32317,0,0,0,3960,0,32864,0
26193,-150,-8278,684,-53,42,8,-11444,-3,4,-1001,-296,37555,313,25,79,0,0,0,0,0,0,0,0,-32317,0,0,0,3959,0,32884,0
26203,-140,-8284,666,-53,43,14,-11444,-5,-1,-1001,-280,37557,318,25,79,0,0,0,0,0,0,0,0,-32317,0,0,0,3960,0,32904,0
26213,-114,-8260,656,-50,43,7,-11444,-5,-1,-1002,-280,37550,317,25,79,0,0,0,0,0,0,0,0,-32317,0,0,0,3959,0,32924,0
26223,-58,-8268,700,-51,40,14,-11445,-4,2,-1001,-288,37549,321,25,79,0,0,0,0,0,0,0,0,-32317,0,0,0,3961,0,32944,0
26233,-68,-8276,692,-50,42,18,-11443,0,-1,-1000,-296,37550,313,25,79,0,0,0,0,0,0,0,0,-32317,0,0,0,3959,0,32964,0
26243,-68,-8250,670,-49,39,16,-11443,3,0,-998,-296,37552,311,25,79,0,0,0,0,0,0,0,0,-32317,0,0,0,3960,0,32984,0
26253,-110,-8280,698,-48,40,15,-11444,-4,-4,-1002,-296,37552,312,25,79,0,0,0,0,0,0,0,0,-32317,0,0,0,3960,0,33004,0
26263,-100,-8276,680,-47,44,16,-11444,-6,-2,-998,-280,37549,315,25,79,0,0,0,0,0,0,0,0,-32317,0,0,0,3959,0,33024,0
26273,-96,-8258,698,-49,42,17,-11444,3,4,-995,-288,37549,309,25,79,0,0,0,0,0,0,0,0,-32317,0,0,0,3960,0,33044,0
26283,-126,-8282,676,-53,42,10,-11444,-3,4,-996,-288,37556,305,25,79,0,0,0,0,0,0,0,0,-32317,0,0,0,3959,0,33064,0
26293,-112,-8264,686,-41,37,8,-11443,0,-6,-1000,-288,37558,309,25,79,0,0,0,0,0,0,0,0,-32317,0,0,0,3959,0,33084,0
26303,-148,-8274,698,-47,44,15,-11444,-2,-1,-1003,-288,37559,313,25,79,0,0,0,0,0,0,0,0,-32317,0,0,0,3959,0,33104,0
26313,-108,-8284,684,-46,37,11,-11444,-8,2,-1000,-288,37552,319,25,79,0,0,0,0,0,0,0,0,-32317,0,0,0,3959,0,33124,0
26323,-98,-8248,678,-42,41,17,-11444,4,2,-999,-296,37552,317,25,79,0,0,0,0,0,0,0,0,-32317,0,0,0,3960,0,33144,0
26333,-72,-8276,682,-50,44,14,-11443,3,3,-1001,-304,37551,316,25,79,0,0,0,0,0,0,0,0,-32317,0,0,0,3960,0,33164,0
26343,-80,-8260,696,-49,40,18,-11444,0,1,-999,-288,37550,308,25,79,0,0,0,0,0,0,0,0,-32317,0,0,0,3959,0,33184,0
26353,-104,-8266,672,-46,42,14,-11444,-14,-3,-1000,-288,37550,312,25,79,0,0,0,0,0,0,0,0,-32317,0,0,0,3960,0,33204,0
26363,-80,-8276,696,-47,46,20,-11443,1,-1,-1002,-304,37551,317,25,79,0,0,0,0,0,0,0,0,-32317,0,0,0,3959,0,33224,0
26373,-114,-8272,696,-50,40,19,-11442,4,-3,-999,-288,37552,316,25,79,0,0,0,0,0,0,0,0,-32317,0,0,0,3959,0,33244,0
26383,-98,-8276,704,-49,40,19,-11444,-2,0,-996,-280,37554,311,25,79,0,0,0,0,0,0,0,0,-32317,0,0,0,3960,0,33264,0
26393,-132,-8286,712,-55,44,20,-11443,1,-6,-997,-288,37561,309,25,79,0,0,0,0,0,0,0,0,-32317,0,0,0,3960,0,33284,0
26403,-94,-8274,692,-57,42,22,-11444,0,2,-1000,-288,37559,312,25,79,0,0,0,0,0,0,0,0,-32317,0,0,0,3960,0,33304,0
26413,-104,-8290,654,-56,41,27,-11443,0,2,-999,-280,37559,305,25,79,0,0,0,0,0,0,0,0,-32317,0,0,0,3960,0,33324,0
26423,-154,-8290,660,-51,32,23,-11442,5,-6,-999,-296,37555,307,25,79,0,0,0,0,0,0,0,0,-32317,0,0,0,3959,0,33344,0
26433,-216,-8228,684,-54,37,12,-11442,10,2,-999,-296,37556,314,25,79,0,0,0,0,0,0,0,0,-32317,0,0,0,3960,0,33364,0
26443,-176,-8292,668,-49,49,8,-11443,4,4,-997,-288,37557,325,25,79,0,0,0,0,0,0,0,0,-32317,0,0,0,3960,0,33384,0
26453,-54,-8280,644,-53,43,10,-11443,0,3,-1001,-288,37558,324,25,79,0,0,0,0,0,0,0,0,-32317,0,0,0,3959,0,33404,0
26463,-48,-8254,670,-50,42,8,-11442,6,-2,-999,-288,37560,330,25,79,0,0,0,0,0,0,0,0,-32317,0,0,0,3960,0,33424,0
26473,-96,-8244,682,-53,42,15,-11443,1,5,-997,-296,37559,328,25,79,0,0,0,0,0,0,0,0,-32317,0,0,0,3959,0,33444,0
26483,-90,-8280,700,-53,44,19,-11443,0,3,-997,-280,37557,323,25,79,0,0,0,0,0,0,0,0,-32317,0,0,0,3960,0,33464,0
26493,-162,-8246,704,-47,41,13,-11443,9,-2,-998,-288,37559,312,25,79,0,0,0,0,0,0,0,0,-32317,0,0,0,3960,0,33484,0
26503,-92,-8302,692,-50,43,13,-11443,-2,1,-1001,-288,37562,301,25,79,0,0,0,0,0,0,0,0,-32317,0,0,0,3960,0,33504,0
26513,-114,-8300,690,-54,41,17,-11445,-4,1,-996,-288,37565,306,25,79,0,0,0,0,0,0,0,0,-32317,0,0,0,3960,0,33524,0
26523,-136,-8276,662,-57,43,17,-11444,-4,0,-998,-288,37565,303,25,79,0,0,0,0,0,0,0,0,-32317,0,0,0,3959,0,33544,0
26533,-112,-8304,676,-50,44,14,-11442,3,1,-999,-288,37557,305,25,79,0,0,0,0,0,0,0,0,-32317,0,0,0,3960,0,33564,0
26543,-134,-8286,662,-47,39,9,-11444,1,4,-997,-296,37558,309,25,79,0,0,0,0,0,0,0,0,-32317,0,0,0,3960,0,33584,0
26553,-74,-8270,664,-44,42,14,-11444,-6,1,-998,-288,37560,314,25,79,0,0,0,0,0,0,0,0,-32317,0,0,0,3960,0,33604,0
26563,-144,-8258,700,-46,32,14,-11444,-8,4,-999,-280,37560,312,25,79,0,0,0,0,0,0,0,0,-32317,0,0,0,3960,0,33624,0
26573,-150,-8280,678,-46,40,4,-11444,-3,-5,-1000,-296,37558,311,25,79,0,0,0,0,0,0,0,0,-32317,0,0,0,3960,0,33644,0
26583,-126,-8254,692,-46,40,5,-11442,0,-4,-998,-296,37559,311,25,79,0,0,0,0,0,0,0,0,-32317,0,0,0,3960,0,33664,0
26593,-96,-8322,662,-45,41,5,-11443,2,-1,-1000,-288,37562,310,25,79,0,0,0,0,0,0,0,0,-32317,0,0,0,3960,0,33684,0
26603,-86,-8266,674,-43,36,9,-11443,12,2,-997,-296,37567,321,25,79,0,0,0,0,0,0,0,0,-32317,0,0,0,3960,0,33704,0
26613,-114,-8280,654,-46,39,4,-11445,-4,4,-1000,-304,37566,329,25,79,0,0,0,0,0,0,0,0,-32317,0,0,0,3960,0,33724,0
26623,-54,-8250,688,-43,44,7,-11443,3,-3,-1000,-296,37567,324,25,79,0,0,0,0,0,0,0,0,-32317,0,0,0,3960,0,33744,0
26633,-60,-8270,684,-41,36,13,-11446,-12,-1,-999,-296,37568,328,25,79,0,0,0,0,0,0,0,0,-32317,0,0,0,3960,0,33764,0
26643,-74,-8284,716,-48,38,16,-11445,-3,4,-1001,-296,37564,315,25,79,0,0,0,0,0,0,0,0,-32317,0,0,0,3960,0,33784,0
26653,-78,-8298,694,-48,41,16,-11444,3,0,-999,-288,37563,317,25,79,0,0,0,0,0,0,0,0,-32317,0,0,0,3960,0,33804,0
26663,-92,-8266,686,-48,37,22,-11444,1,0,-1001,-280,37564,322,25,79,0,0,0,0,0,0,0,0,-32317,0,0,0,3960,0,33824,0
26673,-88,-8276,702,-56,40,20,-11444,3,0,-1002,-296,37563,312,25,79,0,0,0,0,0,0,0,0,-32317,0,0,0,3959,0,33844,0
26683,-108,-8290,636,-51,36,18,-11445,-2,0,-996,-288,37564,310,25,79,0,0,0,0,0,0,0,0,-32317,0,0,0,3959,0,33864,0
26693,-120,-8288,696,-49,42,17,-11444,-3,1,-999,-288,37564,311,25,79,0,0,0,0,0,0,0,0,-32317,0,0,0,3960,0,33884,0
26703,-104,-8296,688,-50,44,14,-11444,1,-2,-997,-288,37563,313,25,79,0,0,0,0,0,0,0,0,-32317,0,0,0,3960,0,33904,0
26713,-142,-8262,680,-45,34,13,-11444,-2,5,-1002,-296,37564,309,25,79,0,0,0,0,0,0,0,0,-32317,0,0,0,3960,0,33924,0
26723,-86,-8288,678,-45,37,15,-11443,3,-1,-1001,-296,37567,301,25,79,0,0,0,0,0,0,0,0,-32317,0,0,0,3959,0,33945,0
26733,-152,-8254,684,-47,44,17,-11443,2,1,-998,-280,37571,305,25,79,0,0,0,0,0,0,0,0,-32317,0,0,0,3960,0,33965,0
26743,-132,-8270,692,-47,43,12,-11443,2,-5,-999,-288,37571,308,25,79,0,0,0,0,0,0,0,0,-32317,0,0,0,3959,0,33985,0
26753,-114,-8268,686,-53,50,13,-11444,3,-1,-1001,-288,37571,318,25,79,0,0,0,0,0,0,0,0,-32317,0,0,0,3960,0,34005,0
26763,-74,-8276,700,-52,38,14,-11444,-2,-1,-1002,-296,37574,312,25,79,0,0,0,0,0,0,0,0,-32317,0,0,0,3960,0,34025,0
26773,-86,-8284,682,-54,40,21,-11444,2,2,-995,-296,37573,316,25,79,0,0,0,0,0,0,0,0,-32317,0,0,0,3960,0,34045,0
26783,-92,-8266,660,-55,45,15,-11444,-9,-2,-1000,-296,37570,315,25,79,0,0,0,0,0,0,0,0,-32317,0,0,0,3960,0,34065,0
26793,-106,-8250,700,-57,42,18,-11444,3,-3,-1001,-296,37569,320,25,79,0,0,0,0,0,0,0,0,-32317,0,0,0,3960,0,34085,0
26803,-122,-8266,686,-50,41,20,-11442,1,5,-1001,-288,37568,321,25,79,0,0,0,0,0,0,0,0,-32317,0,0,0,3960,0,34105,0
26813,-88,-8272,716,-47,42,18,-11444,-1,-1,-994,-288,37571,332,25,79,0,0,0,0,0,0,0,0,-32317,0,0,0,3961,0,34125,0
26823,-160,-8272,714,-54,39,13,-11443,9,5,-1000,-296,37571,332,25,79,0,0,0,0,0,0,0,0,-32317,0,0,0,3960,0,34145,0
26833,-100,-8262,684,-50,44,9,-11445,-4,0,-998,-296,37568,334,25,79,0,0,0,0,0,0,0,0,-32317,0,0,0,3960,0,34165,0
26843,-122,-8252,670,-54,41,9,-11446,-9,-4,-1000,-304,37564,322,25,79,0,0,0,0,0,0,0,0,-32317,0,0,0,3960,0,34185,0
26853,-112,-8256,672,-55,42,14,-11444,-10,-5,-1000,-296,37563,322,25,79,0,0,0,0,0,0,0,0,-32317,0,0,0,3960,0,34205,0
26863,-70,-8236,702,-51,38,9,-11444,1,0,-1000,-288,37563,320,25,79,0,0,0,0,0,0,0,0,-32317,0,0,0,3959,0,34225,0
26873,-106,-8296,694,-52,38,18,-11444,-2,0,-999,-280,37563,318,25,79,0,0,0,0,0,0,0,0,-32317,0,0,0,3960,0,34245,0
26883,-116,-8270,684,-57,44,16,-11444,0,-1,-996,-272,37564,318,25,79,0,0,0,0,0,0,0,0,-32317,0,0,0,3960,0,34265,0
26893,-92,-8260,692,-57,41,16,-11443,3,0,-1001,-296,37565,319,25,79,0,0,0,0,0,0,0,0,-32317,0,0,0,3960,0,34285,0
26903,-128,-8278,696,-56,45,17,-11444,-2,-6,-998,-288,37565,329,25,79,0,0,0,0,0,0,0,0,-32317,0,0,0,3958,0,34305,0
26913,-126,-8322,694,-54,43,18,-11444,-1,-1,-1000,-280,37565,318,25,79,0,0,0,0,0,0,0,0,-32317,0,0,0,3959,0,34325,0
26923,-128,-8256,674,-53,46,18,-11444,1,-2,-998,-296,37566,313,25,79,0,0,0,0,0,0,0,0,-32317,0,0,0,3958,0,34345,0
26933,-138,-8284,664,-59,43,21,-11444,0,-3,-1000,-296,37565,313,25,79,0,0,0,0,0,0,0,0,-32317,0,0,0,3960,0,34365,0
26943,-114,-8260,660,-52,39,14,-11444,1,0,-1000,-296,37565,312,25,79,0,0,0,0,0,0,0,0,-32317,0,0,0,3958,0,34385,0
26953,-92,-8258,664,-49,42,19,-11442,0,2,-999,-296,37562,318,25,79,0,0,0,0,0,0,0,0,-32317,0,0,0,3960,0,34405,0
26963,-108,-8300,676,-52,36,17,-11443,-4,4,-1001,-296,37562,311,25,79,0,0,0,0,0,0,0,0,-32317,0,0,0,3960,0,34425,0
26973,-100,-8300,690,-51,42,15,-11444,3,3,-1001,-296,37562,313,25,79,0,0,0,0,0,0,0,0,-32317,0,0,0,3960,0,34445,0
26983,-92,-8264,710,-50,45,17,-11444,-7,1,-998,-288,37560,308,25,79,0,0,0,0,0,0,0,0,-32317,0,0,0,3960,0,34465,0
26993,-80,-8270,710,-55,42,16,-11444,1,-4,-996,-304,37559,317,25,79,0,0,0,0,0,0,0,0,-32317,0,0,0,3960,0,34485,0
27003,-76,-8282,704,-56,41,15,-11444,-6,-3,-999,-296,37559,317,25,79,0,0,0,0,0,0,0,0,-32317,0,0,0,3959,0,34505,0
27013,-134,-8284,662,-61,38,17,-11446,-4,-4,-1005,-280,37560,314,25,79,0,0,0,0,0,0,0,0,-32317,0,0,0,3960,0,34525,0
27023,-80,-8262,672,-57,41,19,-11445,-7,-3,-1001,-296,37562,315,25,79,0,0,0,0,0,0,0,0,-32317,0,0,0,3960,0,34545,0
27033,-90,-8264,668,-54,41,13,-11444,3,-3,-999,-296,37563,319,25,79,0,0,0,0,0,0,0,0,-32316,0,0,0,3960,0,34565,0
27043,-130,-8266,644,-54,39,16,-11443,11,6,-999,-296,37562,318,25,79,0,0,0,0,0,0,0,0,-32316,0,0,0,3959,0,34585,0
27053,-136,-8268,630,-55,43,13,-11444,0,2,-1000,-296,37558,318,25,79,0,0,0,0,0,0,0,0,-32317,0,0,0,3958,0,34605,0
27063,-100,-8288,662,-52,42,15,-11444,-1,-3,-1001,-288,37560,316,25,79,0,0,0,0,0,0,0,0,-32317,0,0,0,3960,0,34625,0
27073,-136,-8276,680,-51,40,15,-11443,4,-2,-1001,-296,37556,319,25,79,0,0,0,0,0,0,0,0,-32317,0,0,0,3960,0,34645,0
27083,-66,-8256,686,-56,45,5,-11444,2,2,-999,-288,37555,311,25,79,0,0,0,0,0,0,0,0,-32317,0,0,0,3959,0,34665,0
27093,-106,-8252,658,-53,36,10,-11444,-1,3,-998,-304,37556,311,25,79,0,0,0,0,0,0,0,0,-32317,0,0,0,3959,0,34685,0
27103,-96,-8260,674,-51,42,16,-11445,-2,2,-1000,-296,37559,313,25,79,0,0,0,0,0,0,0,0,-32317,0,0,0,3960,0,34705,0
27113,-1260,-8378,786,-37,-8,123,-11425,95,31,-404,0,37560,315,25,79,0,0,0,0,0,0,0,0,-32317,0,0,0,3960,0,34725,0
27123,584,-7928,224,-78,2,207,-11358,144,147,-284,0,37559,313,25,79,0,0,0,0,0,0,0,0,-32317,0,0,0,3965,0,34745,0
27133,222,-8014,700,-22,-112,223,-11308,107,62,-202,0,37563,295,25,79,0,0,0,0,0,0,0,0,-32317,0,0,0,3970,0,34765,0
27143,-492,-8236,744,-30,-100,188,-11272,74,-66,-142,0,37566,288,25,79,0,0,0,0,0,0,0,0,-32318,0,0,0,3975,0,34786,0
27153,-356,-8286,802,-47,-21,120,-11240,58,-35,-129,0,37567,289,25,79,0,0,0,0,0,0,0,0,-32317,0,0,0,3978,0,34806,0
27163,-466,-8308,830,-50,34,75,-11222,46,-31,-90,0,37561,305,25,79,0,0,0,0,0,0,0,0,-32317,0,0,0,3980,0,34826,0
27173,134,-8160,702,-69,49,71,-11192,61,-2,-128,0,37559,309,25,79,0,0,0,0,0,0,0,0,-32318,0,0,0,3982,0,34846,0
27183,106,-8268,638,-53,21,57,-11184,-2,-21,-21,0,37561,315,25,79,0,0,0,0,0,0,0,0,-32317,0,0,0,3983,0,34866,0
27193,-392,-8304,712,-58,32,38,-11184,7,-55,-4,0,37561,315,25,79,0,0,0,0,0,0,0,0,-32317,0,0,0,3983,0,34886,0
27203,-338,-8246,722,-58,57,18,-11185,-13,-12,-4,0,37558,315,25,79,0,0,0,0,0,0,0,0,-32317,0,0,0,3983,0,34906,0
27213,-84,-8242,700,-64,55,12,-11183,1,-2,0,0,37558,315,25,79,0,0,0,0,0,0,0,0,-32317,0,0,0,3983,0,34926,0
27223,36,-8262,680,-60,47,23,-11180,16,-3,-2,0,37558,317,25,79,0,0,0,0,0,0,0,0,-32317,0,0,0,3983,0,34946,0
27233,-130,-8282,650,-58,30,32,-11183,1,2,-7,0,37561,328,25,79,0,0,0,0,0,0,0,0,-32318,0,0,0,3983,0,34966,0
27243,-192,-8272,676,-57,35,30,-11180,7,2,-11,0,37571,336,25,79,0,0,0,0,0,0,0,0,-32317,0,0,0,3983,0,34986,0
27253,-190,-8258,662,-49,42,20,-11179,6,-1,-9,0,37573,339,25,79,0,0,0,0,0,0,0,0,-32317,0,0,0,3983,0,35006,0
27263,-136,-8266,632,-50,52,21,-11178,6,1,-10,0,37571,327,25,79,0,0,0,0,0,0,0,0,-32317,0,0,0,3984,0,35026,0
27273,-112,-8308,714,-45,43,25,-11175,9,-1,-10,0,37561,323,25,79,0,0,0,0,0,0,0,0,-32317,0,0,0,3984,0,35046,0
27283,-152,-8260,716,-47,36,28,-11173,6,3,-12,0,37556,323,25,79,0,0,0,0,0,0,0,0,-32317,0,0,0,3983,0,35066,0
27293,-176,-8272,690,-53,38,28,-11172,2,0,-16,0,37556,322,25,79,0,0,0,0,0,0,0,0,-32317,0,0,0,3984,0,35086,0
27303,-162,-8266,672,-54,38,21,-11168,4,1,-20,0,37556,326,25,79,0,0,0,0,0,0,0,0,-32317,0,0,0,3984,0,35107,0
27313,-126,-8260,650,-55,37,30,-11162,18,7,-26,0,37554,324,25,79,0,0,0,0,0,0,0,0,-32317,0,0,0,3983,0,35127,0
27323,-118,-8292,626,-45,34,38,-11156,16,2,-35,0,37554,323,25,79,0,0,0,0,0,0,0,0,-32317,0,0,0,3984,0,35147,0
27333,-110,-8260,676,-38,20,44,-11151,14,13,-41,0,37558,313,25,79,0,0,0,0,0,0,0,0,-32317,0,0,0,3986,0,35167,0
27343,-162,-8268,682,-45,18,39,-11144,12,2,-30,0,37563,301,25,79,0,0,0,0,0,0,0,0,-32317,0,0,0,3986,0,35187,0
27353,-228,-8276,724,-48,33,29,-11141,9,-8,-15,0,37564,297,25,79,0,0,0,0,0,0,0,0,-32317,0,0,0,3986,0,35207,0
27363,-234,-8278,740,-42,44,14,-11141,3,-8,-5,0,37563,299,25,79,0,0,0,0,0,0,0,0,-32317,0,0,0,3987,0,35227,0
27373,-154,-8286,714,-54,45,10,-11142,-1,2,-1,0,37558,297,25,79,0,0,0,0,0,0,0,0,-32317,0,0,0,3987,0,35247,0
27383,-96,-8264,700,-50,47,13,-11141,-1,-1,0,0,37561,295,25,79,0,0,0,0,0,0,0,0,-32317,0,0,0,3987,0,35267,0
27393,-76,-8280,670,-59,40,23,-11140,-3,4,-2,0,37565,301,25,79,0,0,0,0,0,0,0,0,-32317,0,0,0,3987,0,35287,0
27403,-110,-8268,654,-56,42,22,-11140,-6,-2,-2,0,37567,303,25,79,0,0,0,0,0,0,0,0,-32317,0,0,0,3987,0,35307,0
27413,-174,-8254,676,-51,43,25,-11139,1,1,-5,0,37566,309,25,79,0,0,0,0,0,0,0,0,-32317,0,0,0,3987,0,35327,0
27423,-108,-8266,678,-54,45,17,-11138,9,3,-4,0,37563,308,25,79,0,0,0,0,0,0,0,0,-32317,0,0,0,3987,0,35347,0
27433,-132,-8272,682,-54,39,26,-11138,5,-4,-3,0,37565,309,25,79,0,0,0,0,0,0,0,0,-32317,0,0,0,3987,0,35367,0
27443,-158,-8270,676,-49,41,27,-11138,1,-5,-1,0,37567,324,25,79,0,0,0,0,0,0,0,0,-32317,0,0,0,3986,0,35387,0
27453,-180,-8268,682,-52,43,23,-11139,-3,4,-2,0,37564,321,25,79,0,0,0,0,0,0,0,0,-32317,0,0,0,3986,0,35407,0
27463,-160,-8268,706,-49,44,23,-11137,1,0,-4,0,37561,312,25,79,0,0,0,0,0,0,0,0,-32317,0,0,0,3987,0,35427,0
27473,-158,-8250,698,-54,54,19,-11136,-2,0,-4,0,37558,302,25,79,0,0,0,0,0,0,0,0,-32317,0,0,0,3987,0,35447,0
27483,-156,-8270,674,-51,51,22,-11135,3,-1,-2,0,37559,308,25,79,0,0,0,0,0,0,0,0,-32317,0,0,0,3987,0,35467,0
27493,-150,-8286,664,-55,41,18,-11135,3,3,-1,0,37558,319,25,79,0,0,0,0,0,0,0,0,-32317,0,0,0,3987,0,35487,0
27503,-174,-8268,654,-53,40,18,-11135,0,2,-3,0,37556,315,25,79,0,0,0,0,0,0,0,0,-32317,0,0,0,3987,0,35507,0
27513,-180,-8256,654,-50,43,21,-11135,8,7,-3,0,37560,305,25,79,0,0,0,0,0,0,0,0,-32317,0,0,0,3987,0,35527,0
27523,-138,-8284,678,-47,42,18,-11134,11,4,-1,0,37565,302,25,79,0,0,0,0,0,0,0,0,-32317,0,0,0,3986,0,35546,0
27533,-156,-8292,680,-51,37,15,-11135,1,-1,0,0,37566,303,25,79,0,0,0,0,0,0,0,0,-32317,0,0,0,3987,0,35567,0
27543,-158,-8272,694,-50,40,16,-11132,2,-1,-2,0,37563,302,25,79,0,0,0,0,0,0,0,0,-32317,0,0,0,3986,0,35587,0
27553,-162,-8236,708,-57,36,17,-11133,-5,-2,-3,0,37568,302,25,79,0,0,0,0,0,0,0,0,-32317,0,0,0,3988,0,35607,0
27563,-162,-8290,702,-55,39,18,-11135,2,6,0,0,37569,304,25,79,0,0,0,0,0,0,0,0,-32317,0,0,0,3987,0,35627,0
27573,-136,-8250,688,-51,44,19,-11134,-8,0,-1,0,37569,308,25,79,0,0,0,0,0,0,0,0,-32317,0,0,0,3987,0,35646,0
27583,-142,-8280,672,-57,36,20,-11135,-7,3,-1,0,37562,315,25,79,0,0,0,0,0,0,0,0,-32317,0,0,0,3986,0,35666,0
27593,-174,-8262,666,-50,45,21,-11133,-4,-4,-1,0,37562,308,25,79,0,0,0,0,0,0,0,0,-32317,0,0,0,3987,0,35687,0
27603,-142,-8262,678,-52,40,16,-11131,3,-4,-3,0,37565,302,25,79,0,0,0,0,0,0,0,0,-32317,0,0,0,3986,0,35707,0
27613,-138,-8278,670,-48,49,17,-11132,2,4,-1,0,37568,295,25,79,0,0,0,0,0,0,0,0,-32317,0,0,0,3987,0,35727,0
27623,-154,-8266,650,-48,44,17,-11133,-4,-2,0,0,37566,295,25,79,0,0,0,0,0,0,0,0,-32317,0,0,0,3986,0,35747,0
27633,-170,-8266,692,-45,39,15,-11133,0,2,0,0,37564,299,25,79,0,0,0,0,0,0,0,0,-32317,0,0,0,3987,0,35767,0
27643,-164,-8276,694,-51,41,14,-11134,-9,1,0,0,37565,305,25,79,0,0,0,0,0,0,0,0,-32317,0,0,0,3987,0,35790,0
27653,-160,-8282,680,-51,49,13,-11131,2,-4,-2,0,37571,306,25,79,0,0,0,0,0,0,0,0,-32317,0,0,0,3987,0,35812,0
27663,-148,-8260,672,-55,41,10,-11133,-4,2,-1,0,37571,310,25,79,0,0,0,0,0,0,0,0,-32317,0,0,0,3987,0,35832,0
27673,-142,-8286,694,-50,40,10,-11131,4,-5,-1,0,37571,309,25,79,0,0,0,0,0,0,0,0,-32317,0,0,0,3987,0,35852,0
27683,-148,-8286,674,-50,45,12,-11133,-3,3,0,0,37568,307,25,79,0,0,0,0,0,0,0,0,-32317,0,0,0,3988,0,35872,0
27693,-148,-8250,712,-49,39,16,-11132,7,2,0,0,37570,296,25,79,0,0,0,0,0,0,0,0,-32317,0,0,0,3987,0,35892,0
27703,-154,-8300,706,-51,40,10,-11131,3,1,0,0,37570,302,25,79,0,0,0,0,0,0,0,0,-32317,0,0,0,3987,0,35912,0
27713,-166,-8260,682,-53,40,13,-11131,11,3,0,0,37566,307,25,79,0,0,0,0,0,0,0,0,-32317,0,0,0,3986,0,35932,0
27723,-150,-8238,674,-51,40,9,-11132,0,-2,0,0,37565,310,25,79,0,0,0,0,0,0,0,0,-32317,0,0,0,3986,0,35952,0
27733,-162,-8282,668,-53,38,8,-11131,5,-1,0,0,37569,315,25,79,0,0,0,0,0,0,0,0,-32317,0,0,0,3988,0,35972,0
27743,-154,-8296,668,-52,43,10,-11131,6,1,0,0,37574,316,25,79,0,0,0,0,0,0,0,0,-32317,0,0,0,3987,0,35992,0
27753,-130,-8268,688,-47,42,10,-11133,-8,-3,1,0,37574,317,25,79,0,0,0,0,0,0,0,0,-32317,0,0,0,3987,0,36012,0
27763,-138,-8252,696,-46,37,15,-11132,-2,-2,0,0,37571,310,25,79,0,0,0,0,0,0,0,0,-32317,0,0,0,3986,0,36032,0
27773,-144,-8276,690,-46,38,16,-11133,-7,-5,0,0,37570,301,25,79,0,0,0,0,0,0,0,0,-32316,0,0,0,3987,0,36052,0
27783,-122,-8262,706,-53,42,17,-11132,-1,-1,1,0,37571,309,25,79,0,0,0,0,0,0,0,0,-32317,0,0,0,3988,0,36072,0
27793,-148,-8276,682,-48,44,16,-11132,0,0,0,0,37570,311,25,79,0,0,0,0,0,0,0,0,-32317,0,0,0,3987,0,36092,0
27803,-152,-8278,698,-50,39,16,-11131,5,2,-1,0,37566,312,25,79,0,0,0,0,0,0,0,0,-32317,0,0,0,3987,0,36112,0
27813,-130,-8272,692,-53,38,17,-11131,2,6,0,0,37567,303,25,79,0,0,0,0,0,0,0,0,-32317,0,0,0,3987,0,36132,0
27823,-168,-8258,674,-47,44,17,-11133,-1,-4,-1,0,37570,296,25,79,0,0,0,0,0,0,0,0,-32318,0,0,0,3987,0,36152,0
27833,-166,-8270,676,-51,38,14,-11132,1,0,0,0,37571,297,25,79,0,0,0,0,0,0,0,0,-32317,0,0,0,3987,0,36172,0
27843,-184,-8266,680,-53,39,18,-11131,4,5,0,0,37569,305,25,79,0,0,0,0,0,0,0,0,-32317,0,0,0,3987,0,36192,0
27853,-196,-8284,684,-56,42,11,-11133,-3,-4,1,0,37568,308,25,79,0,0,0,0,0,0,0,0,-32317,0,0,0,3987,0,36212,0
27863,-178,-8256,674,-53,39,11,-11130,9,3,2,0,37574,308,25,79,0,0,0,0,0,0,0,0,-32317,0,0,0,3986,0,36232,0
27873,-178,-8288,658,-51,36,6,-11132,-2,-6,1,0,37578,309,25,79,0,0,0,0,0,0,0,0,-32317,0,0,0,3988,0,36252,0
27883,-184,-8270,644,-47,37,7,-11132,-7,1,0,0,37576,311,25,79,0,0,0,0,0,0,0,0,-32317,0,0,0,3987,0,36272,0
27893,-128,-8250,660,-49,43,6,-11132,4,-6,0,0,37574,307,25,79,0,0,0,0,0,0,0,0,-32317,0,0,0,3987,0,36292,0
27903,-114,-8272,712,-42,35,10,-11132,2,-3,0,0,37566,303,25,79,0,0,0,0,0,0,0,0,-32317,0,0,0,3987,0,36312,0
27913,-100,-8286,692,-49,34,10,-11134,-1,-10,0,0,37566,298,25,79,0,0,0,0,0,0,0,0,-32317,0,0,0,3987,0,36332,0
27923,-132,-8270,696,-45,35,13,-11133,2,1,0,0,37568,300,25,79,0,0,0,0,0,0,0,0,-32317,0,0,0,3987,0,36352,0
27933,-160,-8244,696,-47,37,15,-11133,-5,1,-1,0,37567,309,25,79,0,0,0,0,0,0,0,0,-32317,0,0,0,3987,0,36372,0
27943,-132,-8276,680,-41,39,13,-11132,-2,0,0,0,37565,310,25,79,0,0,0,0,0,0,0,0,-32317,0,0,0,3987,0,36392,0
27953,-162,-8274,702,-51,40,15,-11132,3,1,1,0,37565,306,25,79,0,0,0,0,0,0,0,0,-32317,0,0,0,3987,0,36412,0
27963,-162,-8258,700,-51,42,15,-11133,-1,-2,1,0,37565,302,25,79,0,0,0,0,0,0,0,0,-32317,0,0,0,3987,0,36432,0
27973,-142,-8280,690,-53,35,17,-11131,6,0,0,0,37570,308,25,79,0,0,0,0,0,0,0,0,-32317,0,0,0,3986,0,36452,0
27983,-144,-8278,676,-55,43,15,-11132,2,3,-1,0,37569,309,25,79,0,0,0,0,0,0,0,0,-32317,0,0,0,3987,0,36472,0
27993,-144,-8258,666,-51,39,17,-11133,-1,-5,0,0,37568,306,25,79,0,0,0,0,0,0,0,0,-32317,0,0,0,3987,0,36492,0
28003,-134,-8248,694,-60,39,17,-11133,0,-6,0,0,37563,304,25,79,0,0,0,0,0,0,0,0,-32317,0,0,0,3986,0,36512,0
28013,-152,-8250,670,-52,39,20,-11132,2,3,0,0,37564,304,25,79,0,0,0,0,0,0,0,0,-32317,0,0,0,3986,0,36532,0
28023,-150,-8272,708,-56,44,16,-11132,0,0,0,0,37564,302,25,79,0,0,0,0,0,0,0,0,-32316,0,0,0,3987,0,36552,0
28033,-150,-8252,682,-53,42,17,-11133,0,2,-2,0,37566,305,25,79,0,0,0,0,0,0,0,0,-32316,0,0,0,3987,0,36572,0
28043,-168,-8272,666,-57,42,13,-11132,0,1,0,0,37568,310,25,79,0,0,0,0,0,0,0,0,-32317,0,0,0,3987,0,36592,0
28053,-172,-8252,660,-50,39,14,-11131,6,2,0,0,37570,314,25,79,0,0,0,0,0,0,0,0,-32317,0,0,0,3986,0,36612,0
28063,-148,-8244,646,-51,41,12,-11132,-2,4,0,0,37567,316,25,79,0,0,0,0,0,0,0,0,-32317,0,0,0,3987,0,36632,0
28073,-186,-8284,694,-49,42,14,-11133,-3,2,0,0,37571,310,25,79,0,0,0,0,0,0,0,0,-32317,0,0,0,3987,0,36652,0
28083,-180,-8278,678,-45,39,8,-11132,0,0,0,0,37569,315,25,79,0,0,0,0,0,0,0,0,-32317,0,0,0,3987,0,36672,0
28093,-178,-8246,680,-47,39,6,-11133,-2,-3,1,0,37566,315,25,79,0,0,0,0,0,0,0,0,-32317,0,0,0,3987,0,36692,0
28103,-142,-8288,702,-43,42,8,-11132,3,1,0,0,37560,315,25,79,0,0,0,0,0,0,0,0,-32317,0,0,0,3987,0,36712,0
28113,-146,-8264,678,-47,37,7,-11133,1,-3,1,0,37558,308,25,79,0,0,0,0,0,0,0,0,-32317,0,0,0,3987,0,36732,0
28123,-130,-8258,684,-47,41,7,-11132,-8,3,1,0,37561,300,25,79,0,0,0,0,0,0,0,0,-32317,0,0,0,3987,0,36752,0
28133,-156,-8254,682,-45,41,10,-11133,-14,-7,0,0,37560,299,25,79,0,0,0,0,0,0,0,0,-32317,0,0,0,3987,0,36772,0
28143,-144,-8262,694,-46,36,10,-11132,3,2,0,0,37558,301,25,79,0,0,0,0,0,0,0,0,-32317,0,0,0,3988,0,36792,0
28153,-122,-8260,676,-51,42,10,-11133,-1,3,0,0,37557,308,25,79,0,0,0,0,0,0,0,0,-32317,0,0,0,3987,0,36812,0
28163,-118,-8262,674,-47,36,12,-11133,-2,0,0,0,37558,310,25,79,0,0,0,0,0,0,0,0,-32317,0,0,0,3987,0,36832,0
28173,-142,-8258,688,-42,38,16,-11134,-8,2,0,0,37563,316,25,79,0,0,0,0,0,0,0,0,-32317,0,0,0,3988,0,36852,0
28183,-144,-8290,698,-46,40,13,-11133,-6,-2,0,0,37565,317,25,79,0,0,0,0,0,0,0,0,-32317,0,0,0,3987,0,36872,0
28193,-158,-8272,688,-46,41,12,-11135,-3,-1,0,0,37564,318,25,79,0,0,0,0,0,0,0,0,-32317,0,0,0,3986,0,36892,0
28203,-126,-8264,712,-54,37,14,-11133,-5,-2,0,0,37565,316,25,79,0,0,0,0,0,0,0,0,-32317,0,0,0,3987,0,36912,0
28213,-128,-8278,690,-52,44,16,-11133,3,-1,-1,0,37558,302,25,79,0,0,0,0,0,0,0,0,-32317,0,0,0,3987,0,36932,0
28223,-122,-8288,662,-54,39,17,-11132,6,-1,0,0,37558,304,25,79,0,0,0,0,0,0,0,0,-32317,0,0,0,3987,0,36952,0
28233,-132,-8272,676,-53,45,17,-11132,-1,1,0,0,37557,309,25,79,0,0,0,0,0,0,0,0,-32317,0,0,0,3987,0,36972,0
28243,-140,-8278,684,-56,37,19,-11132,5,-3,0,0,37558,312,25,79,0,0,0,0,0,0,0,0,-32317,0,0,0,3987,0,36992,0
28253,-136,-8296,668,-47,44,17,-11132,0,-1,1,0,37557,307,25,79,0,0,0,0,0,0,0,0,-32317,0,0,0,3987,0,37012,0
28263,-164,-8288,690,-49,43,17,-11132,10,1,0,0,37556,306,25,79,0,0,0,0,0,0,0,0,-32317,0,0,0,3987,0,37032,0
28273,-154,-8260,692,-50,40,21,-11133,0,-2,0,0,37556,307,25,79,0,0,0,0,0,0,0,0,-32317,0,0,0,3988,0,37052,0
28283,-162,-8268,692,-49,38,15,-11133,-2,3,-1,0,37558,306,25,79,0,0,0,0,0,0,0,0,-32317,0,0,0,3987,0,37072,0
28293,-148,-8296,676,-47,42,15,-11132,1,-2,2,0,37556,302,25,79,0,0,0,0,0,0,0,0,-32317,0,0,0,3987,0,37092,0
28303,-136,-8280,704,-47,41,14,-11133,-2,4,0,0,37557,311,25,79,0,0,0,0,0,0,0,0,-32317,0,0,0,3987,0,37113,0
28313,-156,-8268,698,-46,40,13,-11133,-3,-3,0,0,37554,311,25,79,0,0,0,0,0,0,0,0,-32317,0,0,0,3987,0,37133,0
28323,-154,-8282,678,-49,38,10,-11134,-15,-1,0,0,37553,310,25,79,0,0,0,0,0,0,0,0,-32317,0,0,0,3987,0,37153,0
28333,-124,-8250,698,-49,46,16,-11132,-3,-5,0,0,37556,308,25,79,0,0,0,0,0,0,0,0,-32317,0,0,0,3987,0,37173,0
28343,-150,-8270,676,-44,44,12,-11132,7,4,0,0,37556,304,25,79,0,0,0,0,0,0,0,0,-32317,0,0,0,3986,0,37193,0
28353,-144,-8276,688,-46,39,13,-11132,3,0,0,0,37552,299,25,79,0,0,0,0,0,0,0,0,-32317,0,0,0,3987,0,37213,0
28363,-164,-8266,730,-47,42,13,-11133,0,1,0,0,37553,300,25,79,0,0,0,0,0,0,0,0,-32317,0,0,0,3987,0,37233,0
28373,-128,-8264,696,-46,41,14,-11133,-5,-3,0,0,37555,308,25,79,0,0,0,0,0,0,0,0,-32317,0,0,0,3987,0,37253,0
28383,-142,-8282,696,-51,41,12,-11132,1,-3,0,0,37562,314,25,79,0,0,0,0,0,0,0,0,-32317,0,0,0,3986,0,37273,0
28393,-122,-8272,696,-49,44,15,-11134,-7,-3,0,0,37566,317,25,79,0,0,0,0,0,0,0,0,-32317,0,0,0,3987,0,37293,0
28403,-138,-8256,674,-51,44,14,-11133,1,2,0,0,37563,312,25,79,0,0,0,0,0,0,0,0,-32317,0,0,0,3987,0,37313,0
28413,-126,-8284,694,-53,43,11,-11134,-4,3,0,0,37562,308,25,79,0,0,0,0,0,0,0,0,-32317,0,0,0,3987,0,37333,0
28423,-112,-8252,696,-55,39,15,-11133,-3,5,1,0,37558,308,25,79,0,0,0,0,0,0,0,0,-32317,0,0,0,3987,0,37353,0
28433,-110,-8266,672,-47,42,20,-11131,5,2,0,0,37562,301,25,79,0,0,0,0,0,0,0,0,-32317,0,0,0,3987,0,37373,0
28443,-124,-8282,700,-54,40,19,-11133,1,-2,0,0,37559,307,25,79,0,0,0,0,0,0,0,0,-32317,0,0,0,3986,0,37393,0
28453,-152,-8264,708,-56,42,22,-11133,-4,0,0,0,37558,312,25,79,0,0,0,0,0,0,0,0,-32317,0,0,0,3987,0,37413,0
28463,-154,-8268,710,-55,45,21,-11133,-3,-4,-1,0,37557,314,25,79,0,0,0,0,0,0,0,0,-32317,0,0,0,3987,0,37433,0
28473,-184,-8298,700,-55,47,22,-11132,-3,-3,0,0,37560,309,25,79,0,0,0,0,0,0,0,0,-32317,0,0,0,3988,0,37453,0
28483,-156,-8288,678,-59,46,16,-11132,11,1,0,0,37563,308,25,79,0,0,0,0,0,0,0,0,-32317,0,0,0,3987,0,37473,0
28493,-148,-8240,668,-59,46,17,-11133,-1,-1,-1,0,37570,310,26,79,0,0,0,0,0,0,0,0,-32317,0,0,0,3987,0,37493,0
28503,-136,-8298,672,-61,46,13,-11132,0,1,0,0,37569,310,25,79,0,0,0,0,0,0,0,0,-32317,0,0,0,3987,0,37513,0
28513,-144,-8290,670,-51,39,20,-11133,-5,2,-1,0,37568,304,25,79,0,0,0,0,0,0,0,0,-32317,0,0,0,3987,0,37533,0
28523,-142,-8248,660,-51,42,22,-11134,-1,2,0,0,37574,315,25,79,0,0,0,0,0,0,0,0,-32317,0,0,0,3987,0,37553,0
28533,-138,-8278,672,-46,41,16,-11133,-3,0,1,0,37583,322,25,79,0,0,0,0,0,0,0,0,-32317,0,0,0,3987,0,37573,0
28543,-166,-8258,676,-50,40,23,-11131,0,5,0,0,37590,318,25,79,0,0,0,0,0,0,0,0,-32317,0,0,0,3988,0,37593,0
28553,-164,-8256,704,-46,47,13,-11132,-3,5,0,0,37582,304,25,79,0,0,0,0,0,0,0,0,-32316,0,0,0,3987,0,37613,0
28563,-150,-8310,692,-55,44,10,-11131,0,-4,0,0,37576,299,25,79,0,0,0,0,0,0,0,0,-32317,0,0,0,3987,0,37633,0
28573,-126,-8270,712,-55,42,13,-11133,4,2,1,0,37568,296,25,79,0,0,0,0,0,0,0,0,-32317,0,0,0,3987,0,37653,0
28583,-126,-8264,694,-54,40,13,-11134,-8,4,0,0,37565,302,25,79,0,0,0,0,0,0,0,0,-32317,0,0,0,3987,0,37673,0
28593,-156,-8296,648,-56,39,17,-11132,5,3,0,0,37570,301,25,79,0,0,0,0,0,0,0,0,-32316,0,0,0,3987,0,37693,0
28603,-156,-8268,658,-56,45,13,-11132,0,3,0,0,37574,306,25,79,0,0,0,0,0,0,0,0,-32317,0,0,0,3988,0,37713,0
28613,-166,-8278,682,-49,40,14,-11134,1,5,0,0,37578,300,25,79,0,0,0,0,0,0,0,0,-32317,0,0,0,3987,0,37733,0
28623,-158,-8268,682,-50,39,20,-11131,-3,-3,0,0,37575,298,25,79,0,0,0,0,0,0,0,0,-32317,0,0,0,3987,0,37753,0
28633,-184,-8282,676,-51,43,12,-11133,3,2,0,0,37568,294,25,79,0,0,0,0,0,0,0,0,-32317,0,0,0,3987,0,37773,0
28643,-184,-8260,688,-47,42,12,-11133,-3,-4,0,0,37567,296,25,79,0,0,0,0,0,0,0,0,-32316,0,0,0,3986,0,37793,0
28653,-134,-8300,668,-50,41,13,-11133,-1,-2,0,0,37568,295,25,79,0,0,0,0,0,0,0,0,-32317,0,0,0,3986,0,37813,0
28663,-134,-8268,692,-54,42,14,-11131,8,-2,0,0,37568,300,25,79,0,0,0,0,0,0,0,0,-32317,0,0,0,3987,0,37833,0
28673,-120,-8276,680,-55,41,10,-11133,-1,3,0,0,37573,310,25,79,0,0,0,0,0,0,0,0,-32317,0,0,0,3986,0,37853,0
28683,-130,-8266,682,-47,42,19,-11133,-11,-12,0,0,37576,314,25,79,0,0,0,0,0,0,0,0,-32317,0,0,0,3986,0,37873,0
28693,-152,-8256,710,-54,40,16,-11132,-1,4,0,0,37578,313,25,79,0,0,0,0,0,0,0,0,-32317,0,0,0,3987,0,37893,0
28703,-126,-8264,680,-49,41,17,-11133,-9,-4,-1,0,37578,302,25,79,0,0,0,0,0,0,0,0,-32316,0,0,0,3987,0,37913,0
28713,-148,-8264,676,-50,40,16,-11132,5,2,0,0,37576,297,25,79,0,0,0,0,0,0,0,0,-32316,0,0,0,3986,0,37933,0
28723,-162,-8286,670,-45,36,13,-11132,3,-1,0,0,37574,302,25,79,0,0,0,0,0,0,0,0,-32317,0,0,0,3987,0,37953,0
28733,-184,-8246,676,-48,38,11,-11133,-12,3,-2,0,37569,305,25,79,0,0,0,0,0,0,0,0,-32317,0,0,0,3987,0,37973,0
28743,-152,-8282,674,-48,41,12,-11133,6,7,0,0,37568,314,25,79,0,0,0,0,0,0,0,0,-32317,0,0,0,3987,0,37994,0
28753,-136,-8268,672,-50,43,10,-11132,2,0,1,0,37565,315,25,79,0,0,0,0,0,0,0,0,-32317,0,0,0,3987,0,38013,0
28763,-128,-8278,676,-49,41,11,-11133,0,2,0,0,37565,309,25,79,0,0,0,0,0,0,0,0,-32317,0,0,0,3987,0,38033,0
28773,-158,-8276,692,-48,39,12,-11132,2,-2,0,0,37566,296,25,79,0,0,0,0,0,0,0,0,-32317,0,0,0,3986,0,38053,0
28783,-152,-8282,690,-57,36,12,-11132,-6,5,0,0,37568,294,25,79,0,0,0,0,0,0,0,0,-32317,0,0,0,3986,0,38073,0
28793,-116,-8250,688,-46,45,14,-11132,-4,-1,0,0,37569,299,25,79,0,0,0,0,0,0,0,0,-32317,0,0,0,3986,0,38093,0
28803,-108,-8272,690,-52,42,18,-11133,-4,2,0,0,37571,304,25,79,0,0,0,0,0,0,0,0,-32317,0,0,0,3986,0,38113,0
28813,-130,-8264,690,-51,45,17,-11132,0,2,0,0,37569,307,25,79,0,0,0,0,0,0,0,0,-32317,0,0,0,3987,0,38134,0
28823,-120,-8266,682,-47,44,19,-11133,0,-2,-1,0,37572,312,25,79,0,0,0,0,0,0,0,0,-32317,0,0,0,3987,0,38153,0
28833,-134,-8254,672,-50,45,14,-11133,4,5,1,0,37570,308,26,79,0,0,0,0,0,0,0,0,-32317,0,0,0,3987,0,38173,0
28843,-126,-8274,688,-53,44,15,-11132,1,3,0,0,37571,307,25,79,0,0,0,0,0,0,0,0,-32317,0,0,0,3986,0,38194,0
28853,-134,-8288,698,-48,36,19,-11132,1,4,0,0,37568,302,25,79,0,0,0,0,0,0,0,0,-32317,0,0,0,3987,0,38213,0
28863,-150,-8266,686,-49,43,14,-11133,-3,1,0,0,37566,304,25,79,0,0,0,0,0,0,0,0,-32317,0,0,0,3987,0,38233,0
28873,-176,-8274,706,-54,43,20,-11133,0,0,-1,0,37566,307,25,79,0,0,0,0,0,0,0,0,-32317,0,0,0,3986,0,38253,0
28883,-168,-8266,676,-55,39,15,-11133,-1,-4,0,0,37567,308,25,79,0,0,0,0,0,0,0,0,-32317,0,0,0,3987,0,38273,0
28893,-158,-8274,686,-52,42,14,-11133,6,0,0,0,37568,312,25,79,0,0,0,0,0,0,0,0,-32317,0,0,0,3987,0,38294,0
28903,-144,-8282,678,-53,42,17,-11132,3,-5,0,0,37570,317,25,79,0,0,0,0,0,0,0,0,-32317,0,0,0,3986,0,38314,0
28913,-142,-8262,684,-55,41,11,-11132,-6,0,-1,0,37570,314,25,79,0,0,0,0,0,0,0,0,-32317,0,0,0,3986,0,38334,0
28923,-152,-8270,696,-53,41,13,-11132,0,-3,0,0,37572,312,25,79,0,0,0,0,0,0,0,0,-32317,0,0,0,3987,0,38354,0
28933,-132,-8280,690,-45,41,14,-11134,2,-2,0,0,37568,309,25,79,0,0,0,0,0,0,0,0,-32317,0,0,0,3986,0,38374,0
28943,-148,-8284,664,-53,43,16,-11135,-7,-5,0,0,37567,308,25,79,0,0,0,0,0,0,0,0,-32317,0,0,0,3986,0,38394,0
28953,-162,-8242,684,-52,36,12,-11133,1,-2,0,0,37564,302,25,79,0,0,0,0,0,0,0,0,-32317,0,0,0,3987,0,38414,0
28963,-160,-8268,688,-49,41,15,-11132,1,2,0,0,37565,296,25,79,0,0,0,0,0,0,0,0,-32317,0,0,0,3986,0,38434,0
28973,-142,-8280,692,-55,39,10,-11134,-9,-6,-1,0,37567,305,25,79,0,0,0,0,0,0,0,0,-32317,0,0,0,3987,0,38454,0
28983,-142,-8282,686,-51,39,12,-11133,-4,1,1,0,37568,310,25,79,0,0,0,0,0,0,0,0,-32317,0,0,0,3986,0,38474,0
28993,-110,-8264,684,-49,38,17,-11132,11,0,0,0,37562,307,25,79,0,0,0,0,0,0,0,0,-32317,0,0,0,3986,0,38494,0
29003,-124,-8292,684,-53,35,12,-11132,3,6,-1,0,37565,297,26,79,0,0,0,0,0,0,0,0,-32317,0,0,0,3987,0,38514,0
29013,-142,-8274,704,-51,39,16,-11133,0,-1,0,0,37567,299,25,79,0,0,0,0,0,0,0,0,-32317,0,0,0,3986,0,38534,0
29023,-154,-8252,692,-52,39,17,-11132,5,1,0,0,37569,301,25,79,0,0,0,0,0,0,0,0,-32317,0,0,0,3986,0,38554,0
29033,-150,-8264,698,-53,43,19,-11134,-2,-3,1,0,37563,308,25,79,0,0,0,0,0,0,0,0,-32317,0,0,0,3986,0,38574,0
29043,-140,-8244,706,-56,43,18,-11133,1,-1,1,0,37560,299,25,79,0,0,0,0,0,0,0,0,-32317,0,0,0,3986,0,38594,0
29053,-134,-8298,676,-57,41,18,-11133,-7,0,0,0,37559,301,25,79,0,0,0,0,0,0,0,0,-32317,0,0,0,3987,0,38614,0
29063,-184,-8266,672,-60,42,16,-11134,-1,-4,0,0,37561,300,25,79,0,0,0,0,0,0,0,0,-32317,0,0,0,3986,0,38634,0
29073,-176,-8262,670,-49,42,17,-11133,2,5,0,0,37560,301,25,79,0,0,0,0,0,0,0,0,-32317,0,0,0,3987,0,38654,0
29083,-154,-8268,680,-49,39,16,-11133,-5,-1,0,0,37559,301,25,79,0,0,0,0,0,0,0,0,-32317,0,0,0,3986,0,38674,0
29093,-152,-8276,674,-52,41,15,-11133,2,1,0,0,37559,295,25,79,0,0,0,0,0,0,0,0,-32317,0,0,0,3987,0,38694,0
29103,-158,-8262,704,-51,42,15,-11132,0,5,0,0,37558,291,25,79,0,0,0,0,0,0,0,0,-32317,0,0,0,3987,0,38714,0
29113,-174,-8286,690,-49,41,10,-11132,5,3,0,0,37561,299,25,79,0,0,0,0,0,0,0,0,-32317,0,0,0,3987,0,38734,0
29123,-170,-8264,672,-50,38,15,-11133,-1,2,0,0,37562,308,25,79,0,0,0,0,0,0,0,0,-32317,0,0,0,3986,0,38754,0
29133,-150,-8260,648,-47,43,11,-11133,-12,-4,2,0,37562,306,25,79,0,0,0,0,0,0,0,0,-32317,0,0,0,3987,0,38774,0
29143,-148,-8284,664,-48,39,13,-11134,-3,-2,1,0,37559,301,25,79,0,0,0,0,0,0,0,0,-32317,0,0,0,3986,0,38794,0
29153,-140,-8256,682,-49,39,12,-11134,-1,0,0,0,37559,307,25,79,0,0,0,0,0,0,0,0,-32317,0,0,0,3987,0,38814,0
29163,-144,-8294,696,-46,41,11,-11133,0,-3,0,0,37559,310,25,79,0,0,0,0,0,0,0,0,-32316,0,0,0,3985,0,38834,0
29173,-150,-8290,680,-48,38,12,-11132,1,2,-1,0,37559,311,25,79,0,0,0,0,0,0,0,0,-32317,0,0,0,3986,0,38854,0
29183,-142,-8268,708,-51,43,14,-11132,6,1,0,0,37559,304,25,79,0,0,0,0,0,0,0,0,-32317,0,0,0,3986,0,38874,0
29193,-148,-8260,694,-47,39,16,-11134,-3,-2,2,0,37558,307,25,79,0,0,0,0,0,0,0,0,-32317,0,0,0,3987,0,38894,0
29203,-134,-8260,682,-53,37,17,-11135,-4,-3,0,0,37559,308,25,79,0,0,0,0,0,0,0,0,-32317,0,0,0,3986,0,38914,0
29213,-140,-8276,684,-56,40,9,-11133,-3,-5,-1,0,37559,299,25,79,0,0,0,0,0,0,0,0,-32317,0,0,0,3987,0,38934,0
29223,-152,-8286,682,-50,43,16,-11132,1,0,0,0,37564,298,25,79,0,0,0,0,0,0,0,0,-32317,0,0,0,3987,0,38954,0
29233,-148,-8280,684,-56,44,15,-11133,0,1,0,0,37563,302,25,79,0,0,0,0,0,0,0,0,-32317,0,0,0,3986,0,38974,0
29243,-128,-8260,678,-57,39,18,-11131,4,-2,0,0,37562,302,25,79,0,0,0,0,0,0,0,0,-32317,0,0,0,3987,0,38994,0
29253,-132,-8250,680,-55,37,13,-11132,1,-6,0,0,37555,302,25,79,0,0,0,0,0,0,0,0,-32317,0,0,0,3986,0,39014,0
29263,-152,-8282,662,-50,43,16,-11133,-2,-3,0,0,37557,298,25,79,0,0,0,0,0,0,0,0,-32317,0,0,0,3986,0,39034,0
29273,-140,-8266,678,-50,44,13,-11133,-3,3,-1,0,37559,297,25,79,0,0,0,0,0,0,0,0,-32317,0,0,0,3987,0,39054,0
29283,-144,-8260,676,-49,40,16,-11132,7,0,0,0,37559,299,25,79,0,0,0,0,0,0,0,0,-32317,0,0,0,3986,0,39074,0
29293,-138,-8274,694,-44,41,18,-11133,3,-1,1,0,37556,294,25,79,0,0,0,0,0,0,0,0,-32316,0,0,0,3986,0,39094,0
29303,-122,-8280,708,-51,40,16,-11133,-1,-5,0,0,37553,299,25,79,0,0,0,0,0,0,0,0,-32317,0,0,0,3986,0,39114,0
29313,-166,-8264,698,-51,45,18,-11132,1,0,0,0,37555,304,25,79,0,0,0,0,0,0,0,0,-32316,0,0,0,3986,0,39134,0
29323,-170,-8262,694,-57,43,20,-11133,0,-1,0,0,37558,308,25,79,0,0,0,0,0,0,0,0,-32317,0,0,0,3986,0,39154,0
29333,-134,-8278,694,-52,41,18,-11134,-5,-1,0,0,37558,310,25,79,0,0,0,0,0,0,0,0,-32317,0,0,0,3986,0,39174,0
29343,-176,-8270,678,-53,41,20,-11133,0,5,2,0,37558,303,25,79,0,0,0,0,0,0,0,0,-32317,0,0,0,3986,0,39194,0
29353,-170,-8278,634,-49,41,13,-11134,-6,-5,1,0,37559,301,25,79,0,0,0,0,0,0,0,0,-32317,0,0,0,3986,0,39214,0
29363,-132,-8298,628,-43,40,15,-11134,-4,5,-1,0,37562,301,25,79,0,0,0,0,0,0,0,0,-32317,0,0,0,3987,0,39234,0
29373,-170,-8268,666,-43,40,9,-11133,-5,-4,1,0,37562,302,25,79,0,0,0,0,0,0,0,0,-32317,0,0,0,3986,0,39254,0
29383,-170,-8244,668,-41,43,8,-11134,-2,1,1,0,37562,303,25,79,0,0,0,0,0,0,0,0,-32317,0,0,0,3986,0,39274,0
29393,-146,-8264,706,-47,38,9,-11133,-1,-4,0,0,37563,300,25,79,0,0,0,0,0,0,0,0,-32317,0,0,0,3986,0,39294,0
29403,-150,-8272,686,-47,43,7,-11132,1,1,1,0,37562,300,25,79,0,0,0,0,0,0,0,0,-32317,0,0,0,3986,0,39314,0
29413,-146,-8290,712,-42,41,12,-11134,-8,2,1,0,37559,307,25,79,0,0,0,0,0,0,0,0,-32317,0,0,0,3986,0,39334,0
29423,-122,-8250,726,-46,39,15,-11133,10,7,0,0,37560,310,25,79,0,0,0,0,0,0,0,0,-32317,0,0,0,3986,0,39354,0
29433,-80,-8268,688,-43,39,18,-11135,-2,-4,0,0,37565,305,25,79,0,0,0,0,0,0,0,0,-32317,0,0,0,3986,0,39374,0
29443,-116,-8234,664,-46,43,17,-11134,-5,2,0,0,37567,300,25,79,0,0,0,0,0,0,0,0,-32317,0,0,0,3987,0,39394,0
29453,-148,-8260,680,-44,40,18,-11133,1,2,0,0,37565,301,25,79,0,0,0,0,0,0,0,0,-32316,0,0,0,3987,0,39414,0
29463,-164,-8292,686,-48,42,19,-11132,6,-1,0,0,37556,302,25,79,0,0,0,0,0,0,0,0,-32317,0,0,0,3987,0,39434,0
29473,-168,-8258,678,-46,39,21,-11132,1,2,0,0,37558,304,26,79,0,0,0,0,0,0,0,0,-32317,0,0,0,3987,0,39454,0
29483,-178,-8264,678,-48,34,18,-11132,2,3,0,0,37561,303,25,79,0,0,0,0,0,0,0,0,-32317,0,0,0,3986,0,39474,0
29493,-178,-8266,662,-48,38,12,-11133,0,1,2,0,37563,313,25,79,0,0,0,0,0,0,0,0,-32317,0,0,0,3986,0,39494,0
29503,-162,-8282,692,-43,41,9,-11134,4,4,0,0,37562,309,25,79,0,0,0,0,0,0,0,0,-32317,0,0,0,3986,0,39514,0
29513,-134,-8298,688,-44,43,12,-11134,-4,-1,-1,0,37560,300,25,79,0,0,0,0,0,0,0,0,-32317,0,0,0,3986,0,39534,0
29523,-126,-8260,686,-50,41,16,-11133,-7,5,0,0,37562,298,25,79,0,0,0,0,0,0,0,0,-32317,0,0,0,3986,0,39555,0
29533,-128,-8264,708,-48,39,20,-11134,1,-2,1,0,37568,305,25,79,0,0,0,0,0,0,0,0,-32317,0,0,0,3986,0,39574,0
29543,-148,-8288,698,-53,39,17,-11135,-2,3,0,0,37565,309,25,79,0,0,0,0,0,0,0,0,-32317,0,0,0,3986,0,39594,0
29553,-178,-8276,690,-49,41,15,-11134,-9,-5,0,0,37564,304,25,79,0,0,0,0,0,0,0,0,-32317,0,0,0,3986,0,39614,0
29563,-146,-8244,708,-49,42,16,-11133,-3,0,0,0,37562,296,25,79,0,0,0,0,0,0,0,0,-32317,0,0,0,3987,0,39634,0
29573,-144,-8268,684,-50,42,15,-11134,-6,-3,0,0,37569,299,25,79,0,0,0,0,0,0,0,0,-32317,0,0,0,3987,0,39654,0
29583,-144,-8276,694,-52,39,17,-11133,2,-2,1,0,37568,298,25,79,0,0,0,0,0,0,0,0,-32317,0,0,0,3986,0,39674,0
29593,-138,-8274,704,-46,43,11,-11134,-4,0,1,0,37564,302,25,79,0,0,0,0,0,0,0,0,-32317,0,0,0,3986,0,39694,0
29603,-144,-8272,704,-54,43,16,-11134,-5,5,0,0,37562,299,25,79,0,0,0,0,0,0,0,0,-32317,0,0,0,3986,0,39714,0
29613,-140,-8284,698,-57,39,15,-11134,-2,-3,0,0,37565,300,25,79,0,0,0,0,0,0,0,0,-32317,0,0,0,3987,0,39734,0
29623,-136,-8252,686,-50,46,12,-11134,7,5,-1,0,37567,303,25,79,0,0,0,0,0,0,0,0,-32317,0,0,0,3986,0,39754,0
29633,-162,-8260,678,-54,42,12,-11133,11,-1,0,0,37566,300,25,79,0,0,0,0,0,0,0,0,-32317,0,0,0,3985,0,39774,0
29643,-158,-8266,684,-49,39,11,-11133,5,2,0,0,37566,300,25,79,0,0,0,0,0,0,0,0,-32317,0,0,0,3987,0,39794,0
29653,-156,-8282,682,-53,43,12,-11133,5,-4,0,0,37569,302,25,79,0,0,0,0,0,0,0,0,-32317,0,0,0,3986,0,39814,0
29663,-168,-8252,700,-55,40,15,-11134,-5,3,0,0,37572,289,25,79,0,0,0,0,0,0,0,0,-32316,0,0,0,3986,0,39834,0
29673,-168,-8306,694,-56,44,11,-11134,4,5,0,0,37568,295,26,79,0,0,0,0,0,0,0,0,-32317,0,0,0,3986,0,39854,0
29683,-144,-8276,698,-48,37,9,-11134,0,-3,0,0,37566,299,25,79,0,0,0,0,0,0,0,0,-32317,0,0,0,3987,0,39874,0
29693,-120,-8248,680,-48,41,10,-11134,1,-11,0,0,37566,304,25,79,0,0,0,0,0,0,0,0,-32317,0,0,0,3987,0,39894,0
29703,-120,-8276,690,-49,42,15,-11132,1,-2,0,0,37568,308,25,79,0,0,0,0,0,0,0,0,-32317,0,0,0,3986,0,39914,0
29713,-134,-8264,708,-54,39,21,-11134,-9,-1,0,0,37568,307,25,79,0,0,0,0,0,0,0,0,-32317,0,0,0,3986,0,39934,0
29723,-160,-8254,682,-49,35,14,-11134,-2,2,1,0,37567,307,25,79,0,0,0,0,0,0,0,0,-32317,0,0,0,3986,0,39955,0
29733,-170,-8312,680,-51,38,19,-11133,-3,-4,0,0,37567,297,25,79,0,0,0,0,0,0,0,0,-32317,0,0,0,3987,0,39975,0
29743,-182,-8286,678,-53,39,11,-11134,-5,-2,1,0,37575,299,25,79,0,0,0,0,0,0,0,0,-32317,0,0,0,3986,0,39995,0
29753,-156,-8252,672,-42,40,12,-11134,4,2,0,0,37575,304,25,79,0,0,0,0,0,0,0,0,-32317,0,0,0,3986,0,40015,0
29763,-174,-8308,664,-43,37,12,-11133,5,2,0,0,37574,306,25,79,0,0,0,0,0,0,0,0,-32317,0,0,0,3987,0,40035,0
29773,-122,-8264,708,-45,36,10,-11135,-1,-2,2,0,37570,296,25,79,0,0,0,0,0,0,0,0,-32317,0,0,0,3986,0,40055,0
29783,-150,-8266,694,-47,39,6,-11134,0,3,0,0,37568,292,25,79,0,0,0,0,0,0,0,0,-32317,0,0,0,3986,0,40075,0
29793,-128,-8258,730,-51,41,11,-11134,10,-3,1,0,37571,297,25,79,0,0,0,0,0,0,0,0,-32317,0,0,0,3986,0,40095,0
29803,-114,-8262,698,-50,35,6,-11133,-1,1,0,0,37580,301,25,79,0,0,0,0,0,0,0,0,-32317,0,0,0,3986,0,40115,0
29813,-148,-8226,702,-50,38,12,-11134,2,-4,-1,0,37583,300,26,79,0,0,0,0,0,0,0,0,-32317,0,0,0,3985,0,40135,0
29823,-150,-8288,692,-54,40,12,-11132,5,3,0,0,37582,292,25,79,0,0,0,0,0,0,0,0,-32317,0,0,0,3986,0,40155,0
29833,-144,-8220,676,-51,46,12,-11134,2,2,1,0,37575,293,25,79,0,0,0,0,0,0,0,0,-32317,0,0,0,3986,0,40175,0
29843,-108,-8256,666,-52,43,12,-11134,-1,5,0,0,37569,298,25,79,0,0,0,0,0,0,0,0,-32317,0,0,0,3986,0,40195,0
29853,-126,-8276,682,-50,39,12,-11134,0,3,4,0,37572,304,25,79,0,0,0,0,0,0,0,0,-32317,0,0,0,3986,0,40215,0
29863,-152,-8302,672,-49,39,12,-11136,-10,-6,0,0,37571,305,25,79,0,0,0,0,0,0,0,0,-32317,0,0,0,3985,0,40235,0
29873,-148,-8270,692,-44,41,10,-11134,5,2,0,0,37571,300,25,79,0,0,0,0,0,0,0,0,-32317,0,0,0,3986,0,40255,0
29883,-134,-8286,666,-46,38,13,-11134,-1,2,1,0,37567,296,25,79,0,0,0,0,0,0,0,0,-32316,0,0,0,3986,0,40275,0
29893,-142,-8264,680,-44,40,12,-11134,-2,1,0,0,37566,299,25,79,0,0,0,0,0,0,0,0,-32317,0,0,0,3986,0,40295,0
29903,-180,-8268,658,-43,34,8,-11134,2,-1,0,0,37567,310,25,79,0,0,0,0,0,0,0,0,-32318,0,0,0,3986,0,40315,0
29913,-152,-8270,674,-44,31,8,-11134,-3,-1,0,0,37568,313,25,79,0,0,0,0,0,0,0,0,-32317,0,0,0,3986,0,40335,0
29923,-130,-8268,686,-47,32,5,-11134,0,-1,0,0,37568,314,26,79,0,0,0,0,0,0,0,0,-32316,0,0,0,3986,0,40355,0
29933,-154,-8242,680,-38,35,4,-11135,1,4,2,0,37567,307,25,79,0,0,0,0,0,0,0,0,-32317,0,0,0,3986,0,40375,0
29943,-140,-8258,698,-41,37,7,-11136,-12,-1,2,0,37565,306,25,79,0,0,0,0,0,0,0,0,-32317,0,0,0,3986,0,40395,0
29953,-132,-8254,656,-43,36,3,-11136,-12,-6,1,0,37566,308,25,79,0,0,0,0,0,0,0,0,-32317,0,0,0,3986,0,40415,0
29963,-126,-8284,694,-39,29,7,-11135,2,-4,0,0,37565,300,25,79,0,0,0,0,0,0,0,0,-32317,0,0,0,3986,0,40435,0
29973,-142,-8284,694,-38,37,5,-11135,0,2,1,0,37565,299,26,79,0,0,0,0,0,0,0,0,-32317,0,0,0,3986,0,40455,0
29983,-152,-8292,690,-43,36,6,-11135,3,-1,1,0,37563,303,25,79,0,0,0,0,0,0,0,0,-32317,0,0,0,3986,0,40475,0
29993,-116,-8254,694,-44,38,7,-11136,-5,-1,0,0,37563,302,25,79,0,0,0,0,0,0,0,0,-32317,0,0,0,3984,0,40495,0
30003,-118,-8270,692,-45,38,8,-11136,-5,3,2,0,37560,297,25,79,0,0,0,0,0,0,0,0,-32317,0,0,0,3984,0,40515,0
30013,-142,-8278,690,-37,25,10,-11134,5,6,0,0,37560,297,25,79,0,0,0,0,0,0,0,0,-32317,0,0,0,3984,0,40535,0
30023,-142,-8260,728,-46,36,11,-11135,-1,4,1,0,37562,295,25,79,0,0,0,0,0,0,0,0,-32317,0,0,0,3986,0,40555,0
30033,-158,-8240,708,-44,33,9,-11135,5,2,3,0,37564,293,25,79,0,0,0,0,0,0,0,0,-32317,0,0,0,3986,0,40575,0
30043,-156,-8262,670,-45,29,8,-11137,-3,2,1,0,37562,295,25,79,0,0,0,0,0,0,0,0,-32317,0,0,0,3984,0,40595,0
30053,-128,-8262,712,-48,37,9,-11137,-2,2,0,0,37565,300,25,79,0,0,0,0,0,0,0,0,-32316,0,0,0,3985,0,40615,0
30063,-100,-8270,702,-47,36,10,-11136,3,-1,0,0,37565,301,25,79,0,0,0,0,0,0,0,0,-32317,0,0,0,3986,0,40635,0
30073,-104,-8310,696,-43,41,9,-11136,3,-2,0,0,37567,302,25,79,0,0,0,0,0,0,0,0,-32317,0,0,0,3986,0,40655,0
30083,-118,-8276,680,-42,39,14,-11137,2,0,0,0,37566,300,25,79,0,0,0,0,0,0,0,0,-32317,0,0,0,3986,0,40675,0
30093,-164,-8258,694,-46,25,16,-11136,4,0,0,0,37563,305,25,79,0,0,0,0,0,0,0,0,-32317,0,0,0,3984,0,40695,0
30103,-126,-8270,718,-45,29,14,-11137,-2,-4,1,0,37559,302,25,79,0,0,0,0,0,0,0,0,-32317,0,0,0,3986,0,40715,0
30113,-150,-8260,720,-45,31,15,-11137,1,0,0,0,37559,312,25,79,0,0,0,0,0,0,0,0,-32317,0,0,0,3986,0,40735,0
30123,-126,-8276,714,-45,38,17,-11137,1,-2,0,0,37560,314,25,79,0,0,0,0,0,0,0,0,-32317,0,0,0,3986,0,40755,0
30133,-162,-8270,686,-45,39,14,-11136,0,-3,1,0,37557,312,25,79,0,0,0,0,0,0,0,0,-32316,0,0,0,3986,0,40775,0
30143,-122,-8270,686,-47,38,17,-11137,1,0,0,0,37554,311,25,79,0,0,0,0,0,0,0,0,-32317,0,0,0,3985,0,40796,0
30153,-154,-8270,686,-46,42,14,-11138,-3,0,1,0,37552,310,25,79,0,0,0,0,0,0,0,0,-32317,0,0,0,3985,0,40816,0
30163,-112,-8284,726,-48,39,12,-11137,-4,2,0,0,37562,305,25,79,0,0,0,0,0,0,0,0,-32317,0,0,0,3986,0,40836,0
30173,-118,-8254,710,-48,42,17,-11138,-3,-3,-2,0,37567,304,26,79,0,0,0,0,0,0,0,0,-32317,0,0,0,3986,0,40856,0
30183,-114,-8256,726,-53,38,16,-11137,-2,1,1,0,37565,304,25,79,0,0,0,0,0,0,0,0,-32317,0,0,0,3986,0,40876,0
30193,-150,-8282,708,-53,44,16,-11136,6,-2,1,0,37558,302,25,79,0,0,0,0,0,0,0,0,-32317,0,0,0,3986,0,40896,0
30203,-138,-8240,704,-55,42,16,-11137,3,3,0,0,37552,302,25,79,0,0,0,0,0,0,0,0,-32317,0,0,0,3985,0,40916,0
30213,-138,-8250,670,-53,43,18,-11137,2,-3,0,0,37554,294,25,79,0,0,0,0,0,0,0,0,-32317,0,0,0,3986,0,40936,0
30223,-132,-8288,696,-52,42,21,-11138,2,0,0,0,37557,294,25,79,0,0,0,0,0,0,0,0,-32317,0,0,0,3986,0,40956,0
30233,-120,-8248,700,-51,45,18,-11135,4,2,1,0,37556,296,25,79,0,0,0,0,0,0,0,0,-32317,0,0,0,3986,0,40976,0
30243,-114,-8276,704,-44,44,18,-11137,5,0,0,0,37554,303,25,79,0,0,0,0,0,0,0,0,-32317,0,0,0,3984,0,40997,0
30253,-180,-8244,674,-51,34,17,-11138,-7,-1,0,0,37552,306,25,79,0,0,0,0,0,0,0,0,-32317,0,0,0,3986,0,41017,0
30263,-220,-8262,660,-49,30,12,-11137,-4,-1,1,0,37558,303,26,79,0,0,0,0,0,0,0,0,-32317,0,0,0,3985,0,41037,0
30273,-152,-8260,688,-47,46,10,-11137,5,4,1,0,37556,305,25,79,0,0,0,0,0,0,0,0,-32317,0,0,0,3985,0,41057,0
30283,-100,-8302,704,-48,46,15,-11136,9,1,2,0,37557,308,25,79,0,0,0,0,0,0,0,0,-32317,0,0,0,3986,0,41077,0
30293,-92,-8304,728,-49,42,21,-11138,0,1,0,0,37554,305,25,79,0,0,0,0,0,0,0,0,-32317,0,0,0,3986,0,41097,0
30303,-142,-8284,756,-51,41,18,-11136,4,-1,0,0,37552,299,25,79,0,0,0,0,0,0,0,0,-32317,0,0,0,3984,0,41118,0
30313,-208,-8270,718,-60,49,12,-11136,0,2,0,0,37551,301,25,79,0,0,0,0,0,0,0,0,-32317,0,0,0,3986,0,41138,0
30323,-162,-8264,692,-59,45,13,-11137,-3,0,-1,0,37551,305,25,79,0,0,0,0,0,0,0,0,-32317,0,0,0,3986,0,41158,0
30333,-78,-8246,658,-57,44,11,-11138,-4,1,1,0,37550,309,25,79,0,0,0,0,0,0,0,0,-32317,0,0,0,3984,0,41178,0
30343,-126,-8248,668,-55,40,14,-11137,-3,-6,0,0,37553,310,25,79,0,0,0,0,0,0,0,0,-32317,0,0,0,3986,0,41198,0
30353,-132,-8260,700,-54,42,21,-11136,0,8,-1,0,37553,307,25,79,0,0,0,0,0,0,0,0,-32317,0,0,0,3985,0,41218,0
30363,-124,-8242,712,-54,41,16,-11137,0,0,-1,0,37553,304,25,79,0,0,0,0,0,0,0,0,-32317,0,0,0,3986,0,41238,0
30373,-128,-8266,708,-57,44,13,-11137,-5,4,0,0,37558,303,25,79,0,0,0,0,0,0,0,0,-32317,0,0,0,3986,0,41258,0
30383,-150,-8294,678,-57,40,13,-11136,3,2,1,0,37558,301,25,79,0,0,0,0,0,0,0,0,-32317,0,0,0,3986,0,41279,0
30393,-116,-8262,702,-53,44,14,-11136,-2,-2,1,0,37558,310,25,79,0,0,0,0,0,0,0,0,-32317,0,0,0,3986,0,41299,0
30403,-156,-8278,688,-56,39,17,-11137,1,-3,0,0,37553,308,25,79,0,0,0,0,0,0,0,0,-32317,0,0,0,3986,0,41319,0
30413,-154,-8270,744,-56,43,15,-11136,0,2,0,0,37554,306,25,79,0,0,0,0,0,0,0,0,-32317,0,0,0,3986,0,41339,0
30423,-154,-8260,714,-61,43,16,-11136,0,2,1,0,37555,307,26,79,0,0,0,0,0,0,0,0,-32317,0,0,0,3986,0,41359,0
30433,-116,-8276,682,-60,46,17,-11136,1,-3,1,0,37555,309,25,79,0,0,0,0,0,0,0,0,-32317,0,0,0,3986,0,41379,0
30443,-104,-8250,666,-60,42,18,-11138,-8,3,0,0,37553,310,25,79,0,0,0,0,0,0,0,0,-32317,0,0,0,3984,0,41400,0
30453,-128,-8272,686,-54,44,20,-11137,-9,-1,0,0,37554,306,25,79,0,0,0,0,0,0,0,0,-32317,0,0,0,3986,0,41420,0
30463,-156,-8276,672,-63,40,22,-11137,-5,-1,0,0,37555,308,25,79,0,0,0,0,0,0,0,0,-32317,0,0,0,3987,0,41440,0
30473,-134,-8258,694,-56,41,22,-11137,1,-3,-1,0,37562,303,25,79,0,0,0,0,0,0,0,0,-32317,0,0,0,3985,0,41459,0
30483,-130,-8266,692,-59,42,15,-11136,3,-4,1,0,37561,304,26,79,0,0,0,0,0,0,0,0,-32317,0,0,0,3986,0,41479,0
30493,-144,-8250,698,-61,43,16,-11138,-6,-4,0,0,37562,302,25,79,0,0,0,0,0,0,0,0,-32317,0,0,0,3985,0,41500,0
30503,-126,-8264,710,-60,42,17,-11135,12,-2,0,0,37563,307,25,79,0,0,0,0,0,0,0,0,-32317,0,0,0,3986,0,41520,0
30513,-104,-8266,700,-55,42,19,-11137,1,1,0,0,37559,305,25,79,0,0,0,0,0,0,0,0,-32317,0,0,0,3985,0,41540,0
30523,-94,-8276,692,-55,41,22,-11136,1,-3,0,0,37558,299,25,79,0,0,0,0,0,0,0,0,-32317,0,0,0,3986,0,41560,0
30533,-134,-8278,672,-60,39,26,-11135,6,-7,0,0,37560,303,26,79,0,0,0,0,0,0,0,0,-32317,0,0,0,3986,0,41580,0
30543,-148,-8278,668,-56,38,21,-11136,5,1,0,0,37559,305,25,79,0,0,0,0,0,0,0,0,-32317,0,0,0,3986,0,41600,0
30553,-178,-8236,678,-52,36,21,-11136,-5,1,0,0,37558,307,25,79,0,0,0,0,0,0,0,0,-32317,0,0,0,3986,0,41620,0
30563,-164,-8256,676,-52,39,20,-11136,-2,-3,0,0,37556,307,25,79,0,0,0,0,0,0,0,0,-32317,0,0,0,3985,0,41640,0
30573,-186,-8260,688,-47,41,11,-11135,10,-3,0,0,37560,313,25,79,0,0,0,0,0,0,0,0,-32317,0,0,0,3986,0,41660,0
30583,-150,-8256,676,-48,36,9,-11136,0,-4,0,0,37567,306,25,79,0,0,0,0,0,0,0,0,-32317,0,0,0,3986,0,41680,0
30593,-164,-8286,682,-54,37,10,-11135,-4,4,0,0,37566,310,25,79,0,0,0,0,0,0,0,0,-32317,0,0,0,3985,0,41700,0
30603,-150,-8262,688,-53,35,10,-11137,-1,1,0,0,37566,314,25,79,0,0,0,0,0,0,0,0,-32317,0,0,0,3986,0,41720,0
