state_time,accelx,accely,accelz,gyrox,gyroy,gyroz,mot_ang,mot_vel,mot_acc,mot_cur,mot_volt,batt_volt,batt_curr,temperature,status_mn,status_ex,status_re,genvar_0,genvar_1,genvar_2,genvar_3,genvar_4,genvar_5,genvar_6,genvar_7,genvar_8,genvar_9,ank_ang,ank_vel,sys_time,event flags
9460,-1120,-8100,908,-51,15,4,2616,0,1,3,0,36729,61,25,144,0,0,0,0,0,0,0,0,-32295,0,0,0,4546,0,2609,0
9470,-1138,-8130,932,-50,17,9,2616,-1,1,3,0,36731,54,25,144,0,0,0,0,0,0,0,0,-32295,0,0,0,4547,0,9460,0
9480,-1126,-8108,920,-55,15,1,2615,-1,2,1,0,36737,58,25,144,0,0,0,0,0,0,0,0,-32296,0,0,0,4547,0,9460,0
9490,-1102,-8128,924,-55,13,5,2617,0,0,1,0,36737,64,25,144,0,0,0,0,0,0,0,0,-32296,0,0,0,4547,0,9460,0
9500,-1128,-8130,900,-55,17,1,2616,-8,1,1,0,36735,73,25,144,0,0,0,0,0,0,0,0,-32295,0,0,0,4546,0,9460,0
9510,-1080,-8110,874,-55,22,-4,2616,0,2,2,0,36721,77,25,144,0,0,0,0,0,0,0,0,-32295,0,0,0,4548,0,9460,0
9520,-982,-8110,862,-54,13,8,2617,2,0,0,0,36722,74,25,144,0,0,0,0,0,0,0,0,-32295,0,0,0,4547,0,9460,0
9530,-1000,-8126,868,-47,15,16,2616,1,-3,0,0,36724,76,25,144,0,0,0,0,0,0,0,0,-32296,0,0,0,4547,0,9460,0
9540,-1096,-8134,900,-52,8,17,2616,-7,2,2,0,36725,81,25,144,0,0,0,0,0,0,0,0,-32295,0,0,0,4546,0,9460,0
9550,-1128,-8110,900,-49,11,23,2618,7,-1,2,0,36727,83,25,144,0,0,0,0,0,0,0,0,-32296,0,0,0,4547,0,9460,0
9560,-1136,-8138,908,-49,14,12,2617,-1,-1,0,0,36729,69,25,144,0,0,0,0,0,0,0,0,-32295,0,0,0,4547,0,9460,0
9570,-1158,-8090,902,-47,18,13,2617,5,-1,2,0,36733,61,25,144,0,0,0,0,0,0,0,0,-32296,0,0,0,4547,0,9460,0
9580,-1096,-8108,892,-49,12,13,2616,-1,-6,0,0,36735,58,25,144,0,0,0,0,0,0,0,0,-32296,0,0,0,4548,0,9461,0
9590,-1124,-8136,882,-51,15,3,2616,7,5,2,0,36728,68,25,144,0,0,0,0,0,0,0,0,-32295,0,0,0,4547,0,9470,0
9600,-1094,-8122,880,-52,14,7,2617,5,0,2,0,36724,71,25,144,0,0,0,0,0,0,0,0,-32296,0,0,0,4547,0,9481,0
9610,-1072,-8114,882,-49,15,9,2617,2,2,2,0,36725,71,25,144,0,0,0,0,0,0,0,0,-32295,0,0,0,4547,0,9491,0
9620,-1046,-8104,916,-50,15,10,2615,-3,0,1,0,36728,61,25,144,0,0,0,0,0,0,0,0,-32295,0,0,0,4547,0,9501,0
9630,-1080,-8124,916,-50,10,17,2616,0,0,0,0,36727,63,25,144,0,0,0,0,0,0,0,0,-32295,0,0,0,4547,0,9511,0
9640,-1122,-8094,924,-59,14,22,2617,5,0,0,0,36725,69,25,144,0,0,0,0,0,0,0,0,-32295,0,0,0,4548,0,9521,0
9650,-1114,-8120,882,-56,13,15,2616,0,-2,0,0,36725,75,25,144,0,0,0,0,0,0,0,0,-32296,0,0,0,4547,0,9531,0
9660,-1096,-8134,854,-51,18,17,2616,-1,-2,1,0,36729,82,25,144,0,0,0,0,0,0,0,0,-32295,0,0,0,4548,0,9550,0
9670,-1130,-8094,848,-50,15,13,2615,-8,2,2,0,36731,73,25,144,0,0,0,0,0,0,0,0,-32295,0,0,0,4547,0,9570,0
9680,-1084,-8128,888,-47,16,12,2616,8,2,0,0,36730,77,25,144,0,0,0,0,0,0,0,0,-32295,0,0,0,4548,0,9590,0
9690,-1130,-8128,894,-51,17,9,2617,5,-3,2,0,36730,81,25,144,0,0,0,0,0,0,0,0,-32295,0,0,0,4548,0,9607,0
9700,-1108,-8114,872,-51,13,6,2616,1,0,1,0,36729,74,25,144,0,0,0,0,0,0,0,0,-32295,0,0,0,4549,0,9617,0
9710,-1098,-8122,894,-51,16,8,2616,-1,-2,2,0,36731,67,25,144,0,0,0,0,0,0,0,0,-32295,0,0,0,4547,0,9627,0
9720,-1092,-8072,898,-47,16,10,2616,-1,0,3,0,36731,71,25,144,0,0,0,0,0,0,0,0,-32295,0,0,0,4548,0,9637,0
9730,-1064,-8136,886,-49,20,11,2616,2,1,0,0,36728,73,25,144,0,0,0,0,0,0,0,0,-32295,0,0,0,4548,0,9647,0
9740,-1086,-8128,852,-52,16,14,2616,5,0,1,0,36728,70,25,144,0,0,0,0,0,0,0,0,-32296,0,0,0,4548,0,9657,0
9750,-1086,-8114,856,-48,13,17,2616,0,1,2,0,36730,65,25,144,0,0,0,0,0,0,0,0,-32295,0,0,0,4548,0,9667,0
9760,-1130,-8118,896,-46,15,16,2616,1,-3,5,0,36733,62,25,144,0,0,0,0,0,0,0,0,-32296,0,0,0,4548,0,9677,0
9770,-1124,-8148,912,-50,12,13,2616,-1,2,5,0,36739,67,25,144,0,0,0,0,0,0,0,0,-32295,0,0,0,4549,0,9687,0
9780,-1130,-8128,890,-52,14,12,2616,-8,1,4,0,36739,64,25,144,0,0,0,0,0,0,0,0,-32296,0,0,0,4548,0,9697,0
9790,-1136,-8132,888,-56,14,12,2617,10,1,3,0,36741,74,25,144,0,0,0,0,0,0,0,0,-32295,0,0,0,4548,0,9707,0
9800,-1134,-8114,862,-49,14,8,2617,0,2,2,0,36734,74,25,144,0,0,0,0,0,0,0,0,-32296,0,0,0,4548,0,9717,0
9810,-1140,-8160,886,-52,15,4,2616,5,0,4,0,36731,71,25,144,0,0,0,0,0,0,0,0,-32295,0,0,0,4548,0,9727,0
9820,-1092,-8120,894,-51,13,4,2616,3,2,2,0,36731,70,25,144,0,0,0,0,0,0,0,0,-32295,0,0,0,4549,0,9739,0
9830,-1096,-8126,886,-56,16,4,2615,-11,0,0,0,36733,67,25,144,0,0,0,0,0,0,0,0,-32295,0,0,0,4549,0,9758,0
9840,-1110,-8108,898,-55,12,5,2616,1,-1,1,0,36734,62,25,144,0,0,0,0,0,0,0,0,-32295,0,0,0,4549,0,9768,0
9850,-1102,-8120,874,-52,16,2,2615,0,-4,0,0,36733,65,25,144,0,0,0,0,0,0,0,0,-32295,0,0,0,4549,0,9779,0
9860,-1112,-8126,874,-53,13,3,2616,0,2,0,0,36731,59,25,144,0,0,0,0,0,0,0,0,-32295,0,0,0,4548,0,9789,0
9870,-1088,-8120,898,-49,9,3,2617,0,1,5,0,36734,62,25,144,0,0,0,0,0,0,0,0,-32296,0,0,0,4548,0,9799,0
9880,-1106,-8126,876,-51,15,8,2616,0,0,0,0,36738,72,25,144,0,0,0,0,0,0,0,0,-32295,0,0,0,4549,0,9809,0
9890,-1112,-8114,888,-50,14,7,2616,-5,-1,1,0,36738,76,25,144,0,0,0,0,0,0,0,0,-32295,0,0,0,4549,0,9819,0
9900,-1110,-8124,908,-48,15,6,2616,0,1,1,0,36736,77,25,144,0,0,0,0,0,0,0,0,-32295,0,0,0,4549,0,9832,0
9910,-1120,-8110,882,-54,18,7,2617,5,-2,1,0,36734,74,25,144,0,0,0,0,0,0,0,0,-32295,0,0,0,4548,0,9842,0
9920,-1088,-8154,904,-48,14,10,2615,-2,0,4,0,36735,64,25,144,0,0,0,0,0,0,0,0,-32295,0,0,0,4548,0,9852,0
9930,-1088,-8140,882,-46,16,9,2615,-2,3,1,0,36735,61,25,144,0,0,0,0,0,0,0,0,-32295,0,0,0,4548,0,9862,0
9940,-1082,-8108,882,-47,16,10,2615,0,3,0,0,36735,65,25,144,0,0,0,0,0,0,0,0,-32295,0,0,0,4548,0,9874,0
9950,-1096,-8098,898,-55,12,18,2616,-1,-1,1,0,36736,70,25,144,0,0,0,0,0,0,0,0,-32295,0,0,0,4548,0,9884,0
9960,-1092,-8132,870,-43,16,15,2616,-1,0,3,0,36741,68,25,144,0,0,0,0,0,0,0,0,-32295,0,0,0,4549,0,9894,0
9970,-1086,-8106,876,-51,16,20,2615,0,-4,1,0,36742,64,25,144,0,0,0,0,0,0,0,0,-32295,0,0,0,4548,0,9904,0
9980,-1130,-8114,890,-53,11,12,2616,3,3,0,0,36750,70,25,144,0,0,0,0,0,0,0,0,-32295,0,0,0,4548,0,9917,0
9990,-1102,-8130,902,-56,13,17,2617,10,2,2,0,36746,76,25,144,0,0,0,0,0,0,0,0,-32295,0,0,0,4549,0,9927,0
10000,-1128,-8094,904,-52,12,10,2617,8,-4,0,0,36742,71,25,144,0,0,0,0,0,0,0,0,-32295,0,0,0,4549,0,9937,0
10010,-1102,-8094,870,-50,17,14,2616,1,0,2,0,36733,65,25,144,0,0,0,0,0,0,0,0,-32296,0,0,0,4549,0,9947,0
10020,-1108,-8150,882,-51,13,12,2616,-3,1,4,0,36736,70,25,144,0,0,0,0,0,0,0,0,-32295,0,0,0,4550,0,9960,0
10030,-1110,-8110,888,-51,14,12,2616,0,-1,2,0,36735,77,25,144,0,0,0,0,0,0,0,0,-32295,0,0,0,4549,0,9970,0
10040,-1100,-8136,900,-55,9,12,2617,9,1,2,0,36735,78,25,144,0,0,0,0,0,0,0,0,-32295,0,0,0,4549,0,9980,0
10050,-1116,-8136,890,-51,9,13,2615,-4,2,1,0,36734,66,25,144,0,0,0,0,0,0,0,0,-32295,0,0,0,4549,0,9991,0
10060,-1128,-8108,884,-50,21,6,2617,8,-4,2,0,36734,66,25,144,0,0,0,0,0,0,0,0,-32295,0,0,0,4549,0,10004,0
10070,-1112,-8126,866,-53,13,7,2616,-2,4,3,0,36733,61,25,144,0,0,0,0,0,0,0,0,-32295,0,0,0,4550,0,10014,0
10080,-1104,-8110,888,-50,11,6,2617,0,1,2,0,36736,64,25,144,0,0,0,0,0,0,0,0,-32295,0,0,0,4549,0,10024,0
10090,-1094,-8120,902,-47,18,3,2616,3,0,2,0,36737,64,25,144,0,0,0,0,0,0,0,0,-32295,0,0,0,4549,0,10037,0
10100,-1118,-8106,894,-52,10,6,2616,0,-3,0,0,36736,67,25,144,0,0,0,0,0,0,0,0,-32295,0,0,0,4550,0,10048,0
10110,-1108,-8124,886,-52,13,10,2617,2,1,1,0,36736,71,25,144,0,0,0,0,0,0,0,0,-32296,0,0,0,4550,0,10058,0
10120,-1138,-8082,884,-51,10,7,2617,2,-4,1,0,36735,63,25,144,0,0,0,0,0,0,0,0,-32295,0,0,0,4551,0,10068,0
10130,-1132,-8092,894,-54,13,8,2616,3,-2,0,0,36734,64,25,144,0,0,0,0,0,0,0,0,-32296,0,0,0,4549,0,10078,0
10140,-1134,-8108,894,-53,16,6,2616,-6,-2,2,0,36730,66,25,144,0,0,0,0,0,0,0,0,-32295,0,0,0,4549,0,10092,0
10150,-1112,-8120,894,-54,11,0,2616,-2,2,1,0,36731,59,25,144,0,0,0,0,0,0,0,0,-32296,0,0,0,4549,0,10102,0
10160,-1140,-8126,874,-52,13,2,2615,-3,2,3,0,36737,65,25,144,0,0,0,0,0,0,0,0,-32295,0,0,0,4549,0,10112,0
10170,-1112,-8130,880,-51,12,-1,2615,-3,-1,2,0,36737,64,25,144,0,0,0,0,0,0,0,0,-32295,0,0,0,4549,0,10124,0
10180,-1088,-8106,914,-53,11,-1,2615,-3,-4,1,0,36734,77,25,144,0,0,0,0,0,0,0,0,-32295,0,0,0,4549,0,10135,0
10190,-1084,-8104,894,-52,16,2,2615,0,5,1,0,36730,69,25,144,0,0,0,0,0,0,0,0,-32295,0,0,0,4549,0,10145,0
10200,-1088,-8138,902,-54,13,3,2615,-5,-3,0,0,36729,67,25,144,0,0,0,0,0,0,0,0,-32296,0,0,0,4549,0,10155,0
10210,-1092,-8100,898,-54,14,6,2616,0,3,1,0,36732,62,25,144,0,0,0,0,0,0,0,0,-32295,0,0,0,4549,0,10168,0
10220,-1092,-8142,862,-53,13,11,2617,1,-3,1,0,36729,58,25,144,0,0,0,0,0,0,0,0,-32295,0,0,0,4549,0,10178,0
10230,-1088,-8112,892,-49,14,9,2617,-2,1,1,0,36728,56,25,144,0,0,0,0,0,0,0,0,-32295,0,0,0,4549,0,10188,0
10240,-1112,-8122,892,-49,14,14,2617,0,-2,1,0,36727,67,25,144,0,0,0,0,0,0,0,0,-32295,0,0,0,4549,0,10198,0
10250,-1114,-8118,904,-52,11,10,2616,-1,0,1,0,36727,70,25,144,0,0,0,0,0,0,0,0,-32295,0,0,0,4550,0,10211,0
10260,-1094,-8114,884,-51,14,12,2617,3,0,1,0,36728,65,25,144,0,0,0,0,0,0,0,0,-32296,0,0,0,4550,0,10221,0
10270,-1106,-8128,898,-49,17,4,2616,0,-2,0,0,36727,61,25,144,0,0,0,0,0,0,0,0,-32296,0,0,0,4549,0,10231,0
10280,-1112,-8098,910,-52,12,14,2616,1,0,0,0,36726,63,25,144,0,0,0,0,0,0,0,0,-32296,0,0,0,4551,0,10241,0
10290,-1106,-8112,894,-47,19,13,2616,3,2,3,0,36732,70,25,144,0,0,0,0,0,0,0,0,-32295,0,0,0,4549,0,10254,0
10300,-1100,-8118,874,-52,13,11,2616,2,-1,2,0,36734,72,25,144,0,0,0,0,0,0,0,0,-32296,0,0,0,4550,0,10264,0
10310,-1096,-8126,888,-48,16,8,2616,5,0,4,0,36735,70,25,144,0,0,0,0,0,0,0,0,-32296,0,0,0,4550,0,10274,0
10320,-1106,-8126,882,-49,16,18,2616,-2,-3,2,0,36734,63,25,144,0,0,0,0,0,0,0,0,-32295,0,0,0,4550,0,10285,0
10330,-1102,-8128,872,-56,14,17,2616,0,1,1,0,36725,74,25,144,0,0,0,0,0,0,0,0,-32295,0,0,0,4549,0,10296,0
10340,-1124,-8122,892,-54,8,12,2617,7,-1,2,0,36727,64,25,144,0,0,0,0,0,0,0,0,-32295,0,0,0,4550,0,10306,0
10350,-1130,-8108,906,-51,16,14,2617,1,-1,1,0,36728,64,25,144,0,0,0,0,0,0,0,0,-32295,0,0,0,4549,0,10316,0
10360,-1142,-8126,892,-50,13,10,2615,-1,2,1,0,36728,60,25,144,0,0,0,0,0,0,0,0,-32295,0,0,0,4550,0,10328,0
10370,-1126,-8114,872,-50,8,7,2616,-4,-6,3,0,36726,58,25,144,0,0,0,0,0,0,0,0,-32296,0,0,0,4551,0,10338,0
10380,-1120,-8106,888,-54,11,1,2617,7,0,1,0,36723,61,25,144,0,0,0,0,0,0,0,0,-32295,0,0,0,4551,0,10348,0
10390,-1120,-8134,888,-52,14,0,2616,1,-2,1,0,36724,66,25,144,0,0,0,0,0,0,0,0,-32295,0,0,0,4549,0,10358,0
10400,-1096,-8112,890,-45,13,-1,2615,0,6,1,0,36729,59,25,144,0,0,0,0,0,0,0,0,-32296,0,0,0,4551,0,10371,0
10410,-1104,-8122,882,-48,11,4,2616,-2,-4,2,0,36730,61,25,144,0,0,0,0,0,0,0,0,-32295,0,0,0,4549,0,10381,0
10420,-1086,-8122,902,-48,13,2,2616,-1,1,2,0,36728,60,25,144,0,0,0,0,0,0,0,0,-32296,0,0,0,4550,0,10391,0
10430,-1108,-8106,882,-51,9,5,2617,5,-2,0,0,36723,66,25,144,0,0,0,0,0,0,0,0,-32295,0,0,0,4549,0,10401,0
10440,-1090,-8112,888,-47,12,7,2616,-2,-1,2,0,36722,68,25,144,0,0,0,0,0,0,0,0,-32295,0,0,0,4550,0,10413,0
10450,-1112,-8144,880,-50,12,11,2616,2,7,1,0,36721,68,25,144,0,0,0,0,0,0,0,0,-32295,0,0,0,4550,0,10423,0
10460,-1124,-8112,888,-49,19,7,2616,2,-1,2,0,36722,71,25,144,0,0,0,0,0,0,0,0,-32295,0,0,0,4549,0,10433,0
10470,-1116,-8124,886,-48,12,8,2615,-1,0,3,0,36722,72,25,144,0,0,0,0,0,0,0,0,-32296,0,0,0,4550,0,10443,0
10480,-1100,-8146,900,-51,13,10,2617,3,-2,0,0,36722,60,25,144,0,0,0,0,0,0,0,0,-32295,0,0,0,4550,0,10456,0
10490,-1098,-8108,910,-46,15,5,2616,1,2,2,0,36719,61,25,144,0,0,0,0,0,0,0,0,-32295,0,0,0,4549,0,10466,0
10500,-1130,-8128,876,-52,13,4,2617,2,-1,1,0,36719,54,25,144,0,0,0,0,0,0,0,0,-32296,0,0,0,4549,0,10476,0
10510,-1100,-8146,874,-54,11,6,2616,-5,-1,0,0,36720,59,25,144,0,0,0,0,0,0,0,0,-32295,0,0,0,4551,0,10488,0
10520,-1100,-8108,896,-47,17,2,2616,-3,-2,2,0,36721,60,25,144,0,0,0,0,0,0,0,0,-32295,0,0,0,4549,0,10498,0
10530,-1086,-8112,880,-50,12,6,2616,1,3,0,0,36722,50,25,144,0,0,0,0,0,0,0,0,-32295,0,0,0,4550,0,10508,0
10540,-1092,-8116,900,-52,19,4,2616,0,1,0,0,36723,69,25,144,0,0,0,0,0,0,0,0,-32295,0,0,0,4549,0,10518,0
10550,-1098,-8108,880,-47,18,14,2617,1,-2,2,0,36726,64,25,144,0,0,0,0,0,0,0,0,-32296,0,0,0,4551,0,10531,0
10560,-1104,-8126,890,-51,14,8,2616,2,-2,2,0,36725,61,25,144,0,0,0,0,0,0,0,0,-32295,0,0,0,4550,0,10541,0
10570,-1098,-8122,896,-50,9,10,2615,0,-1,3,0,36724,56,25,144,0,0,0,0,0,0,0,0,-32295,0,0,0,4551,0,10551,0
10580,-1132,-8122,878,-50,18,10,2616,-1,0,0,0,36727,67,25,144,0,0,0,0,0,0,0,0,-32295,0,0,0,4549,0,10561,0
10590,-1102,-8128,916,-50,16,12,2616,5,4,1,0,36727,70,25,144,0,0,0,0,0,0,0,0,-32295,0,0,0,4550,0,10574,0
10600,-1114,-8098,922,-47,14,10,2617,3,0,0,0,36725,73,25,144,0,0,0,0,0,0,0,0,-32295,0,0,0,4549,0,10584,0
10610,-1134,-8102,902,-50,12,11,2616,-2,-2,3,0,36731,61,25,144,0,0,0,0,0,0,0,0,-32295,0,0,0,4551,0,10594,0
10620,-1112,-8114,870,-48,11,8,2616,-3,2,1,0,36731,62,25,144,0,0,0,0,0,0,0,0,-32295,0,0,0,4550,0,10605,0
10630,-1094,-8112,888,-43,12,7,2615,-5,0,0,0,36733,64,25,144,0,0,0,0,0,0,0,0,-32295,0,0,0,4551,0,10618,0
10640,-1112,-8124,866,-50,16,2,2616,6,0,1,0,36729,63,25,144,0,0,0,0,0,0,0,0,-32295,0,0,0,4550,0,10628,0
10650,-1144,-8128,914,-48,11,6,2617,0,4,1,0,36722,59,25,144,0,0,0,0,0,0,0,0,-32295,0,0,0,4551,0,10638,0
10660,-1150,-8144,870,-52,14,2,2617,0,-5,1,0,36722,59,25,144,0,0,0,0,0,0,0,0,-32295,0,0,0,4550,0,10648,0
10670,-1128,-8120,902,-47,17,2,2617,0,-1,4,0,36724,62,25,144,0,0,0,0,0,0,0,0,-32295,0,0,0,4550,0,10662,0
10680,-1130,-8124,892,-54,14,1,2617,5,-3,0,0,36725,66,25,144,0,0,0,0,0,0,0,0,-32295,0,0,0,4550,0,10672,0
10690,-1114,-8154,918,-52,11,0,2616,2,2,3,0,36724,68,25,144,0,0,0,0,0,0,0,0,-32296,0,0,0,4551,0,10682,0
10700,-1154,-8132,884,-49,11,-3,2616,2,-1,2,0,36724,68,25,144,0,0,0,0,0,0,0,0,-32296,0,0,0,4550,0,10692,0
10710,-1146,-8114,898,-49,12,-4,2616,-5,-2,0,0,36726,67,25,144,0,0,0,0,0,0,0,0,-32295,0,0,0,4551,0,10705,0
10720,-1110,-8120,894,-48,9,-7,2616,-1,-7,3,0,36730,66,25,144,0,0,0,0,0,0,0,0,-32295,0,0,0,4551,0,10715,0
10730,-1116,-8108,894,-56,12,-8,2617,2,1,1,0,36731,68,25,144,0,0,0,0,0,0,0,0,-32295,0,0,0,4549,0,10725,0
10740,-1086,-8116,884,-54,11,-6,2616,-1,1,2,0,36729,64,25,144,0,0,0,0,0,0,0,0,-32295,0,0,0,4549,0,10735,0
10750,-1090,-8094,874,-56,6,-2,2616,4,2,2,0,36733,59,25,144,0,0,0,0,0,0,0,0,-32295,0,0,0,4549,0,10748,0
10760,-1100,-8110,860,-50,9,-4,2616,1,-1,1,0,36751,74,25,144,0,0,0,0,0,0,0,0,-32296,0,0,0,4549,0,10758,0
10770,-1092,-8122,886,-53,7,-2,2617,3,-2,2,0,36765,78,25,144,0,0,0,0,0,0,0,0,-32295,0,0,0,4549,0,10768,0
10780,-1052,-8118,884,-48,12,3,2616,0,0,0,0,36760,75,25,144,0,0,0,0,0,0,0,0,-32295,0,0,0,4549,0,10781,0
10790,-1082,-8124,902,-44,15,7,2616,0,-2,1,0,36745,68,25,144,0,0,0,0,0,0,0,0,-32295,0,0,0,4548,0,10793,0
10800,-1092,-8100,900,-47,12,9,2616,2,1,0,0,36734,72,25,144,0,0,0,0,0,0,0,0,-32295,0,0,0,4549,0,10803,0
10810,-1072,-8102,920,-50,12,6,2616,-4,1,0,0,36731,67,25,144,0,0,0,0,0,0,0,0,-32295,0,0,0,4548,0,10813,0
10820,-1114,-8130,888,-55,12,8,2616,0,-1,3,0,36733,62,25,144,0,0,0,0,0,0,0,0,-32295,0,0,0,4548,0,10823,0
10830,-1104,-8122,882,-52,12,8,2616,0,-1,2,0,36733,65,25,144,0,0,0,0,0,0,0,0,-32295,0,0,0,4549,0,10836,0
10840,-1094,-8126,884,-50,13,5,2616,0,0,1,0,36736,75,25,144,0,0,0,0,0,0,0,0,-32295,0,0,0,4549,0,10846,0
10850,-1080,-8136,866,-53,9,8,2616,-5,1,1,0,36736,70,25,144,0,0,0,0,0,0,0,0,-32296,0,0,0,4548,0,10856,0
10860,-1092,-8114,908,-54,13,11,2615,-1,5,2,0,36731,60,25,144,0,0,0,0,0,0,0,0,-32295,0,0,0,4549,0,10868,0
10870,-1100,-8116,870,-48,15,17,2615,-3,2,2,0,36731,54,25,144,0,0,0,0,0,0,0,0,-32296,0,0,0,4548,0,10878,0
10880,-1098,-8110,870,-52,12,16,2617,3,2,2,0,36733,58,25,144,0,0,0,0,0,0,0,0,-32295,0,0,0,4550,0,10888,0
10890,-1130,-8128,880,-49,17,20,2616,0,0,0,0,36734,55,25,144,0,0,0,0,0,0,0,0,-32296,0,0,0,4549,0,10898,0
10900,-1134,-8104,874,-46,13,12,2617,0,-2,0,0,36733,53,25,144,0,0,0,0,0,0,0,0,-32295,0,0,0,4549,0,10911,0
10910,-1112,-8130,924,-52,11,13,2616,2,-2,0,0,36732,61,25,144,0,0,0,0,0,0,0,0,-32296,0,0,0,4549,0,10921,0
10920,-1124,-8120,888,-52,12,3,2617,0,1,0,0,36733,58,25,144,0,0,0,0,0,0,0,0,-32296,0,0,0,4549,0,10931,0
10930,-1110,-8112,890,-50,9,0,2616,-2,6,2,0,36740,64,25,144,0,0,0,0,0,0,0,0,-32295,0,0,0,4549,0,10941,0
10940,-1110,-8148,882,-54,12,8,2615,-6,5,1,0,36742,64,25,144,0,0,0,0,0,0,0,0,-32295,0,0,0,4549,0,10954,0
10950,-1096,-8106,900,-58,15,7,2616,-2,-3,1,0,36745,72,25,144,0,0,0,0,0,0,0,0,-32295,0,0,0,4549,0,10964,0
10960,-1106,-8124,906,-54,8,9,2615,-2,-1,1,0,36740,70,25,144,0,0,0,0,0,0,0,0,-32296,0,0,0,4549,0,10974,0
10970,-1110,-8142,868,-48,13,6,2617,3,1,2,0,36742,73,25,144,0,0,0,0,0,0,0,0,-32295,0,0,0,4549,0,10985,0
10980,-1118,-8124,874,-54,16,4,2616,-3,0,1,0,36740,73,25,144,0,0,0,0,0,0,0,0,-32295,0,0,0,4549,0,10997,0
10990,-1112,-8108,886,-48,17,6,2617,4,6,2,0,36739,82,25,144,0,0,0,0,0,0,0,0,-32295,0,0,0,4549,0,11007,0
11000,-1094,-8144,882,-46,14,3,2617,-3,1,1,0,36734,77,25,144,0,0,0,0,0,0,0,0,-32295,0,0,0,4549,0,11017,0
11010,-1086,-8124,892,-50,17,6,2615,-3,0,1,0,36733,64,25,144,0,0,0,0,0,0,0,0,-32296,0,0,0,4549,0,11029,0
11020,-1114,-8104,896,-51,10,8,2616,1,5,2,0,36734,64,25,144,0,0,0,0,0,0,0,0,-32295,0,0,0,4549,0,11039,0
11030,-1102,-8118,900,-51,12,9,2616,3,1,2,0,36737,66,25,144,0,0,0,0,0,0,0,0,-32295,0,0,0,4549,0,11050,0
11040,-1152,-8134,900,-54,16,3,2616,6,-3,0,0,36737,67,25,144,0,0,0,0,0,0,0,0,-32295,0,0,0,4548,0,11060,0
11050,-1134,-8130,888,-53,16,5,2615,-4,-2,1,0,36737,67,25,144,0,0,0,0,0,0,0,0,-32295,0,0,0,4549,0,11074,0
11060,-1118,-8142,886,-52,13,-5,2616,0,0,0,0,36735,70,25,144,0,0,0,0,0,0,0,0,-32296,0,0,0,4548,0,11084,0
11070,-1112,-8124,884,-55,11,2,2616,-2,5,4,0,36736,59,25,144,0,0,0,0,0,0,0,0,-32295,0,0,0,4549,0,11094,0
11080,-1098,-8106,880,-53,10,0,2616,-1,2,0,0,36733,66,25,144,0,0,0,0,0,0,0,0,-32296,0,0,0,4549,0,11104,0
11090,-1070,-8112,858,-49,16,1,2615,-8,0,0,0,36731,65,25,144,0,0,0,0,0,0,0,0,-32295,0,0,0,4549,0,11117,0
11100,-1098,-8116,886,-52,14,3,2616,1,1,2,0,36731,73,25,144,0,0,0,0,0,0,0,0,-32295,0,0,0,4548,0,11127,0
11110,-1092,-8126,874,-55,14,6,2615,-1,4,1,0,36731,66,25,144,0,0,0,0,0,0,0,0,-32295,0,0,0,4548,0,11137,0
11120,-1110,-8160,870,-51,8,8,2617,4,0,4,0,36731,59,25,144,0,0,0,0,0,0,0,0,-32295,0,0,0,4549,0,11147,0
11130,-1110,-8138,866,-56,15,15,2615,1,-2,0,0,36737,63,25,144,0,0,0,0,0,0,0,0,-32295,0,0,0,4549,0,11160,0
11140,-1112,-8100,860,-51,16,10,2616,1,2,0,0,36736,67,25,144,0,0,0,0,0,0,0,0,-32295,0,0,0,4549,0,11170,0
11150,-1112,-8124,872,-47,10,10,2616,-5,2,2,0,36734,65,25,144,0,0,0,0,0,0,0,0,-32295,0,0,0,4549,0,11180,0
11160,-1102,-8106,874,-53,16,5,2616,0,2,1,0,36731,60,25,144,0,0,0,0,0,0,0,0,-32295,0,0,0,4548,0,11190,0
11170,-1090,-8128,882,-49,18,9,2616,0,-4,1,0,36734,68,25,144,0,0,0,0,0,0,0,0,-32295,0,0,0,4549,0,11204,0
11180,-1096,-8122,866,-50,17,9,2616,0,0,1,0,36734,73,25,144,0,0,0,0,0,0,0,0,-32295,0,0,0,4548,0,11215,0
11190,-1108,-8132,886,-47,13,5,2617,2,-1,1,0,36731,71,25,144,0,0,0,0,0,0,0,0,-32295,0,0,0,4548,0,11225,0
11200,-1114,-8140,886,-52,17,4,2617,5,3,2,0,36728,62,25,144,0,0,0,0,0,0,0,0,-32295,0,0,0,4548,0,11235,0
11210,-1094,-8118,914,-49,14,8,2616,0,-5,0,0,36728,72,25,144,0,0,0,0,0,0,0,0,-32295,0,0,0,4549,0,11248,0
11220,-1088,-8128,854,-48,13,8,2617,0,1,2,0,36729,69,25,144,0,0,0,0,0,0,0,0,-32295,0,0,0,4549,0,11258,0
11230,-1120,-8128,870,-48,12,12,2616,1,2,2,0,36731,58,25,144,0,0,0,0,0,0,0,0,-32295,0,0,0,4549,0,11268,0
11240,-1106,-8108,886,-50,14,5,2616,5,-1,1,0,36736,60,25,144,0,0,0,0,0,0,0,0,-32295,0,0,0,4549,0,11278,0
11250,-1084,-8160,888,-57,11,6,2616,0,4,3,0,36736,63,25,144,0,0,0,0,0,0,0,0,-32295,0,0,0,4549,0,11288,0
11260,-1102,-8132,914,-51,13,7,2618,3,-3,2,0,36735,65,25,144,0,0,0,0,0,0,0,0,-32295,0,0,0,4549,0,11298,0
11270,-1128,-8120,870,-51,14,6,2616,-3,-1,5,0,36728,63,25,144,0,0,0,0,0,0,0,0,-32295,0,0,0,4548,0,11308,0
11280,-1122,-8112,878,-53,16,4,2616,-5,-4,1,0,36726,63,25,144,0,0,0,0,0,0,0,0,-32296,0,0,0,4548,0,11321,0
11290,-1090,-8114,880,-46,10,0,2616,-1,-3,0,0,36725,60,25,144,0,0,0,0,0,0,0,0,-32295,0,0,0,4548,0,11331,0
11300,-1142,-8112,894,-51,12,-8,2616,-1,3,2,0,36723,66,25,144,0,0,0,0,0,0,0,0,-32295,0,0,0,4548,0,11341,0
11310,-1120,-8152,900,-51,17,-5,2616,0,1,0,0,36724,60,25,144,0,0,0,0,0,0,0,0,-32295,0,0,0,4548,0,11351,0
11320,-1096,-8136,906,-52,12,-9,2616,0,1,1,0,36727,59,25,144,0,0,0,0,0,0,0,0,-32295,0,0,0,4548,0,11365,0
11330,-1084,-8100,898,-52,10,0,2616,-3,-2,-2,0,36725,63,25,144,0,0,0,0,0,0,0,0,-32295,0,0,0,4548,0,11375,0
11340,-1104,-8138,884,-47,14,-1,2616,2,-2,0,0,36729,64,25,144,0,0,0,0,0,0,0,0,-32296,0,0,0,4548,0,11385,0
11350,-1062,-8098,894,-50,8,3,2617,3,0,2,0,36729,66,25,144,0,0,0,0,0,0,0,0,-32295,0,0,0,4547,0,11395,0
11360,-1094,-8146,862,-51,14,6,2618,12,-2,2,0,36733,64,25,144,0,0,0,0,0,0,0,0,-32296,0,0,0,4548,0,11409,0
11370,-1082,-8132,892,-55,11,6,2616,2,-4,4,0,36729,61,25,144,0,0,0,0,0,0,0,0,-32295,0,0,0,4548,0,11419,0
11380,-1092,-8110,866,-53,15,12,2616,-1,0,1,0,36726,65,25,144,0,0,0,0,0,0,0,0,-32296,0,0,0,4548,0,11429,0
11390,-1110,-8108,882,-48,18,7,2616,1,-5,2,0,36723,65,25,144,0,0,0,0,0,0,0,0,-32295,0,0,0,4548,0,11439,0
11400,-1090,-8132,890,-50,13,7,2617,1,-2,2,0,36723,62,25,144,0,0,0,0,0,0,0,0,-32296,0,0,0,4548,0,11452,0
11410,-1124,-8116,900,-53,11,7,2617,-1,-3,1,0,36724,64,25,144,0,0,0,0,0,0,0,0,-32295,0,0,0,4548,0,11462,0
11420,-1146,-8120,880,-50,13,7,2616,0,4,3,0,36723,60,25,144,0,0,0,0,0,0,0,0,-32295,0,0,0,4548,0,11472,0
11430,-1118,-8136,896,-49,11,7,2616,3,-1,-2,0,36722,66,25,144,0,0,0,0,0,0,0,0,-32295,0,0,0,4548,0,11483,0
11440,-1094,-8126,900,-46,13,0,2617,9,-1,0,0,36728,65,25,144,0,0,0,0,0,0,0,0,-32295,0,0,0,4548,0,11496,0
11450,-1100,-8100,890,-52,10,4,2616,-1,1,3,0,36726,58,25,144,0,0,0,0,0,0,0,0,-32295,0,0,0,4548,0,11506,0
11460,-1084,-8152,854,-53,16,7,2616,0,10,1,0,36724,59,25,144,0,0,0,0,0,0,0,0,-32295,0,0,0,4548,0,11516,0
11470,-1092,-8126,870,-50,11,8,2615,-7,-2,0,0,36718,68,25,144,0,0,0,0,0,0,0,0,-32295,0,0,0,4548,0,11527,0
11480,-1112,-8134,876,-49,14,12,2616,-3,0,1,0,36720,78,25,144,0,0,0,0,0,0,0,0,-32295,0,0,0,4548,0,11538,0
11490,-1084,-8158,900,-52,17,7,2616,-2,0,0,0,36722,76,25,144,0,0,0,0,0,0,0,0,-32295,0,0,0,4548,0,11548,0
11500,-1116,-8110,910,-47,12,10,2616,1,1,3,0,36722,74,25,144,0,0,0,0,0,0,0,0,-32295,0,0,0,4548,0,11558,0
11510,-1108,-8104,888,-49,15,7,2615,-3,-1,0,0,36722,65,25,144,0,0,0,0,0,0,0,0,-32295,0,0,0,4548,0,11571,0
11520,-1126,-8154,904,-49,10,11,2618,9,4,1,0,36721,61,25,144,0,0,0,0,0,0,0,0,-32296,0,0,0,4548,0,11581,0
11530,-1158,-8118,898,-50,8,4,2615,-4,-2,1,0,36720,52,25,144,0,0,0,0,0,0,0,0,-32295,0,0,0,4548,0,11591,0
11540,-1120,-8126,880,-52,10,-1,2617,-3,-1,0,0,36724,66,25,144,0,0,0,0,0,0,0,0,-32295,0,0,0,4548,0,11603,0
11550,-1120,-8114,890,-53,10,-1,2616,3,-6,1,0,36723,70,25,144,0,0,0,0,0,0,0,0,-32295,0,0,0,4548,0,11613,0
11560,-1102,-8108,894,-51,10,-1,2616,-1,0,0,0,36724,67,25,144,0,0,0,0,0,0,0,0,-32295,0,0,0,4546,0,11623,0
11570,-1088,-8106,882,-53,9,0,2616,-1,-5,1,0,36727,65,25,144,0,0,0,0,0,0,0,0,-32295,0,0,0,4548,0,11633,0
11580,-1068,-8150,884,-55,14,0,2616,-2,-1,1,0,36730,62,25,144,0,0,0,0,0,0,0,0,-32295,0,0,0,4548,0,11645,0
11590,-1090,-8110,894,-52,13,5,2617,6,2,1,0,36728,64,25,144,0,0,0,0,0,0,0,0,-32295,0,0,0,4547,0,11655,0
11600,-1098,-8102,884,-51,12,11,2615,-2,-4,3,0,36725,61,25,144,0,0,0,0,0,0,0,0,-32295,0,0,0,4547,0,11665,0
11610,-1092,-8138,882,-50,14,11,2616,0,4,1,0,36723,70,25,144,0,0,0,0,0,0,0,0,-32295,0,0,0,4548,0,11676,0
11620,-1092,-8118,900,-51,15,9,2616,0,1,2,0,36725,71,25,144,0,0,0,0,0,0,0,0,-32295,0,0,0,4547,0,11688,0
11630,-1086,-8110,908,-47,12,11,2615,0,2,2,0,36728,76,25,144,0,0,0,0,0,0,0,0,-32295,0,0,0,4548,0,11698,0
11640,-1102,-8146,902,-51,17,5,2617,1,-2,2,0,36727,71,25,144,0,0,0,0,0,0,0,0,-32295,0,0,0,4548,0,11708,0
11650,-1112,-8130,882,-49,16,8,2616,-2,-1,3,0,36730,70,25,144,0,0,0,0,0,0,0,0,-32295,0,0,0,4548,0,11720,0
11660,-1104,-8124,908,-53,14,3,2617,5,1,2,0,36730,69,25,144,0,0,0,0,0,0,0,0,-32295,0,0,0,4548,0,11730,0
11670,-1070,-8104,904,-50,12,4,2616,0,-2,1,0,36732,67,25,144,0,0,0,0,0,0,0,0,-32295,0,0,0,4546,0,11740,0
11680,-1084,-8112,890,-50,12,6,2617,-3,3,2,0,36729,56,25,144,0,0,0,0,0,0,0,0,-32295,0,0,0,4548,0,11750,0
11690,-1086,-8132,872,-50,16,10,2616,0,2,1,0,36728,67,25,144,0,0,0,0,0,0,0,0,-32296,0,0,0,4547,0,11763,0
11700,-1090,-8112,876,-52,12,11,2616,0,1,0,0,36727,65,25,144,0,0,0,0,0,0,0,0,-32295,0,0,0,4548,0,11773,0
11710,-1096,-8146,900,-53,13,10,2616,-1,-4,1,0,36726,66,25,144,0,0,0,0,0,0,0,0,-32295,0,0,0,4548,0,11783,0
11720,-1112,-8116,872,-51,20,8,2616,0,0,1,0,36727,64,25,144,0,0,0,0,0,0,0,0,-32295,0,0,0,4548,0,11793,0
11730,-1086,-8104,884,-43,13,8,2617,-2,5,2,0,36729,65,25,144,0,0,0,0,0,0,0,0,-32295,0,0,0,4548,0,11807,0
11740,-1116,-8142,888,-53,21,7,2616,-3,-3,0,0,36728,69,25,144,0,0,0,0,0,0,0,0,-32295,0,0,0,4547,0,11818,0
11750,-1084,-8098,896,-49,14,5,2615,-6,-1,2,0,36729,73,25,144,0,0,0,0,0,0,0,0,-32296,0,0,0,4548,0,11828,0
11760,-1096,-8092,900,-52,13,6,2616,2,2,0,0,36733,72,25,144,0,0,0,0,0,0,0,0,-32295,0,0,0,4548,0,11839,0
11770,-1064,-8140,880,-50,15,7,2616,0,1,2,0,36738,74,25,144,0,0,0,0,0,0,0,0,-32295,0,0,0,4548,0,11849,0
11780,-1100,-8094,892,-58,13,10,2615,-1,-2,2,0,36739,78,25,144,0,0,0,0,0,0,0,0,-32295,0,0,0,4548,0,11860,0
11790,-1086,-8134,890,-56,10,11,2616,-3,2,1,0,36732,73,25,144,0,0,0,0,0,0,0,0,-32295,0,0,0,4548,0,11870,0
11800,-1110,-8118,880,-50,15,5,2616,9,0,3,0,36730,68,25,144,0,0,0,0,0,0,0,0,-32295,0,0,0,4548,0,11880,0
11810,-1112,-8120,874,-49,13,6,2615,-2,3,2,0,36731,61,25,144,0,0,0,0,0,0,0,0,-32295,0,0,0,4548,0,11890,0
11820,-1112,-8124,876,-48,12,2,2617,6,2,1,0,36730,50,25,144,0,0,0,0,0,0,0,0,-32295,0,0,0,4548,0,11900,0
11830,-1104,-8092,892,-45,8,8,2615,-3,0,1,0,36729,52,25,144,0,0,0,0,0,0,0,0,-32295,0,0,0,4548,0,11910,0
11840,-1114,-8120,886,-48,11,0,2617,5,-5,1,0,36731,59,25,144,0,0,0,0,0,0,0,0,-32295,0,0,0,4548,0,11920,0
11850,-1108,-8128,902,-48,12,-3,2615,-7,2,1,0,36737,61,25,144,0,0,0,0,0,0,0,0,-32295,0,0,0,4548,0,11930,0
11860,-1110,-8138,902,-50,7,-4,2617,5,-1,1,0,36739,64,25,144,0,0,0,0,0,0,0,0,-32295,0,0,0,4547,0,11940,0
11870,-1088,-8130,896,-52,15,1,2615,-11,-1,2,0,36738,66,25,144,0,0,0,0,0,0,0,0,-32295,0,0,0,4548,0,11950,0
11880,-1112,-8126,880,-56,13,2,2616,1,4,1,0,36740,69,25,144,0,0,0,0,0,0,0,0,-32295,0,0,0,4548,0,11960,0
11890,-1088,-8124,876,-50,12,-3,2616,-3,-5,0,0,36733,67,25,144,0,0,0,0,0,0,0,0,-32295,0,0,0,4547,0,11970,0
11900,-1086,-8106,856,-55,13,6,2616,-3,1,2,0,36731,71,25,144,0,0,0,0,0,0,0,0,-32295,0,0,0,4547,0,11980,0
11910,-1054,-8120,856,-51,9,5,2616,5,-2,1,0,36732,73,25,144,0,0,0,0,0,0,0,0,-32295,0,0,0,4547,0,11990,0
11920,-1084,-8122,862,-51,12,5,2616,5,3,1,0,36733,78,25,144,0,0,0,0,0,0,0,0,-32295,0,0,0,4546,0,12000,0
11930,-1098,-8120,888,-49,15,8,2617,0,0,3,0,36734,70,25,144,0,0,0,0,0,0,0,0,-32295,0,0,0,4546,0,12010,0
11940,-1108,-8096,878,-45,14,5,2616,1,4,0,0,36732,69,25,144,0,0,0,0,0,0,0,0,-32295,0,0,0,4547,0,12020,0
11950,-1110,-8128,906,-48,14,6,2617,0,-5,0,0,36731,73,25,144,0,0,0,0,0,0,0,0,-32295,0,0,0,4547,0,12030,0
11960,-1094,-8130,924,-51,14,5,2616,-3,-1,2,0,36737,67,25,144,0,0,0,0,0,0,0,0,-32295,0,0,0,4547,0,12040,0
11970,-1114,-8098,882,-49,11,8,2616,-2,3,1,0,36740,61,25,144,0,0,0,0,0,0,0,0,-32295,0,0,0,4547,0,12050,0
11980,-1102,-8130,866,-55,6,1,2617,2,1,2,0,36742,53,25,144,0,0,0,0,0,0,0,0,-32295,0,0,0,4545,0,12060,0
11990,-1080,-8120,876,-52,12,4,2616,3,-1,1,0,36737,69,25,144,0,0,0,0,0,0,0,0,-32295,0,0,0,4547,0,12070,0
12000,-1086,-8128,864,-50,17,8,2616,-3,-5,0,0,36736,74,25,144,0,0,0,0,0,0,0,0,-32295,0,0,0,4546,0,12080,0
12010,-1054,-8114,876,-52,15,10,2617,5,6,2,0,36732,74,25,144,0,0,0,0,0,0,0,0,-32295,0,0,0,4546,0,12090,0
12020,-1066,-8134,874,-50,17,15,2616,-4,-3,2,0,36732,65,25,144,0,0,0,0,0,0,0,0,-32295,0,0,0,4547,0,12100,0
12030,-1074,-8106,890,-49,14,10,2616,-3,2,1,0,36739,71,25,144,0,0,0,0,0,0,0,0,-32295,0,0,0,4547,0,12110,0
12040,-1102,-8118,902,-50,14,13,2617,2,-1,2,0,36750,69,25,144,0,0,0,0,0,0,0,0,-32295,0,0,0,4547,0,12120,0
12050,-1100,-8144,908,-52,14,14,2617,1,-4,2,0,36747,73,25,144,0,0,0,0,0,0,0,0,-32295,0,0,0,4546,0,12130,0
12060,-1104,-8110,880,-51,8,14,2615,-7,0,2,0,36748,63,25,144,0,0,0,0,0,0,0,0,-32295,0,0,0,4547,0,12140,0
12070,-1090,-8126,888,-51,12,16,2615,-7,-4,2,0,36736,62,25,144,0,0,0,0,0,0,0,0,-32295,0,0,0,4547,0,12150,0
12080,-1104,-8092,892,-48,12,14,2615,0,-2,2,0,36738,66,25,144,0,0,0,0,0,0,0,0,-32296,0,0,0,4548,0,12160,0
12090,-1128,-8086,902,-49,14,9,2615,-6,-2,1,0,36732,67,25,144,0,0,0,0,0,0,0,0,-32295,0,0,0,4548,0,12170,0
12100,-1130,-8144,870,-45,14,2,2616,0,-1,0,0,36730,66,25,144,0,0,0,0,0,0,0,0,-32295,0,0,0,4547,0,12180,0
12110,-1126,-8144,878,-51,20,-1,2616,-3,1,2,0,36728,64,25,144,0,0,0,0,0,0,0,0,-32295,0,0,0,4546,0,12190,0
12120,-1100,-8100,884,-47,9,4,2616,3,0,3,0,36729,69,25,144,0,0,0,0,0,0,0,0,-32295,0,0,0,4548,0,12200,0
12130,-1102,-8124,906,-52,13,1,2616,-2,5,2,0,36731,67,25,144,0,0,0,0,0,0,0,0,-32295,0,0,0,4547,0,12210,0
12140,-1112,-8140,896,-49,15,2,2617,6,0,0,0,36729,64,25,144,0,0,0,0,0,0,0,0,-32295,0,0,0,4548,0,12220,0
12150,-1108,-8144,886,-49,14,1,2616,-1,-2,0,0,36726,59,25,144,0,0,0,0,0,0,0,0,-32295,0,0,0,4548,0,12230,0
12160,-1072,-8124,844,-53,10,4,2616,-2,-2,-1,0,36727,59,25,144,0,0,0,0,0,0,0,0,-32295,0,0,0,4548,0,12240,0
12170,-1098,-8128,854,-46,13,6,2617,1,0,3,0,36737,63,25,144,0,0,0,0,0,0,0,0,-32296,0,0,0,4548,0,12250,0
12180,-1092,-8132,868,-50,13,3,2617,-1,4,0,0,36741,66,25,144,0,0,0,0,0,0,0,0,-32295,0,0,0,4548,0,12260,0
12190,-1106,-8138,878,-47,11,3,2616,-3,5,1,0,36739,69,25,144,0,0,0,0,0,0,0,0,-32295,0,0,0,4548,0,12270,0
12200,-1104,-8132,908,-51,15,5,2617,0,-5,1,0,36728,70,25,144,0,0,0,0,0,0,0,0,-32295,0,0,0,4547,0,12280,0
12210,-1124,-8106,902,-49,15,0,2616,-2,1,0,0,36729,66,25,144,0,0,0,0,0,0,0,0,-32295,0,0,0,4547,0,12290,0
12220,-1092,-8092,870,-52,11,2,2616,-1,3,2,0,36730,60,25,144,0,0,0,0,0,0,0,0,-32295,0,0,0,4546,0,12300,0
12230,-1064,-8124,908,-53,15,3,2616,2,1,0,0,36729,57,25,144,0,0,0,0,0,0,0,0,-32295,0,0,0,4548,0,12310,0
12240,-1080,-8110,862,-50,14,10,2615,-4,3,0,0,36725,55,25,144,0,0,0,0,0,0,0,0,-32295,0,0,0,4546,0,12320,0
12250,-1072,-8134,894,-53,13,12,2616,-3,2,1,0,36724,69,25,144,0,0,0,0,0,0,0,0,-32295,0,0,0,4546,0,12330,0
12260,-1106,-8124,872,-52,13,12,2616,-2,-2,2,0,36727,67,25,144,0,0,0,0,0,0,0,0,-32295,0,0,0,4546,0,12340,0
12270,-1106,-8142,870,-48,14,14,2616,-2,1,0,0,36734,69,25,144,0,0,0,0,0,0,0,0,-32296,0,0,0,4546,0,12350,0
12280,-1126,-8114,864,-47,15,7,2616,2,3,0,0,36733,67,25,144,0,0,0,0,0,0,0,0,-32295,0,0,0,4547,0,12360,0
12290,-1124,-8144,886,-46,12,9,2616,-3,0,2,0,36731,72,25,144,0,0,0,0,0,0,0,0,-32295,0,0,0,4546,0,12370,0
12300,-1094,-8104,886,-49,14,4,2616,0,2,0,0,36723,69,25,144,0,0,0,0,0,0,0,0,-32295,0,0,0,4547,0,12380,0
12310,-1118,-8120,896,-51,16,6,2616,-5,0,2,0,36723,67,25,144,0,0,0,0,0,0,0,0,-32295,0,0,0,4548,0,12390,0
12320,-1068,-8146,862,-51,18,1,2616,-4,2,3,0,36724,61,25,144,0,0,0,0,0,0,0,0,-32295,0,0,0,4547,0,12400,0
12330,-1072,-8098,884,-52,15,3,2615,-3,1,0,0,36726,58,25,144,0,0,0,0,0,0,0,0,-32295,0,0,0,4547,0,12411,0
12340,-1090,-8128,876,-48,14,9,2616,6,-4,4,0,36725,54,25,144,0,0,0,0,0,0,0,0,-32295,0,0,0,4548,0,12421,0
12350,-1086,-8140,882,-48,17,7,2615,-2,-2,0,0,36722,55,25,144,0,0,0,0,0,0,0,0,-32295,0,0,0,4548,0,12431,0
12360,-1098,-8126,886,-47,15,8,2616,0,-3,2,0,36723,63,25,144,0,0,0,0,0,0,0,0,-32295,0,0,0,4546,0,12441,0
12370,-1098,-8128,888,-47,12,10,2615,-5,2,5,0,36726,56,25,144,0,0,0,0,0,0,0,0,-32295,0,0,0,4547,0,12451,0
12380,-1120,-8124,890,-50,15,12,2616,2,0,0,0,36734,66,25,144,0,0,0,0,0,0,0,0,-32295,0,0,0,4547,0,12461,0
12390,-1104,-8130,878,-49,12,5,2616,-9,-3,2,0,36734,72,25,144,0,0,0,0,0,0,0,0,-32295,0,0,0,4546,0,12471,0
12400,-1076,-8132,904,-50,11,5,2616,0,2,1,0,36732,85,25,144,0,0,0,0,0,0,0,0,-32295,0,0,0,4546,0,12481,0
12410,-1114,-8116,904,-47,14,6,2616,-2,4,3,0,36723,74,25,144,0,0,0,0,0,0,0,0,-32295,0,0,0,4548,0,12491,0
12420,-1106,-8114,896,-53,12,5,2617,10,2,2,0,36722,76,25,144,0,0,0,0,0,0,0,0,-32295,0,0,0,4548,0,12501,0
12430,-1096,-8126,900,-51,12,4,2616,2,-1,0,0,36721,71,25,144,0,0,0,0,0,0,0,0,-32295,0,0,0,4546,0,12513,0
12440,-1088,-8138,868,-48,11,8,2616,-4,0,2,0,36721,75,25,144,0,0,0,0,0,0,0,0,-32295,0,0,0,4547,0,12523,0
12450,-1084,-8138,872,-51,13,9,2616,0,-4,0,0,36720,72,25,144,0,0,0,0,0,0,0,0,-32295,0,0,0,4547,0,12533,0
12460,-1084,-8122,908,-46,15,7,2616,-4,3,2,0,36721,66,25,144,0,0,0,0,0,0,0,0,-32295,0,0,0,4546,0,12543,0
12470,-1098,-8152,910,-50,10,6,2617,-1,-1,1,0,36721,70,25,144,0,0,0,0,0,0,0,0,-32295,0,0,0,4547,0,12553,0
12480,-1106,-8120,892,-53,10,5,2616,5,1,0,0,36721,71,25,144,0,0,0,0,0,0,0,0,-32295,0,0,0,4546,0,12563,0
12490,-1102,-8140,888,-49,10,1,2614,-5,5,2,0,36719,70,25,144,0,0,0,0,0,0,0,0,-32295,0,0,0,4548,0,12573,0
12500,-1128,-8120,880,-50,11,0,2617,6,-5,1,0,36720,64,25,144,0,0,0,0,0,0,0,0,-32295,0,0,0,4546,0,12583,0
12510,-1096,-8136,882,-51,14,2,2616,-1,-6,2,0,36721,58,25,144,0,0,0,0,0,0,0,0,-32295,0,0,0,4546,0,12593,0
12520,-1104,-8116,874,-51,17,1,2617,1,1,3,0,36723,50,25,144,0,0,0,0,0,0,0,0,-32295,0,0,0,4546,0,12603,0
12530,-1098,-8130,894,-53,14,-2,2616,-2,1,0,0,36722,63,25,144,0,0,0,0,0,0,0,0,-32295,0,0,0,4547,0,12613,0
12540,-1088,-8114,916,-51,9,2,2616,0,-2,0,0,36722,61,25,144,0,0,0,0,0,0,0,0,-32295,0,0,0,4546,0,12623,0
12550,-1044,-8138,930,-51,14,3,2616,0,4,0,0,36723,72,25,144,0,0,0,0,0,0,0,0,-32295,0,0,0,4547,0,12633,0
12560,-1090,-8152,900,-55,11,11,2616,0,-1,2,0,36723,67,25,144,0,0,0,0,0,0,0,0,-32295,0,0,0,4546,0,12643,0
12570,-1058,-8122,882,-51,13,11,2616,-2,0,3,0,36721,65,25,144,0,0,0,0,0,0,0,0,-32295,0,0,0,4546,0,12653,0
12580,-1088,-8102,886,-58,17,13,2616,0,0,0,0,36726,78,25,144,0,0,0,0,0,0,0,0,-32295,0,0,0,4546,0,12663,0
12590,-1076,-8140,886,-53,17,15,2616,-3,2,2,0,36730,79,25,144,0,0,0,0,0,0,0,0,-32295,0,0,0,4546,0,12673,0
12600,-1074,-8156,844,-46,14,17,2616,1,1,1,0,36728,79,25,144,0,0,0,0,0,0,0,0,-32295,0,0,0,4546,0,12683,0
12610,-1092,-8114,870,-46,16,17,2616,-4,-4,2,0,36722,60,25,144,0,0,0,0,0,0,0,0,-32295,0,0,0,4546,0,12693,0
12620,-1096,-8136,856,-51,13,20,2617,2,2,3,0,36720,67,25,144,0,0,0,0,0,0,0,0,-32295,0,0,0,4546,0,12703,0
12630,-1140,-8098,890,-49,13,13,2616,-3,1,0,0,36722,62,25,144,0,0,0,0,0,0,0,0,-32295,0,0,0,4547,0,12713,0
12640,-1130,-8098,900,-48,15,9,2615,1,0,1,0,36724,67,25,144,0,0,0,0,0,0,0,0,-32295,0,0,0,4546,0,12723,0
12650,-1110,-8102,890,-47,15,12,2616,0,-2,1,0,36724,61,25,144,0,0,0,0,0,0,0,0,-32295,0,0,0,4547,0,12733,0
12660,-1090,-8128,890,-55,15,12,2617,0,-2,1,0,36723,69,25,144,0,0,0,0,0,0,0,0,-32295,0,0,0,4547,0,12743,0
12670,-1104,-8128,900,-51,11,15,2615,-8,2,1,0,36725,70,25,144,0,0,0,0,0,0,0,0,-32295,0,0,0,4546,0,12753,0
12680,-1106,-8098,870,-57,14,11,2616,-1,2,0,0,36727,72,25,144,0,0,0,0,0,0,0,0,-32295,0,0,0,4547,0,12763,0
12690,-1074,-8128,850,-55,15,12,2615,-3,-3,1,0,36728,70,25,144,0,0,0,0,0,0,0,0,-32295,0,0,0,4546,0,12773,0
12700,-1088,-8130,850,-50,15,12,2617,-7,0,0,0,36725,70,25,144,0,0,0,0,0,0,0,0,-32295,0,0,0,4547,0,12783,0
12710,-1106,-8112,858,-44,12,18,2617,4,0,2,0,36721,70,25,144,0,0,0,0,0,0,0,0,-32295,0,0,0,4548,0,12793,0
12720,-1146,-8142,870,-50,12,11,2616,-5,1,2,0,36725,74,25,144,0,0,0,0,0,0,0,0,-32295,0,0,0,4548,0,12803,0
12730,-1128,-8140,882,-46,17,9,2616,-1,0,0,0,36726,77,25,144,0,0,0,0,0,0,0,0,-32295,0,0,0,4547,0,12814,0
12740,-1128,-8118,906,-50,13,8,2616,-4,-1,3,0,36727,77,25,144,0,0,0,0,0,0,0,0,-32295,0,0,0,4548,0,12823,0
12750,-1114,-8144,886,-51,12,6,2615,-1,-3,1,0,36724,72,25,144,0,0,0,0,0,0,0,0,-32295,0,0,0,4548,0,12833,0
12760,-1104,-8116,894,-50,14,0,2616,3,0,0,0,36726,65,25,144,0,0,0,0,0,0,0,0,-32295,0,0,0,4546,0,12843,0
12770,-1078,-8118,870,-61,8,5,2616,-5,2,1,0,36730,58,25,144,0,0,0,0,0,0,0,0,-32295,0,0,0,4546,0,12853,0
12780,-1052,-8152,868,-50,15,8,2615,-7,-5,0,0,36730,56,25,144,0,0,0,0,0,0,0,0,-32295,0,0,0,4548,0,12864,0
12790,-1106,-8132,886,-50,15,10,2616,-1,-5,1,0,36729,75,25,144,0,0,0,0,0,0,0,0,-32295,0,0,0,4548,0,12874,0
12800,-1070,-8120,914,-47,17,14,2616,5,-1,3,0,36731,80,25,144,0,0,0,0,0,0,0,0,-32295,0,0,0,4548,0,12884,0
12810,-1104,-8130,884,-49,16,15,2617,4,2,3,0,36733,80,25,144,0,0,0,0,0,0,0,0,-32295,0,0,0,4548,0,12894,0
12820,-1104,-8122,870,-51,11,12,2615,0,-3,1,0,36733,66,25,144,0,0,0,0,0,0,0,0,-32295,0,0,0,4548,0,12904,0
12830,-1116,-8150,888,-54,12,18,2615,-2,4,0,0,36731,66,25,144,0,0,0,0,0,0,0,0,-32295,0,0,0,4548,0,12914,0
12840,-1124,-8140,888,-55,13,9,2615,-13,-2,0,0,36730,67,25,144,0,0,0,0,0,0,0,0,-32295,0,0,0,4548,0,12924,0
12850,-1144,-8122,878,-51,13,8,2616,0,1,0,0,36734,64,25,144,0,0,0,0,0,0,0,0,-32295,0,0,0,4548,0,12934,0
12860,-1112,-8084,892,-52,15,1,2617,-2,-2,4,0,36733,64,25,144,0,0,0,0,0,0,0,0,-32295,0,0,0,4548,0,12944,0
12870,-1086,-8120,872,-50,11,5,2615,-2,-1,2,0,36733,64,25,144,0,0,0,0,0,0,0,0,-32295,0,0,0,4548,0,12954,0
12880,-1136,-8114,884,-52,16,3,2617,5,2,1,0,36732,65,25,144,0,0,0,0,0,0,0,0,-32295,0,0,0,4548,0,12964,0
12890,-1102,-8106,884,-51,13,1,2615,-2,2,2,0,36737,68,25,144,0,0,0,0,0,0,0,0,-32295,0,0,0,4548,0,12974,0
12900,-1076,-8108,900,-52,16,1,2615,1,3,0,0,36737,61,25,144,0,0,0,0,0,0,0,0,-32295,0,0,0,4548,0,12984,0
12910,-1084,-8134,902,-48,15,11,2617,5,-3,2,0,36737,61,25,144,0,0,0,0,0,0,0,0,-32295,0,0,0,4547,0,12994,0
12920,-1102,-8094,890,-48,17,9,2617,0,-2,2,0,36733,68,25,144,0,0,0,0,0,0,0,0,-32295,0,0,0,4548,0,13004,0
12930,-1118,-8108,892,-52,12,7,2616,-4,-1,1,0,36733,73,25,144,0,0,0,0,0,0,0,0,-32295,0,0,0,4546,0,13014,0
12940,-1134,-8120,904,-47,12,11,2617,5,0,2,0,36734,69,25,144,0,0,0,0,0,0,0,0,-32295,0,0,0,4548,0,13024,0
12950,-1104,-8098,872,-53,9,8,2616,2,1,1,0,36734,64,25,144,0,0,0,0,0,0,0,0,-32295,0,0,0,4548,0,13034,0
12960,-1110,-8124,870,-50,8,7,2617,1,2,2,0,36735,58,25,144,0,0,0,0,0,0,0,0,-32295,0,0,0,4548,0,13044,0
12970,-1100,-8106,902,-46,9,6,2616,-1,-3,2,0,36735,61,25,144,0,0,0,0,0,0,0,0,-32295,0,0,0,4548,0,13054,0
12980,-1114,-8106,888,-50,13,5,2616,-2,2,0,0,36735,51,25,144,0,0,0,0,0,0,0,0,-32295,0,0,0,4548,0,13065,0
12990,-1118,-8112,858,-42,11,5,2616,-1,8,0,0,36740,57,25,144,0,0,0,0,0,0,0,0,-32295,0,0,0,4548,0,13075,0
13000,-1092,-8106,874,-52,15,7,2616,5,2,0,0,36746,68,25,144,0,0,0,0,0,0,0,0,-32295,0,0,0,4548,0,13085,0
13010,-1104,-8130,884,-47,10,2,2616,4,-1,2,0,36745,70,25,144,0,0,0,0,0,0,0,0,-32295,0,0,0,4548,0,13094,0
13020,-1112,-8108,892,-53,17,10,2615,0,4,1,0,36742,66,25,144,0,0,0,0,0,0,0,0,-32297,0,0,0,4548,0,13104,0
13030,-1080,-8114,882,-52,6,5,2615,-3,-1,2,0,36737,59,25,144,0,0,0,0,0,0,0,0,-32295,0,0,0,4548,0,13115,0
13040,-1088,-8122,860,-48,13,6,2615,-2,2,1,0,36735,57,25,144,0,0,0,0,0,0,0,0,-32295,0,0,0,4547,0,13125,0
13050,-1090,-8114,876,-49,14,5,2616,1,2,0,0,36735,58,25,144,0,0,0,0,0,0,0,0,-32295,0,0,0,4548,0,13135,0
13060,-1106,-8152,896,-53,9,3,2616,-1,4,2,0,36732,70,25,144,0,0,0,0,0,0,0,0,-32295,0,0,0,4547,0,13145,0
13070,-1104,-8118,860,-52,18,1,2616,-5,1,3,0,36732,66,25,144,0,0,0,0,0,0,0,0,-32295,0,0,0,4547,0,13155,0
13080,-1086,-8120,876,-53,14,-1,2615,-3,0,0,0,36733,73,25,144,0,0,0,0,0,0,0,0,-32295,0,0,0,4546,0,13165,0
13090,-1136,-8124,886,-50,14,-6,2618,6,-1,0,0,36733,70,25,144,0,0,0,0,0,0,0,0,-32295,0,0,0,4548,0,13175,0
13100,-1116,-8122,882,-47,8,0,2616,-3,-3,0,0,36732,77,25,144,0,0,0,0,0,0,0,0,-32295,0,0,0,4546,0,13185,0
13110,-1088,-8110,912,-52,14,4,2616,-1,-3,2,0,36731,76,25,144,0,0,0,0,0,0,0,0,-32295,0,0,0,4546,0,13195,0
13120,-1074,-8134,900,-53,11,-1,2615,-5,-3,2,0,36730,68,25,144,0,0,0,0,0,0,0,0,-32295,0,0,0,4547,0,13205,0
13130,-1104,-8104,904,-56,13,0,2617,3,1,0,0,36728,51,25,144,0,0,0,0,0,0,0,0,-32294,0,0,0,4546,0,13215,0
13140,-1084,-8130,878,-52,16,8,2616,4,1,1,0,36728,53,25,144,0,0,0,0,0,0,0,0,-32295,0,0,0,4546,0,13225,0
13150,-1098,-8120,892,-56,11,2,2616,0,2,2,0,36727,56,25,144,0,0,0,0,0,0,0,0,-32295,0,0,0,4546,0,13235,0
13160,-1080,-8102,868,-54,13,5,2617,5,4,3,0,36726,54,25,144,0,0,0,0,0,0,0,0,-32295,0,0,0,4546,0,13245,0
13170,-1084,-8098,870,-48,11,8,2616,0,0,1,0,36728,55,25,144,0,0,0,0,0,0,0,0,-32295,0,0,0,4548,0,13255,0
13180,-1082,-8126,850,-50,18,8,2617,-1,0,1,0,36731,63,25,144,0,0,0,0,0,0,0,0,-32295,0,0,0,4546,0,13265,0
13190,-1074,-8132,894,-54,12,7,2615,0,-6,1,0,36730,62,25,144,0,0,0,0,0,0,0,0,-32295,0,0,0,4546,0,13275,0
13200,-1104,-8120,880,-57,10,14,2616,-7,-4,2,0,36737,62,25,144,0,0,0,0,0,0,0,0,-32295,0,0,0,4546,0,13285,0
13210,-1084,-8124,872,-48,16,13,2615,-5,1,1,0,36736,64,25,144,0,0,0,0,0,0,0,0,-32295,0,0,0,4548,0,13295,0
13220,-1094,-8136,882,-46,12,19,2617,0,2,3,0,36738,72,25,144,0,0,0,0,0,0,0,0,-32295,0,0,0,4547,0,13305,0
13230,-1122,-8140,900,-50,12,14,2617,2,-3,0,0,36735,84,25,144,0,0,0,0,0,0,0,0,-32295,0,0,0,4546,0,13315,0
13240,-1112,-8122,900,-53,16,14,2617,0,2,1,0,36727,77,25,144,0,0,0,0,0,0,0,0,-32295,0,0,0,4547,0,13325,0
13250,-1118,-8118,914,-51,13,11,2615,-3,0,1,0,36723,67,25,144,0,0,0,0,0,0,0,0,-32295,0,0,0,4547,0,13335,0
13260,-1134,-8106,876,-53,12,11,2617,0,-3,3,0,36722,58,25,144,0,0,0,0,0,0,0,0,-32295,0,0,0,4546,0,13345,0
13270,-1110,-8086,882,-51,12,7,2616,-2,-1,1,0,36723,57,25,144,0,0,0,0,0,0,0,0,-32295,0,0,0,4548,0,13355,0
13280,-1084,-8128,868,-51,12,8,2616,6,0,1,0,36723,59,25,144,0,0,0,0,0,0,0,0,-32295,0,0,0,4548,0,13365,0
13290,-1088,-8118,876,-51,15,11,2617,1,-3,2,0,36724,58,25,144,0,0,0,0,0,0,0,0,-32295,0,0,0,4548,0,13375,0
13300,-1098,-8128,874,-51,13,10,2616,-9,0,4,0,36725,59,25,144,0,0,0,0,0,0,0,0,-32295,0,0,0,4547,0,13385,0
13310,-1124,-8114,874,-47,15,9,2618,3,1,3,0,36733,63,25,144,0,0,0,0,0,0,0,0,-32295,0,0,0,4546,0,13395,0
13320,-1130,-8120,890,-47,13,9,2617,2,2,1,0,36747,67,25,144,0,0,0,0,0,0,0,0,-32295,0,0,0,4546,0,13405,0
13330,-1104,-8104,872,-48,13,2,2616,-7,2,0,0,36760,68,25,144,0,0,0,0,0,0,0,0,-32295,0,0,0,4547,0,13415,0
13340,-1132,-8138,874,-48,9,3,2615,-2,-7,2,0,36754,69,25,144,0,0,0,0,0,0,0,0,-32295,0,0,0,4548,0,13425,0
13350,-1104,-8142,886,-49,11,5,2617,2,2,0,0,36739,64,25,144,0,0,0,0,0,0,0,0,-32295,0,0,0,4548,0,13435,0
13360,-1098,-8116,888,-53,14,7,2616,-4,2,1,0,36728,64,25,144,0,0,0,0,0,0,0,0,-32295,0,0,0,4547,0,13445,0
13370,-1076,-8124,878,-50,14,3,2615,-1,-3,2,0,36724,63,25,144,0,0,0,0,0,0,0,0,-32295,0,0,0,4548,0,13455,0
13380,-1084,-8120,864,-55,10,6,2616,-2,-1,0,0,36724,60,25,144,0,0,0,0,0,0,0,0,-32295,0,0,0,4548,0,13465,0
13390,-1092,-8118,876,-48,11,12,2617,-1,-4,2,0,36720,56,25,144,0,0,0,0,0,0,0,0,-32295,0,0,0,4548,0,13475,0
13400,-1112,-8136,876,-51,12,11,2617,4,-1,1,0,36722,64,25,144,0,0,0,0,0,0,0,0,-32295,0,0,0,4546,0,13485,0
13410,-1124,-8116,890,-50,11,8,2616,-5,-4,4,0,36728,61,25,144,0,0,0,0,0,0,0,0,-32295,0,0,0,4548,0,13495,0
13420,-1104,-8122,882,-50,10,8,2616,-3,0,3,0,36732,61,25,144,0,0,0,0,0,0,0,0,-32295,0,0,0,4548,0,13505,0
13430,-1116,-8096,888,-52,12,3,2616,-4,-2,0,0,36730,54,25,144,0,0,0,0,0,0,0,0,-32295,0,0,0,4548,0,13515,0
13440,-1098,-8104,878,-49,14,7,2616,5,1,0,0,36728,63,25,144,0,0,0,0,0,0,0,0,-32295,0,0,0,4547,0,13525,0
13450,-1080,-8114,880,-51,14,7,2616,-5,-2,2,0,36722,71,25,144,0,0,0,0,0,0,0,0,-32295,0,0,0,4547,0,13535,0
13460,-1088,-8114,886,-46,9,11,2617,-2,-1,0,0,36720,65,25,144,0,0,0,0,0,0,0,0,-32296,0,0,0,4546,0,13545,0
13470,-1100,-8132,868,-51,11,10,2616,4,3,2,0,36720,54,25,144,0,0,0,0,0,0,0,0,-32295,0,0,0,4548,0,13555,0
13480,-1094,-8106,904,-51,12,10,2616,0,4,2,0,36721,56,25,144,0,0,0,0,0,0,0,0,-32295,0,0,0,4548,0,13565,0
13490,-1084,-8112,890,-52,14,13,2617,-2,0,2,0,36722,63,25,144,0,0,0,0,0,0,0,0,-32295,0,0,0,4546,0,13575,0
13500,-1118,-8116,886,-51,13,9,2616,-9,-1,1,0,36721,70,25,144,0,0,0,0,0,0,0,0,-32295,0,0,0,4547,0,13585,0
13510,-1124,-8130,884,-50,12,10,2617,2,1,0,0,36720,65,25,144,0,0,0,0,0,0,0,0,-32295,0,0,0,4548,0,13595,0
13520,-1098,-8124,874,-49,13,9,2615,-7,3,5,0,36722,70,25,144,0,0,0,0,0,0,0,0,-32295,0,0,0,4548,0,13605,0
13530,-1094,-8104,882,-50,19,5,2616,-3,0,-2,0,36722,71,25,144,0,0,0,0,0,0,0,0,-32295,0,0,0,4548,0,13615,0
13540,-1072,-8122,870,-46,11,12,2615,-1,2,1,0,36722,71,25,144,0,0,0,0,0,0,0,0,-32295,0,0,0,4548,0,13625,0
13550,-1102,-8118,860,-45,11,13,2616,3,-2,1,0,36724,67,25,144,0,0,0,0,0,0,0,0,-32295,0,0,0,4548,0,13635,0
13560,-1088,-8132,882,-49,17,14,2616,0,-4,1,0,36722,58,25,144,0,0,0,0,0,0,0,0,-32295,0,0,0,4548,0,13650,0
13570,-1098,-8108,882,-45,16,14,2615,0,0,3,0,36722,64,25,144,0,0,0,0,0,0,0,0,-32295,0,0,0,4548,0,13670,0
13580,-1126,-8126,896,-49,14,11,2617,7,1,0,0,36722,66,25,144,0,0,0,0,0,0,0,0,-32295,0,0,0,4548,0,13690,0
13590,-1110,-8130,856,-49,10,14,2616,0,-1,2,0,36720,66,25,144,0,0,0,0,0,0,0,0,-32295,0,0,0,4548,0,13710,0
13600,-1132,-8104,878,-45,12,10,2616,0,3,1,0,36723,59,25,144,0,0,0,0,0,0,0,0,-32295,0,0,0,4548,0,13730,0
13610,-1124,-8138,868,-58,15,7,2617,-1,-3,2,0,36726,55,25,144,0,0,0,0,0,0,0,0,-32295,0,0,0,4548,0,13750,0
13620,-1118,-8100,886,-47,13,2,2616,3,0,0,0,36728,57,25,144,0,0,0,0,0,0,0,0,-32295,0,0,0,4548,0,13770,0
13630,-1108,-8134,894,-54,13,-5,2616,3,1,1,0,36731,64,25,144,0,0,0,0,0,0,0,0,-32295,0,0,0,4548,0,13794,0
13640,-1094,-8126,884,-49,14,-4,2616,-4,-4,2,0,36729,69,25,144,0,0,0,0,0,0,0,0,-32295,0,0,0,4548,0,13814,0
13650,-1088,-8112,876,-48,16,-1,2617,4,3,1,0,36728,66,25,144,0,0,0,0,0,0,0,0,-32295,0,0,0,4548,0,13834,0
13660,-1078,-8108,898,-54,11,3,2616,-4,2,0,0,36722,58,25,144,0,0,0,0,0,0,0,0,-32295,0,0,0,4547,0,13854,0
13670,-1092,-8132,892,-50,10,6,2616,0,4,2,0,36724,60,25,144,0,0,0,0,0,0,0,0,-32295,0,0,0,4548,0,13874,0
13680,-1114,-8120,882,-50,14,2,2615,-3,-2,1,0,36725,67,25,144,0,0,0,0,0,0,0,0,-32295,0,0,0,4548,0,13894,0
13690,-1072,-8132,876,-50,10,7,2616,0,2,3,0,36727,69,25,144,0,0,0,0,0,0,0,0,-32295,0,0,0,4548,0,13914,0
13700,-1094,-8124,886,-53,18,10,2615,2,-4,1,0,36725,72,25,144,0,0,0,0,0,0,0,0,-32295,0,0,0,4547,0,13934,0
13710,-1122,-8114,882,-52,15,8,2616,1,3,0,0,36723,72,25,144,0,0,0,0,0,0,0,0,-32295,0,0,0,4548,0,13954,0
13720,-1110,-8122,878,-53,13,9,2617,7,-2,2,0,36724,63,25,144,0,0,0,0,0,0,0,0,-32295,0,0,0,4548,0,13974,0
13730,-1092,-8106,886,-51,13,9,2616,-2,-1,-1,0,36725,55,25,144,0,0,0,0,0,0,0,0,-32295,0,0,0,4548,0,13994,0
13740,-1092,-8120,894,-53,13,5,2616,-1,-1,1,0,36732,63,25,144,0,0,0,0,0,0,0,0,-32295,0,0,0,4548,0,14014,0
13750,-1098,-8140,876,-51,17,9,2616,-1,-1,1,0,36731,63,25,144,0,0,0,0,0,0,0,0,-32295,0,0,0,4548,0,14034,0
13760,-1094,-8140,876,-51,13,13,2616,0,-1,2,0,36728,61,25,144,0,0,0,0,0,0,0,0,-32295,0,0,0,4547,0,14054,0
13770,-1072,-8126,940,-50,13,5,2616,-1,2,4,0,36725,64,25,144,0,0,0,0,0,0,0,0,-32295,0,0,0,4548,0,14074,0
13780,-1078,-8120,920,-49,13,10,2617,2,-2,1,0,36728,65,25,144,0,0,0,0,0,0,0,0,-32295,0,0,0,4548,0,14095,0
13790,-1118,-8136,890,-51,15,12,2616,0,0,2,0,36726,55,25,144,0,0,0,0,0,0,0,0,-32295,0,0,0,4547,0,14115,0
13800,-1114,-8104,888,-49,17,11,2615,0,-2,0,0,36724,51,25,144,0,0,0,0,0,0,0,0,-32295,0,0,0,4547,0,14135,0
13810,-1104,-8096,858,-52,12,8,2616,0,-1,0,0,36729,58,25,144,0,0,0,0,0,0,0,0,-32295,0,0,0,4548,0,14155,0
13820,-1110,-8084,856,-52,12,0,2616,0,-2,3,0,36734,57,25,144,0,0,0,0,0,0,0,0,-32295,0,0,0,4548,0,14175,0
13830,-1120,-8100,890,-48,16,1,2615,4,3,0,0,36735,62,25,144,0,0,0,0,0,0,0,0,-32295,0,0,0,4546,0,14195,0
13840,-1092,-8122,894,-48,13,2,2615,-8,-2,2,0,36737,57,25,144,0,0,0,0,0,0,0,0,-32295,0,0,0,4548,0,14215,0
13850,-1100,-8106,898,-51,18,5,2616,-8,-1,1,0,36735,67,25,144,0,0,0,0,0,0,0,0,-32295,0,0,0,4548,0,14235,0
13860,-1058,-8114,904,-52,8,1,2617,1,0,1,0,36732,63,25,144,0,0,0,0,0,0,0,0,-32295,0,0,0,4548,0,14255,0
13870,-1082,-8126,878,-55,13,3,2616,-3,-3,3,0,36732,73,25,144,0,0,0,0,0,0,0,0,-32295,0,0,0,4548,0,14275,0
13880,-1086,-8116,858,-46,11,9,2616,0,-1,0,0,36729,70,25,144,0,0,0,0,0,0,0,0,-32295,0,0,0,4548,0,14295,0
13890,-1100,-8108,882,-53,12,10,2616,-3,-1,1,0,36730,74,25,144,0,0,0,0,0,0,0,0,-32295,0,0,0,4548,0,14315,0
13900,-1116,-8102,898,-50,11,6,2616,-1,-1,0,0,36732,69,25,144,0,0,0,0,0,0,0,0,-32295,0,0,0,4548,0,14335,0
13910,-1100,-8122,868,-50,14,7,2618,10,1,1,0,36732,58,25,144,0,0,0,0,0,0,0,0,-32295,0,0,0,4548,0,14355,0
13920,-1104,-8124,890,-50,12,7,2616,-1,0,4,0,36731,61,25,144,0,0,0,0,0,0,0,0,-32295,0,0,0,4547,0,14375,0
13930,-1110,-8128,892,-53,9,2,2616,3,3,1,0,36732,65,25,144,0,0,0,0,0,0,0,0,-32295,0,0,0,4548,0,14395,0
13940,-1084,-8110,910,-52,12,3,2616,3,-3,0,0,36731,64,25,144,0,0,0,0,0,0,0,0,-32295,0,0,0,4547,0,14415,0
13950,-1096,-8130,892,-57,13,5,2616,0,0,1,0,36737,59,25,144,0,0,0,0,0,0,0,0,-32295,0,0,0,4548,0,14435,0
13960,-1078,-8132,860,-49,12,11,2615,-3,1,1,0,36738,59,25,144,0,0,0,0,0,0,0,0,-32295,0,0,0,4548,0,14455,0
13970,-1102,-8106,872,-54,14,3,2617,4,0,2,0,36739,55,25,144,0,0,0,0,0,0,0,0,-32296,0,0,0,4547,0,14475,0
13980,-1096,-8132,874,-53,13,4,2617,3,-1,2,0,36733,61,25,144,0,0,0,0,0,0,0,0,-32295,0,0,0,4547,0,14495,0
13990,-1126,-8110,904,-50,15,3,2616,-4,0,0,0,36733,62,25,144,0,0,0,0,0,0,0,0,-32295,0,0,0,4548,0,14515,0
14000,-1118,-8128,876,-48,9,1,2616,-3,1,1,0,36733,69,25,144,0,0,0,0,0,0,0,0,-32295,0,0,0,4548,0,14535,0
14010,-1114,-8108,892,-49,10,2,2618,-3,-6,0,0,36734,67,25,144,0,0,0,0,0,0,0,0,-32295,0,0,0,4547,0,14555,0
14020,-1110,-8104,888,-50,16,-2,2617,4,5,5,0,36735,64,25,144,0,0,0,0,0,0,0,0,-32296,0,0,0,4548,0,14575,0
14030,-1088,-8116,864,-48,10,6,2615,-3,0,1,0,36737,69,25,144,0,0,0,0,0,0,0,0,-32295,0,0,0,4546,0,14595,0
14040,-1062,-8138,870,-58,15,5,2617,3,2,1,0,36738,77,25,144,0,0,0,0,0,0,0,0,-32295,0,0,0,4547,0,14615,0
14050,-1080,-8124,898,-47,8,10,2617,1,-1,3,0,36740,84,25,144,0,0,0,0,0,0,0,0,-32295,0,0,0,4548,0,14635,0
14060,-1074,-8112,866,-47,11,8,2616,-4,1,0,0,36733,70,25,144,0,0,0,0,0,0,0,0,-32295,0,0,0,4548,0,14655,0
14070,-1086,-8128,876,-47,17,8,2616,0,3,2,0,36732,72,25,144,0,0,0,0,0,0,0,0,-32295,0,0,0,4547,0,14675,0
14080,-1096,-8130,878,-54,16,10,2616,-4,-3,0,0,36728,58,25,144,0,0,0,0,0,0,0,0,-32295,0,0,0,4548,0,14695,0
14090,-1102,-8106,858,-48,11,9,2617,5,0,1,0,36730,58,25,144,0,0,0,0,0,0,0,0,-32295,0,0,0,4548,0,14715,0
14100,-1116,-8120,882,-53,15,12,2616,1,-1,2,0,36729,53,25,144,0,0,0,0,0,0,0,0,-32295,0,0,0,4548,0,14735,0
14110,-1126,-8140,884,-51,18,5,2616,-6,-3,0,0,36728,64,25,144,0,0,0,0,0,0,0,0,-32295,0,0,0,4548,0,14755,0
14120,-1116,-8108,864,-51,15,3,2617,4,-1,3,0,36728,67,25,144,0,0,0,0,0,0,0,0,-32295,0,0,0,4548,0,14775,0
14130,-1082,-8142,840,-51,11,6,2616,-4,2,0,0,36730,65,25,144,0,0,0,0,0,0,0,0,-32295,0,0,0,4548,0,14795,0
14140,-1396,-8238,784,-51,18,-24,2633,95,22,494,568,36731,68,25,144,0,0,0,0,0,0,0,0,-32295,0,0,0,4547,0,14815,0
14150,-1018,-8258,806,-51,20,-6,2777,412,273,887,1432,36728,79,25,144,0,0,0,0,0,0,0,0,-32295,0,0,0,4548,0,14835,0
14160,-1030,-8170,890,-53,12,-7,3064,729,527,1013,2264,36726,96,25,144,0,0,0,0,0,0,0,0,-32294,0,0,0,4546,0,14855,0
14170,-996,-8134,874,-62,1,7,3502,1059,566,1021,3000,36718,112,25,144,0,0,0,0,0,0,0,0,-32295,0,0,0,4546,0,14875,0
14180,-1176,-8144,920,-60,-2,4,4092,1400,580,1023,3800,36709,139,25,144,0,0,0,0,0,0,0,0,-32295,0,0,0,4547,0,14895,0
14190,-1264,-8158,930,-50,9,5,4831,1713,577,1011,4576,36692,169,25,144,0,0,0,0,0,0,0,0,-32295,0,0,0,4546,0,14915,0
14200,-1064,-8124,754,-44,0,-2,5705,2008,543,977,5256,36677,195,25,144,0,0,0,0,0,0,0,0,-32295,0,0,0,4548,0,14935,0
14210,-1046,-8132,900,-31,2,-5,6714,2317,517,987,6040,36662,210,25,144,0,0,0,0,0,0,0,0,-32296,0,0,0,4547,0,14955,0
14220,-1064,-8102,854,-36,2,-3,7897,2724,595,1039,6848,36651,223,25,144,0,0,0,0,0,0,0,0,-32295,0,0,0,4546,0,14975,0
14230,-1092,-8128,936,-23,11,3,9236,3012,643,1008,7520,36643,253,25,144,0,0,0,0,0,0,0,0,-32295,0,0,0,4546,0,14995,0
14240,-1074,-8122,886,-35,27,2,10643,3146,426,909,8264,36630,283,25,144,0,0,0,0,0,0,0,0,-32295,0,0,0,4546,0,15015,0
14250,-1116,-8080,1006,-49,39,-5,12213,3615,429,1040,9176,36614,311,25,144,0,0,0,0,0,0,0,0,-32295,0,0,0,4546,0,15035,0
14260,-928,-8156,776,-87,58,8,13967,3920,693,1008,9792,36596,338,25,144,0,0,0,0,0,0,0,0,-32296,0,0,0,4546,0,15055,0
14270,-1088,-8146,728,-57,26,8,15852,4283,588,1026,10592,36591,358,25,144,0,0,0,0,0,0,0,0,-32295,0,0,0,4546,0,15075,0
14280,-1048,-8174,736,-34,-14,14,17891,4476,569,1034,10888,36574,392,25,144,0,0,0,0,0,0,0,0,-32295,0,0,0,4546,0,15096,0
14290,-802,-8154,900,-75,10,7,19940,4601,285,883,11736,36561,408,25,144,0,0,0,0,0,0,0,0,-32294,0,0,0,4546,0,15115,0
14300,-1134,-8120,920,-24,-5,16,22170,4972,385,1056,12344,36542,421,25,144,0,0,0,0,0,0,0,0,-32295,0,0,0,4546,0,15135,0
14310,-1002,-8078,1028,-48,-13,-1,24548,5407,621,1051,13192,36530,434,25,144,0,0,0,0,0,0,0,0,-32295,0,0,0,4546,0,15155,0
14320,-1080,-8008,822,-98,17,13,27026,5392,512,932,13328,36514,467,25,144,0,0,0,0,0,0,0,0,-32295,0,0,0,4546,0,15175,0
14330,-1322,-8342,508,-180,70,-10,29615,5853,354,1041,14416,36503,483,25,144,0,0,0,0,0,0,0,0,-32295,0,0,0,4546,0,15196,0
14340,-32768,3974,1872,-60,-1285,4436,32294,5904,465,1173,12960,36488,518,25,144,0,0,0,0,0,0,0,0,-32295,0,0,0,4556,2,15215,0
14350,14390,-22040,6428,-819,-3399,4921,34246,3308,-1094,1348,5224,36461,554,25,144,0,0,0,0,0,0,0,0,-32295,0,0,0,4712,13,15235,0
14360,-1214,-9480,2782,-287,-910,1143,34549,-426,-4660,655,-1080,36462,527,25,144,0,0,0,0,0,0,0,0,-32295,0,0,0,4765,1,15255,0
14370,-20864,-5728,-5218,-12,1353,-1836,33628,-2510,-5624,653,-4872,36522,385,25,144,0,0,0,0,0,0,0,0,-32295,0,0,0,4713,-7,15275,0
14380,-16430,-2796,-1836,535,2939,-3345,32358,-2738,-3022,681,-3952,36610,188,25,144,0,0,0,0,0,0,0,0,-32294,0,0,0,4626,-8,15295,0
14390,570,-10076,4246,822,2707,-2022,31355,-1950,-112,989,-2024,36682,34,25,144,0,0,0,0,0,0,0,0,-32295,0,0,0,4579,-2,15315,0
14400,7594,-7336,5332,65,-615,-572,30742,-1115,1297,1041,-224,36707,-9,25,144,0,0,0,0,0,0,0,0,-32295,0,0,0,4556,-2,15335,0
14410,7130,-9538,3042,-323,-680,242,30524,-193,1496,1349,400,36716,-9,25,144,0,0,0,0,0,0,0,0,-32295,0,0,0,4554,0,15355,0
14420,-5512,-6970,74,-510,-1991,856,30636,369,1407,835,1336,36717,21,25,144,0,0,0,0,0,0,0,0,-32295,0,0,0,4563,1,15375,0
14430,-8808,-9830,498,-185,151,86,30940,806,980,986,2528,36708,58,25,144,0,0,0,0,0,0,0,0,-32295,0,0,0,4574,0,15395,0
14440,-1798,-8950,-1128,76,819,-820,31455,1274,768,1037,3560,36694,113,25,144,0,0,0,0,0,0,0,0,-32295,0,0,0,4571,0,15415,0
14450,-13268,-4100,2492,297,1136,606,32114,1434,703,1184,3224,36677,152,25,144,0,0,0,0,0,0,0,0,-32295,0,0,0,4569,1,15435,0
14460,12948,-10332,5526,17,-793,985,32523,576,-183,1117,520,36661,175,25,144,0,0,0,0,0,0,0,0,-32295,0,0,0,4602,2,15455,0
14470,3788,-7212,6126,-363,-1161,862,32464,-330,-1448,948,-8,36673,162,25,144,0,0,0,0,0,0,0,0,-32295,0,0,0,4610,0,15475,0
14480,-14190,-6900,-2024,-238,315,114,32338,-173,-1051,995,232,36686,138,25,144,0,0,0,0,0,0,0,0,-32295,0,0,0,4605,0,15496,0
14490,-6456,-7906,-1452,-99,782,-358,32361,98,207,973,424,36703,98,25,144,0,0,0,0,0,0,0,0,-32295,0,0,0,4605,0,15515,0
14500,4166,-9016,308,66,409,-261,32382,-6,298,1041,248,36702,87,25,144,0,0,0,0,0,0,0,0,-32295,0,0,0,4603,0,15535,0
14510,2774,-8538,1412,-4,-115,22,32331,-143,-164,1006,160,36701,102,25,144,0,0,0,0,0,0,0,0,-32295,0,0,0,4599,0,15555,0
14520,-2788,-7850,1070,-118,-279,229,32295,-26,-119,978,296,36703,100,25,144,0,0,0,0,0,0,0,0,-32295,0,0,0,4597,0,15575,0
14530,-4098,-7936,-92,-63,-97,98,32330,100,179,971,448,36707,94,25,144,0,0,0,0,0,0,0,0,-32295,0,0,0,4600,0,15595,0
14540,-1912,-8084,250,78,110,-215,32345,-15,108,1039,248,36707,81,25,144,0,0,0,0,0,0,0,0,-32295,0,0,0,4601,0,15615,0
14550,-722,-8446,1386,91,185,-250,32316,-70,-146,1001,224,36706,84,25,144,0,0,0,0,0,0,0,0,-32295,0,0,0,4600,0,15635,0
14560,304,-8304,2490,-70,22,-63,32296,-26,-60,991,256,36709,86,25,144,0,0,0,0,0,0,0,0,-32296,0,0,0,4597,0,15655,0
14570,-36,-8200,1826,-178,-78,40,32291,-11,49,998,280,36711,82,25,144,0,0,0,0,0,0,0,0,-32295,0,0,0,4597,0,15675,0
14580,-1670,-7938,360,-164,-43,84,32294,18,39,995,304,36714,65,25,144,0,0,0,0,0,0,0,0,-32295,0,0,0,4596,0,15696,0
14590,-1796,-8180,-100,-90,49,16,32298,4,22,1000,280,36717,66,25,144,0,0,0,0,0,0,0,0,-32295,0,0,0,4597,0,15715,0
14600,-916,-8054,222,5,65,-19,32295,-7,-16,1002,264,36731,70,25,144,0,0,0,0,0,0,0,0,-32296,0,0,0,4596,0,15736,0
14610,-558,-8144,774,14,19,39,32295,5,-16,995,288,36727,75,25,144,0,0,0,0,0,0,0,0,-32295,0,0,0,4596,0,15755,0
14620,-1010,-8116,1244,-8,-31,89,32297,7,14,1002,280,36727,69,25,144,0,0,0,0,0,0,0,0,-32295,0,0,0,4597,0,15775,0
14630,-1656,-8020,1182,-30,-12,64,32300,12,5,1001,288,36716,71,25,144,0,0,0,0,0,0,0,0,-32296,0,0,0,4598,0,15796,0
14640,-1702,-8170,1040,-46,38,9,32302,10,2,998,272,36716,70,25,144,0,0,0,0,0,0,0,0,-32295,0,0,0,4598,0,15816,0
14650,-1344,-8138,1014,-57,44,-20,32303,-3,-11,1000,280,36716,74,25,144,0,0,0,0,0,0,0,0,-32295,0,0,0,4598,0,15836,0
14660,-966,-7974,1022,-70,16,-13,32303,-1,-8,999,280,36714,80,25,144,0,0,0,0,0,0,0,0,-32295,0,0,0,4597,0,15856,0
14670,-1092,-8180,960,-74,1,3,32304,1,4,1000,288,36712,86,25,144,0,0,0,0,0,0,0,0,-32295,0,0,0,4597,0,15876,0
14680,-1418,-8122,816,-73,-3,-1,32303,1,-1,997,280,36716,92,25,144,0,0,0,0,0,0,0,0,-32295,0,0,0,4598,0,15896,0
14690,-1340,-8054,786,-65,15,-30,32303,-5,-2,998,272,36717,77,25,144,0,0,0,0,0,0,0,0,-32295,0,0,0,4598,0,15916,0
14700,-994,-8086,868,-62,19,-27,32301,-5,0,1003,272,36717,76,25,144,0,0,0,0,0,0,0,0,-32295,0,0,0,4597,0,15936,0
14710,-932,-8168,908,-66,5,1,32301,-3,-1,998,280,36715,73,25,144,0,0,0,0,0,0,0,0,-32295,0,0,0,4597,0,15956,0
14720,-1032,-8154,760,-54,8,6,32302,1,1,1000,280,36715,78,25,144,0,0,0,0,0,0,0,0,-32295,0,0,0,4597,0,15976,0
14730,-1174,-8132,654,-45,12,17,32301,-1,2,1000,280,36716,83,25,144,0,0,0,0,0,0,0,0,-32295,0,0,0,4597,0,15996,0
14740,-1190,-8056,750,-19,22,26,32301,3,0,1000,272,36718,78,25,144,0,0,0,0,0,0,0,0,-32295,0,0,0,4597,0,16016,0
14750,-1184,-8168,818,-14,21,23,32302,1,5,1000,280,36717,84,25,144,0,0,0,0,0,0,0,0,-32295,0,0,0,4598,0,16036,0
14760,-1156,-8138,1024,-24,9,15,32302,0,0,998,296,36716,71,25,144,0,0,0,0,0,0,0,0,-32295,0,0,0,4598,0,16056,0
14770,-1268,-8064,1096,-29,11,32,32301,1,-6,1004,288,36719,76,25,144,0,0,0,0,0,0,0,0,-32295,0,0,0,4598,0,16076,0
14780,-1338,-8094,1014,-53,12,6,32305,10,5,999,280,36727,73,25,144,0,0,0,0,0,0,0,0,-32295,0,0,0,4598,0,16097,0
14790,-1336,-8106,916,-52,13,-12,32303,0,-1,1000,280,36727,89,25,144,0,0,0,0,0,0,0,0,-32295,0,0,0,4598,0,16117,0
14800,-1176,-8066,892,-56,10,-10,32302,-9,-1,998,264,36722,88,25,144,0,0,0,0,0,0,0,0,-32295,0,0,0,4598,0,16137,0
14810,-1198,-8106,896,-55,1,-9,32303,-3,-5,997,272,36722,85,25,144,0,0,0,0,0,0,0,0,-32296,0,0,0,4597,0,16157,0
14820,-1142,-8108,860,-53,2,-18,32303,1,-2,1001,280,36721,78,25,144,0,0,0,0,0,0,0,0,-32296,0,0,0,4597,0,16177,0
14830,-1158,-8070,852,-50,8,-9,32302,-4,1,1000,288,36725,74,25,144,0,0,0,0,0,0,0,0,-32295,0,0,0,4598,0,16197,0
14840,-1160,-8130,884,-43,14,2,32301,-3,-4,997,272,36723,68,25,144,0,0,0,0,0,0,0,0,-32295,0,0,0,4598,0,16217,0
14850,-1134,-8102,936,-52,7,-1,32302,5,1,999,272,36723,81,25,144,0,0,0,0,0,0,0,0,-32295,0,0,0,4598,0,16237,0
14860,-1134,-8132,888,-51,12,4,32300,0,-3,996,280,36723,85,25,144,0,0,0,0,0,0,0,0,-32296,0,0,0,4598,0,16257,0
14870,-1164,-8106,856,-46,11,13,32301,5,2,997,280,36723,85,25,144,0,0,0,0,0,0,0,0,-32295,0,0,0,4597,0,16277,0
14880,-1234,-8084,848,-38,19,3,32301,-2,0,999,272,36722,76,25,144,0,0,0,0,0,0,0,0,-32295,0,0,0,4597,0,16297,0
14890,-1220,-8126,840,-38,18,5,32301,-5,3,998,280,36727,80,25,144,0,0,0,0,0,0,0,0,-32295,0,0,0,4598,0,16317,0
14900,-1174,-8076,946,-43,9,11,32300,4,1,996,272,36729,83,25,144,0,0,0,0,0,0,0,0,-32295,0,0,0,4597,0,16337,0
14910,-1156,-8064,902,-43,10,6,32301,-2,-4,1003,280,36728,72,25,144,0,0,0,0,0,0,0,0,-32295,0,0,0,4597,0,16357,0
14920,-1168,-8116,924,-51,11,2,32300,0,5,999,272,36724,71,25,144,0,0,0,0,0,0,0,0,-32296,0,0,0,4597,0,16377,0
14930,-1178,-8140,894,-45,6,4,32301,0,0,999,264,36724,76,25,144,0,0,0,0,0,0,0,0,-32295,0,0,0,4598,0,16397,0
14940,-1198,-8112,888,-52,17,4,32302,1,0,1001,280,36725,85,25,144,0,0,0,0,0,0,0,0,-32295,0,0,0,4598,0,16417,0
14950,-1162,-8078,872,-50,20,9,32301,-2,1,997,272,36725,82,25,144,0,0,0,0,0,0,0,0,-32295,0,0,0,4597,0,16437,0
14960,-1178,-8134,898,-48,15,14,32301,0,2,996,272,36725,78,25,144,0,0,0,0,0,0,0,0,-32295,0,0,0,4598,0,16457,0
14970,-1200,-8100,880,-48,15,10,32301,5,3,1002,288,36727,78,25,144,0,0,0,0,0,0,0,0,-32295,0,0,0,4597,0,16477,0
14980,-1192,-8108,896,-43,21,10,32302,1,-1,998,272,36726,82,25,144,0,0,0,0,0,0,0,0,-32295,0,0,0,4597,0,16497,0
14990,-1184,-8126,890,-51,16,11,32301,0,-4,996,272,36727,81,25,144,0,0,0,0,0,0,0,0,-32295,0,0,0,4597,0,16517,0
15000,-1170,-8118,918,-46,12,2,32301,-1,2,995,272,36725,75,25,144,0,0,0,0,0,0,0,0,-32295,0,0,0,4597,0,16537,0
15010,-1180,-8086,898,-51,11,0,32302,0,1,998,264,36725,79,25,144,0,0,0,0,0,0,0,0,-32295,0,0,0,4598,0,16557,0
15020,-1218,-8096,898,-53,11,3,32300,-2,0,1000,288,36725,79,25,144,0,0,0,0,0,0,0,0,-32296,0,0,0,4598,0,16577,0
15030,-1246,-8162,920,-52,11,-3,32300,-3,2,998,280,36725,77,25,144,0,0,0,0,0,0,0,0,-32295,0,0,0,4597,0,16597,0
15040,-1168,-8094,886,-57,6,-11,32301,-4,2,1002,288,36728,73,25,144,0,0,0,0,0,0,0,0,-32295,0,0,0,4598,0,16617,0
15050,-1196,-8118,868,-51,10,-3,32300,-4,-4,997,280,36729,75,25,144,0,0,0,0,0,0,0,0,-32295,0,0,0,4598,0,16637,0
15060,-1252,-8124,880,-48,5,0,32301,3,-6,993,280,36727,76,25,144,0,0,0,0,0,0,0,0,-32296,0,0,0,4597,0,16657,0
15070,-1144,-8088,854,-47,15,-10,32300,-2,3,1000,280,36724,80,25,144,0,0,0,0,0,0,0,0,-32295,0,0,0,4598,0,16677,0
15080,-1158,-8126,854,-46,15,1,32300,1,1,996,288,36722,83,25,144,0,0,0,0,0,0,0,0,-32295,0,0,0,4597,0,16697,0
15090,-1114,-8138,880,-45,14,0,32299,0,-1,1001,272,36722,88,25,144,0,0,0,0,0,0,0,0,-32295,0,0,0,4598,0,16714,0
15100,-1158,-8070,952,-44,14,0,32298,-5,-1,996,280,36726,79,25,144,0,0,0,0,0,0,0,0,-32295,0,0,0,4598,0,16734,0
15110,-1130,-8108,904,-50,17,-3,32299,0,-2,995,272,36733,70,25,144,0,0,0,0,0,0,0,0,-32295,0,0,0,4598,0,16753,0
15120,-1216,-8096,942,-49,16,11,32298,2,3,995,280,36734,72,25,144,0,0,0,0,0,0,0,0,-32295,0,0,0,4598,0,16773,0
15130,-1184,-8098,894,-55,13,6,32299,3,0,996,280,36732,73,25,144,0,0,0,0,0,0,0,0,-32295,0,0,0,4596,0,16793,0
15140,-1170,-8136,884,-51,15,6,32297,-9,4,997,288,36721,77,25,144,0,0,0,0,0,0,0,0,-32295,0,0,0,4598,0,16813,0
15150,-1164,-8100,886,-56,17,12,32299,1,4,998,272,36722,87,25,144,0,0,0,0,0,0,0,0,-32295,0,0,0,4598,0,16832,0
15160,-1182,-8080,898,-51,9,15,32299,4,0,998,280,36721,84,25,144,0,0,0,0,0,0,0,0,-32295,0,0,0,4597,0,16851,0
15170,-1192,-8126,852,-50,13,3,32299,3,-4,996,280,36721,78,25,144,0,0,0,0,0,0,0,0,-32295,0,0,0,4597,0,16869,0
15180,-1158,-8106,914,-52,13,11,32300,5,-4,1002,288,36720,76,25,144,0,0,0,0,0,0,0,0,-32295,0,0,0,4598,0,16888,0
15190,-1190,-8104,862,-52,10,15,32300,0,-4,1000,280,36720,79,25,144,0,0,0,0,0,0,0,0,-32295,0,0,0,4598,0,16907,0
15200,-1204,-8132,888,-51,17,2,32299,3,0,996,280,36723,73,25,144,0,0,0,0,0,0,0,0,-32295,0,0,0,4596,0,16927,0
15210,-1216,-8114,912,-52,13,8,32298,-3,1,998,264,36724,68,25,144,0,0,0,0,0,0,0,0,-32295,0,0,0,4596,0,16944,0
15220,-1170,-8112,908,-52,17,9,32299,1,-2,996,280,36724,66,25,144,0,0,0,0,0,0,0,0,-32295,0,0,0,4597,0,16961,0
15230,-1164,-8104,910,-50,13,6,32300,3,0,995,280,36726,67,25,144,0,0,0,0,0,0,0,0,-32295,0,0,0,4597,0,16981,0
15240,-1142,-8128,912,-52,13,13,32299,6,-2,1001,280,36723,69,25,144,0,0,0,0,0,0,0,0,-32295,0,0,0,4598,0,16998,0
15250,-1214,-8140,914,-57,16,21,32299,-1,-3,999,264,36722,78,25,144,0,0,0,0,0,0,0,0,-32295,0,0,0,4597,0,17015,0
15260,-1212,-8080,908,-51,18,16,32301,7,4,1001,280,36719,83,25,144,0,0,0,0,0,0,0,0,-32296,0,0,0,4596,0,17027,0
15270,-1174,-8102,870,-50,14,14,32300,6,0,997,280,36716,80,25,144,0,0,0,0,0,0,0,0,-32295,0,0,0,4597,0,17040,0
15280,-1190,-8132,892,-48,14,14,32301,1,-1,997,280,36717,79,25,144,0,0,0,0,0,0,0,0,-32295,0,0,0,4597,0,17059,0
15290,-1176,-8098,888,-45,12,6,32300,0,4,998,280,36718,77,25,144,0,0,0,0,0,0,0,0,-32295,0,0,0,4597,0,17075,0
15300,-1220,-8080,872,-51,16,9,32299,-4,-1,1001,280,36716,80,25,144,0,0,0,0,0,0,0,0,-32295,0,0,0,4597,0,17091,0
15310,-1218,-8120,894,-49,15,5,32299,-5,1,998,280,36720,69,25,144,0,0,0,0,0,0,0,0,-32295,0,0,0,4597,0,17107,0
15320,-1232,-8074,896,-47,13,1,32300,-2,2,997,280,36723,75,25,144,0,0,0,0,0,0,0,0,-32295,0,0,0,4598,0,17122,0
15330,-1200,-8090,884,-48,13,-1,32300,-1,-1,999,280,36724,76,25,144,0,0,0,0,0,0,0,0,-32295,0,0,0,4598,0,17138,0
15340,-1214,-8126,912,-50,16,10,32300,0,-2,1001,272,36717,83,25,144,0,0,0,0,0,0,0,0,-32295,0,0,0,4597,0,17151,0
15350,-1206,-8090,890,-51,5,3,32299,-5,0,997,280,36714,79,25,144,0,0,0,0,0,0,0,0,-32295,0,0,0,4597,0,17166,0
15360,-1226,-8114,872,-55,18,5,32301,9,-3,999,280,36713,75,25,144,0,0,0,0,0,0,0,0,-32295,0,0,0,4597,0,17184,0
15370,-1190,-8156,896,-50,15,10,32299,-1,2,994,264,36713,75,25,144,0,0,0,0,0,0,0,0,-32295,0,0,0,4596,0,17198,0
15380,-1172,-8060,910,-52,8,1,32299,0,2,1000,280,36713,80,25,144,0,0,0,0,0,0,0,0,-32295,0,0,0,4598,0,17216,0
15390,-1206,-8112,878,-47,13,1,32299,-4,5,995,272,36714,80,25,144,0,0,0,0,0,0,0,0,-32295,0,0,0,4597,0,17231,0
15400,-1188,-8110,878,-48,16,4,32300,3,2,997,280,36714,74,25,144,0,0,0,0,0,0,0,0,-32295,0,0,0,4596,0,17246,0
15410,-1210,-8102,920,-49,10,8,32300,0,2,992,272,36716,72,25,144,0,0,0,0,0,0,0,0,-32296,0,0,0,4597,0,17265,0
15420,-1138,-8116,862,-50,14,-1,32300,6,6,996,272,36722,67,25,144,0,0,0,0,0,0,0,0,-32295,0,0,0,4596,0,17284,0
15430,-1146,-8098,888,-49,15,7,32300,-1,2,998,272,36719,63,25,144,0,0,0,0,0,0,0,0,-32295,0,0,0,4597,0,17303,0
15440,-1168,-8096,884,-44,14,9,32300,-2,-3,1004,280,36719,66,25,144,0,0,0,0,0,0,0,0,-32295,0,0,0,4596,0,17323,0
15450,-1114,-8122,864,-49,13,6,32300,-6,-3,993,288,36714,81,25,144,0,0,0,0,0,0,0,0,-32295,0,0,0,4596,0,17343,0
15460,-1120,-8100,838,-46,17,14,32300,-8,3,1000,280,36717,86,25,144,0,0,0,0,0,0,0,0,-32295,0,0,0,4597,0,17363,0
15470,-1152,-8104,876,-45,13,16,32300,0,0,1000,280,36715,91,25,144,0,0,0,0,0,0,0,0,-32295,0,0,0,4597,0,17383,0
15480,-1182,-8134,876,-48,17,13,32300,-4,-1,997,288,36714,90,25,144,0,0,0,0,0,0,0,0,-32295,0,0,0,4597,0,17402,0
15490,-1124,-8092,890,-51,15,11,32299,-3,2,999,288,36713,89,25,144,0,0,0,0,0,0,0,0,-32295,0,0,0,4598,0,17422,0
15500,-1158,-8130,912,-47,12,19,32301,-1,1,999,264,36710,83,25,144,0,0,0,0,0,0,0,0,-32295,0,0,0,4597,0,17442,0
15510,-1212,-8094,900,-48,19,19,32301,0,0,998,280,36710,77,25,144,0,0,0,0,0,0,0,0,-32295,0,0,0,4598,0,17462,0
15520,-1222,-8110,890,-47,16,17,32301,0,10,991,272,36712,80,25,144,0,0,0,0,0,0,0,0,-32295,0,0,0,4597,0,17482,0
15530,-1186,-8116,886,-45,10,17,32301,2,0,999,288,36720,70,25,144,0,0,0,0,0,0,0,0,-32295,0,0,0,4597,0,17502,0
15540,-1240,-8108,878,-43,14,21,32302,-2,1,1000,264,36720,68,25,144,0,0,0,0,0,0,0,0,-32295,0,0,0,4598,0,17522,0
15550,-1164,-8098,888,-42,17,11,32301,-3,-1,1004,280,36719,64,25,144,0,0,0,0,0,0,0,0,-32295,0,0,0,4598,0,17542,0
15560,-1210,-8094,910,-44,13,17,32302,-2,0,1003,272,36713,72,25,144,0,0,0,0,0,0,0,0,-32295,0,0,0,4598,0,17562,0
15570,-1184,-8098,916,-46,12,11,32302,6,-3,995,272,36714,74,25,144,0,0,0,0,0,0,0,0,-32295,0,0,0,4596,0,17582,0
15580,-1228,-8084,918,-48,13,9,32301,-1,1,996,288,36714,77,25,144,0,0,0,0,0,0,0,0,-32295,0,0,0,4597,0,17601,0
15590,-1188,-8130,942,-52,18,6,32302,-5,0,999,280,36713,78,25,144,0,0,0,0,0,0,0,0,-32295,0,0,0,4596,0,17621,0
15600,-1160,-8114,920,-55,14,2,32302,0,4,997,280,36713,85,25,144,0,0,0,0,0,0,0,0,-32295,0,0,0,4597,0,17641,0
15610,-1244,-8128,898,-51,12,1,32303,4,-5,996,272,36715,86,25,144,0,0,0,0,0,0,0,0,-32295,0,0,0,4597,0,17661,0
15620,-1200,-8140,906,-52,13,4,32303,3,-3,999,288,36715,86,25,144,0,0,0,0,0,0,0,0,-32295,0,0,0,4597,0,17681,0
15630,-1132,-8094,876,-53,15,10,32302,1,0,998,272,36716,85,25,144,0,0,0,0,0,0,0,0,-32295,0,0,0,4598,0,17701,0
15640,-1144,-8110,850,-50,10,9,32302,-1,1,998,280,36723,91,25,144,0,0,0,0,0,0,0,0,-32295,0,0,0,4598,0,17721,0
15650,-1128,-8092,860,-45,11,8,32303,1,1,996,288,36725,86,25,144,0,0,0,0,0,0,0,0,-32295,0,0,0,4598,0,17741,0
15660,-1164,-8102,848,-44,14,14,32302,0,0,1002,280,36727,81,25,144,0,0,0,0,0,0,0,0,-32295,0,0,0,4598,0,17761,0
15670,-1174,-8100,896,-42,20,12,32302,-2,-2,1002,280,36720,67,25,144,0,0,0,0,0,0,0,0,-32295,0,0,0,4597,0,17781,0
15680,-1206,-8094,896,-44,18,11,32303,2,-1,999,296,36716,68,25,144,0,0,0,0,0,0,0,0,-32295,0,0,0,4598,0,17801,0
15690,-1168,-8106,920,-46,13,12,32302,-1,5,1000,272,36715,72,25,144,0,0,0,0,0,0,0,0,-32295,0,0,0,4597,0,17821,0
15700,-1194,-8108,904,-53,12,9,32304,9,6,998,272,36716,70,25,144,0,0,0,0,0,0,0,0,-32295,0,0,0,4598,0,17841,0
15710,-1238,-8100,880,-54,14,8,32303,2,2,1002,280,36717,77,25,144,0,0,0,0,0,0,0,0,-32295,0,0,0,4598,0,17861,0
15720,-1224,-8116,864,-51,14,8,32302,-6,-3,999,296,36718,68,25,144,0,0,0,0,0,0,0,0,-32295,0,0,0,4597,0,17881,0
15730,-1170,-8144,884,-53,19,11,32303,4,1,994,288,36719,74,25,144,0,0,0,0,0,0,0,0,-32295,0,0,0,4598,0,17901,0
15740,-1168,-8100,878,-49,13,13,32304,2,3,997,288,36722,74,25,144,0,0,0,0,0,0,0,0,-32295,0,0,0,4597,0,17921,0
15750,-1142,-8116,856,-49,18,15,32304,-2,0,1000,296,36722,83,25,144,0,0,0,0,0,0,0,0,-32295,0,0,0,4598,0,17941,0
15760,-1180,-8088,888,-49,12,9,32305,-3,0,1003,288,36723,83,25,144,0,0,0,0,0,0,0,0,-32295,0,0,0,4598,0,17962,0
15770,-1200,-8094,892,-50,15,6,32304,-3,-1,997,296,36719,80,25,144,0,0,0,0,0,0,0,0,-32295,0,0,0,4597,0,17982,0
15780,-1230,-8120,896,-45,15,14,32302,-5,-3,999,296,36723,82,25,144,0,0,0,0,0,0,0,0,-32295,0,0,0,4598,0,18002,0
15790,-1140,-8124,900,-52,13,7,32305,1,6,999,288,36724,79,25,144,0,0,0,0,0,0,0,0,-32295,0,0,0,4598,0,18022,0
15800,-1212,-8122,890,-54,13,7,32305,3,1,997,280,36720,76,25,144,0,0,0,0,0,0,0,0,-32296,0,0,0,4598,0,18042,0
15810,-1202,-8098,870,-51,13,9,32304,0,-1,995,272,36718,74,25,144,0,0,0,0,0,0,0,0,-32295,0,0,0,4598,0,18062,0
15820,-1204,-8118,876,-52,17,11,32306,9,1,998,288,36719,78,25,144,0,0,0,0,0,0,0,0,-32295,0,0,0,4597,0,18082,0
15830,-1154,-8102,884,-52,14,8,32305,0,0,998,288,36721,82,25,144,0,0,0,0,0,0,0,0,-32295,0,0,0,4598,0,18102,0
15840,-1182,-8124,858,-48,12,7,32305,0,3,1001,288,36722,78,25,144,0,0,0,0,0,0,0,0,-32295,0,0,0,4598,0,18122,0
15850,-1176,-8090,900,-54,15,13,32305,6,-1,999,280,36729,74,25,144,0,0,0,0,0,0,0,0,-32296,0,0,0,4598,0,18142,0
15860,-1168,-8090,854,-51,17,3,32304,-2,-1,996,280,36731,74,25,144,0,0,0,0,0,0,0,0,-32295,0,0,0,4597,0,18162,0
15870,-1184,-8114,878,-48,19,5,32304,-1,-1,1001,280,36736,77,25,144,0,0,0,0,0,0,0,0,-32295,0,0,0,4598,0,18182,0
15880,-1196,-8142,914,-47,15,8,32305,3,-4,999,288,36737,72,25,144,0,0,0,0,0,0,0,0,-32295,0,0,0,4597,0,18202,0
15890,-1170,-8110,894,-49,16,8,32305,-6,-2,1001,280,36748,78,25,144,0,0,0,0,0,0,0,0,-32295,0,0,0,4598,0,18222,0
15900,-1214,-8112,898,-49,18,-2,32306,2,-4,1004,288,36751,79,25,144,0,0,0,0,0,0,0,0,-32295,0,0,0,4598,0,18242,0
15910,-1216,-8112,908,-45,12,8,32304,2,-2,994,280,36740,79,25,144,0,0,0,0,0,0,0,0,-32295,0,0,0,4598,0,18262,0
15920,-1210,-8124,904,-52,13,6,32305,2,-1,995,288,36730,73,25,144,0,0,0,0,0,0,0,0,-32295,0,0,0,4598,0,18282,0
15930,-1180,-8120,904,-51,12,3,32304,-2,1,997,280,36725,75,25,144,0,0,0,0,0,0,0,0,-32295,0,0,0,4598,0,18302,0
15940,-1190,-8090,882,-51,20,10,32304,1,2,996,288,36722,81,25,144,0,0,0,0,0,0,0,0,-32295,0,0,0,4597,0,18322,0
15950,-1180,-8116,866,-53,12,9,32305,11,4,1002,296,36733,90,25,144,0,0,0,0,0,0,0,0,-32295,0,0,0,4598,0,18342,0
15960,-1176,-8114,886,-50,16,10,32304,0,-1,999,280,36735,90,25,144,0,0,0,0,0,0,0,0,-32295,0,0,0,4598,0,18362,0
15970,-1166,-8098,892,-48,20,4,32304,-2,2,998,296,36736,84,25,144,0,0,0,0,0,0,0,0,-32296,0,0,0,4598,0,18382,0
15980,-1106,-8138,886,-53,17,7,32305,5,0,1001,304,36725,83,25,144,0,0,0,0,0,0,0,0,-32295,0,0,0,4598,0,18402,0
15990,-1170,-8088,908,-56,13,14,32305,8,-3,997,280,36724,80,25,144,0,0,0,0,0,0,0,0,-32296,0,0,0,4598,0,18422,0
16000,-1156,-8082,886,-49,15,9,32304,2,-3,995,280,36725,79,25,144,0,0,0,0,0,0,0,0,-32295,0,0,0,4598,0,18442,0
16010,-1196,-8134,862,-52,15,13,32305,1,-2,999,272,36724,74,25,144,0,0,0,0,0,0,0,0,-32295,0,0,0,4597,0,18462,0
16020,-1190,-8096,858,-53,14,14,32305,7,1,997,296,36722,74,25,144,0,0,0,0,0,0,0,0,-32295,0,0,0,4597,0,18482,0
16030,-1168,-8124,888,-51,19,12,32305,5,2,999,280,36722,72,25,144,0,0,0,0,0,0,0,0,-32295,0,0,0,4598,0,18502,0
16040,-1212,-8124,892,-47,14,14,32304,0,0,997,288,36722,75,25,144,0,0,0,0,0,0,0,0,-32295,0,0,0,4597,0,18522,0
16050,-1200,-8070,892,-47,9,13,32305,2,2,997,288,36729,65,25,144,0,0,0,0,0,0,0,0,-32295,0,0,0,4598,0,18542,0
16060,-1210,-8110,914,-45,10,9,32305,-7,-3,997,272,36731,71,25,144,0,0,0,0,0,0,0,0,-32295,0,0,0,4597,0,18562,0
16070,-1182,-8122,928,-48,14,11,32305,-4,5,1001,288,36729,70,25,144,0,0,0,0,0,0,0,0,-32295,0,0,0,4598,0,18582,0
16080,-1160,-8094,900,-52,15,8,32305,-1,-3,1002,288,36723,85,25,144,0,0,0,0,0,0,0,0,-32295,0,0,0,4598,0,18602,0
16090,-1192,-8112,886,-50,15,7,32305,1,3,997,296,36720,80,25,144,0,0,0,0,0,0,0,0,-32295,0,0,0,4598,0,18622,0
16100,-1182,-8116,894,-52,19,7,32306,1,0,1000,296,36722,82,25,144,0,0,0,0,0,0,0,0,-32295,0,0,0,4598,0,18642,0
16110,-1210,-8098,878,-53,10,2,32306,-1,-1,996,288,36724,83,25,144,0,0,0,0,0,0,0,0,-32295,0,0,0,4597,0,18662,0
16120,-1224,-8102,896,-48,14,7,32306,1,-4,996,280,36723,86,25,144,0,0,0,0,0,0,0,0,-32295,0,0,0,4597,0,18682,0
16130,-1172,-8088,872,-51,12,10,32304,-4,10,996,288,36723,89,25,144,0,0,0,0,0,0,0,0,-32295,0,0,0,4598,0,18702,0
16140,-1214,-8094,906,-43,13,12,32305,-2,0,998,296,36722,81,25,144,0,0,0,0,0,0,0,0,-32295,0,0,0,4597,0,18722,0
16150,-1146,-8094,892,-48,14,9,32305,-1,1,998,280,36729,74,25,144,0,0,0,0,0,0,0,0,-32295,0,0,0,4598,0,18742,0
16160,-1154,-8110,894,-43,11,2,32305,-3,1,997,280,36729,70,25,144,0,0,0,0,0,0,0,0,-32295,0,0,0,4597,0,18762,0
16170,-1172,-8144,902,-51,15,6,32304,-9,-2,998,296,36726,71,25,144,0,0,0,0,0,0,0,0,-32295,0,0,0,4598,0,18782,0
16180,-1186,-8132,888,-47,10,-1,32306,0,-2,1001,304,36724,70,25,144,0,0,0,0,0,0,0,0,-32295,0,0,0,4599,0,18802,0
16190,-1172,-8110,876,-46,9,6,32307,8,-3,1001,280,36719,73,25,144,0,0,0,0,0,0,0,0,-32295,0,0,0,4598,0,18822,0
16200,-1176,-8114,870,-49,18,6,32306,-1,0,996,288,36721,70,25,144,0,0,0,0,0,0,0,0,-32295,0,0,0,4598,0,18842,0
16210,-1188,-8110,868,-43,15,7,32304,-2,0,997,280,36719,71,25,144,0,0,0,0,0,0,0,0,-32295,0,0,0,4598,0,18862,0
16220,-1196,-8140,860,-50,14,9,32305,-4,-1,993,288,36718,70,25,144,0,0,0,0,0,0,0,0,-32295,0,0,0,4598,0,18882,0
16230,-1174,-8102,910,-44,14,16,32306,2,0,1000,296,36719,72,25,144,0,0,0,0,0,0,0,0,-32295,0,0,0,4598,0,18902,0
16240,-1226,-8070,904,-46,15,14,32305,-3,2,1002,280,36718,72,25,144,0,0,0,0,0,0,0,0,-32295,0,0,0,4598,0,18922,0
16250,-1222,-8104,920,-53,10,8,32305,0,6,996,280,36722,80,25,144,0,0,0,0,0,0,0,0,-32295,0,0,0,4596,0,18942,0
16260,-1162,-8132,914,-45,12,7,32306,1,0,996,280,36723,78,25,144,0,0,0,0,0,0,0,0,-32295,0,0,0,4598,0,18962,0
16270,-1176,-8076,920,-48,10,6,32307,1,-4,996,296,36722,83,25,144,0,0,0,0,0,0,0,0,-32295,0,0,0,4598,0,18982,0
16280,-1202,-8100,912,-50,12,-4,32306,0,6,1004,288,36720,82,25,144,0,0,0,0,0,0,0,0,-32295,0,0,0,4597,0,19002,0
16290,-1136,-8128,904,-54,9,3,32306,-3,-3,1000,280,36716,78,25,144,0,0,0,0,0,0,0,0,-32295,0,0,0,4598,0,19022,0
16300,-1142,-8102,834,-45,10,7,32306,-8,-4,996,296,36717,81,25,144,0,0,0,0,0,0,0,0,-32295,0,0,0,4598,0,19042,0
16310,-1194,-8118,846,-48,11,11,32306,6,-1,998,280,36716,83,25,144,0,0,0,0,0,0,0,0,-32295,0,0,0,4598,0,19062,0
16320,-1192,-8136,902,-44,8,10,32307,9,3,995,288,36715,82,25,144,0,0,0,0,0,0,0,0,-32295,0,0,0,4598,0,19082,0
16330,-1170,-8098,908,-43,12,8,32307,0,0,998,288,36713,78,25,144,0,0,0,0,0,0,0,0,-32295,0,0,0,4598,0,19102,0
16340,-1192,-8114,906,-51,13,10,32308,2,0,1003,288,36714,77,25,144,0,0,0,0,0,0,0,0,-32295,0,0,0,4598,0,19122,0
16350,-1178,-8120,890,-47,12,7,32306,-4,-1,998,296,36714,77,25,144,0,0,0,0,0,0,0,0,-32295,0,0,0,4598,0,19142,0
16360,-1202,-8092,908,-50,17,6,32307,0,-7,1002,280,36718,73,25,144,0,0,0,0,0,0,0,0,-32295,0,0,0,4598,0,19162,0
16370,-1194,-8102,886,-51,18,8,32306,-2,2,995,296,36717,76,25,144,0,0,0,0,0,0,0,0,-32295,0,0,0,4598,0,19182,0
16380,-1222,-8122,876,-54,14,2,32308,8,0,998,280,36718,85,25,144,0,0,0,0,0,0,0,0,-32295,0,0,0,4598,0,19202,0
16390,-1228,-8100,898,-48,14,5,32306,3,2,1002,280,36714,87,25,144,0,0,0,0,0,0,0,0,-32295,0,0,0,4598,0,19222,0
16400,-1190,-8112,894,-46,11,3,32306,0,1,996,288,36713,86,25,144,0,0,0,0,0,0,0,0,-32295,0,0,0,4597,0,19242,0
16410,-1194,-8090,912,-48,13,8,32307,0,-1,999,280,36712,83,25,144,0,0,0,0,0,0,0,0,-32295,0,0,0,4598,0,19262,0
16420,-1234,-8090,890,-44,9,8,32307,3,-3,994,288,36712,80,25,144,0,0,0,0,0,0,0,0,-32295,0,0,0,4598,0,19282,0
16430,-1172,-8120,906,-49,13,5,32306,5,4,1001,288,36711,89,25,144,0,0,0,0,0,0,0,0,-32295,0,0,0,4598,0,19302,0
16440,-1234,-8120,932,-48,15,9,32307,3,2,1000,272,36712,83,25,144,0,0,0,0,0,0,0,0,-32295,0,0,0,4597,0,19322,0
16450,-1128,-8118,912,-47,18,5,32306,0,0,999,288,36712,69,25,144,0,0,0,0,0,0,0,0,-32295,0,0,0,4598,0,19342,0
16460,-1128,-8102,884,-54,13,2,32307,0,1,1000,272,36713,71,25,144,0,0,0,0,0,0,0,0,-32295,0,0,0,4597,0,19362,0
16470,-1184,-8092,866,-47,7,6,32306,-1,2,994,288,36712,78,25,144,0,0,0,0,0,0,0,0,-32295,0,0,0,4598,0,19382,0
16480,-1198,-8120,846,-49,15,3,32305,0,-4,1003,296,36710,83,25,144,0,0,0,0,0,0,0,0,-32295,0,0,0,4599,0,19402,0
16490,-1214,-8112,898,-50,15,4,32307,0,-1,997,280,36709,76,25,144,0,0,0,0,0,0,0,0,-32295,0,0,0,4597,0,19422,0
16500,-1190,-8120,918,-49,16,2,32306,0,-4,996,288,36711,78,25,144,0,0,0,0,0,0,0,0,-32295,0,0,0,4598,0,19442,0
16510,-1174,-8102,884,-49,19,6,32305,-2,4,999,280,36712,75,25,144,0,0,0,0,0,0,0,0,-32295,0,0,0,4599,0,19462,0
16520,-1250,-8118,904,-50,16,7,32307,-1,-3,996,288,36713,77,25,144,0,0,0,0,0,0,0,0,-32295,0,0,0,4598,0,19482,0
16530,-1192,-8126,870,-53,14,7,32307,1,0,999,288,36712,77,25,144,0,0,0,0,0,0,0,0,-32295,0,0,0,4599,0,19502,0
16540,-1180,-8096,890,-51,15,9,32307,2,2,999,288,36711,78,25,144,0,0,0,0,0,0,0,0,-32295,0,0,0,4598,0,19522,0
16550,-1190,-8078,894,-49,15,14,32306,1,-1,998,296,36710,73,25,144,0,0,0,0,0,0,0,0,-32295,0,0,0,4598,0,19542,0
16560,-1184,-8112,894,-51,12,9,32307,-6,-2,998,296,36712,75,25,144,0,0,0,0,0,0,0,0,-32295,0,0,0,4599,0,19562,0
16570,-1184,-8116,882,-48,15,10,32307,-2,-7,999,296,36720,87,25,144,0,0,0,0,0,0,0,0,-32295,0,0,0,4598,0,19582,0
16580,-1200,-8088,896,-48,15,13,32306,-1,0,998,296,36719,88,25,144,0,0,0,0,0,0,0,0,-32295,0,0,0,4598,0,19602,0
16590,-1198,-8126,884,-47,11,10,32306,-1,3,1002,288,36716,84,25,144,0,0,0,0,0,0,0,0,-32295,0,0,0,4598,0,19622,0
16600,-1162,-8094,922,-49,14,9,32307,-2,6,1001,288,36715,88,25,144,0,0,0,0,0,0,0,0,-32295,0,0,0,4598,0,19642,0
16610,-1206,-8072,912,-52,14,10,32308,10,-1,1001,280,36714,81,25,144,0,0,0,0,0,0,0,0,-32295,0,0,0,4598,0,19662,0
16620,-1232,-8098,910,-56,12,5,32306,-3,-2,994,288,36716,78,25,144,0,0,0,0,0,0,0,0,-32295,0,0,0,4598,0,19682,0
16630,-1154,-8098,894,-56,14,4,32306,-11,3,998,288,36714,76,25,144,0,0,0,0,0,0,0,0,-32295,0,0,0,4598,0,19702,0
16640,-1152,-8118,902,-51,18,6,32306,-3,0,1002,280,36713,81,25,144,0,0,0,0,0,0,0,0,-32295,0,0,0,4598,0,19722,0
16650,-1178,-8108,876,-57,13,7,32308,9,3,998,288,36714,76,25,144,0,0,0,0,0,0,0,0,-32295,0,0,0,4598,0,19742,0
16660,-1156,-8126,864,-51,13,2,32308,6,-7,997,296,36718,71,25,144,0,0,0,0,0,0,0,0,-32295,0,0,0,4599,0,19762,0
16670,-1180,-8074,878,-42,16,2,32307,9,0,1000,280,36719,69,25,144,0,0,0,0,0,0,0,0,-32295,0,0,0,4598,0,19782,0
16680,-1140,-8122,890,-50,16,5,32307,0,0,998,296,36722,86,25,144,0,0,0,0,0,0,0,0,-32295,0,0,0,4600,0,19802,0
16690,-1222,-8104,890,-47,10,9,32306,-5,-3,1000,280,36722,85,25,144,0,0,0,0,0,0,0,0,-32295,0,0,0,4598,0,19822,0
16700,-1200,-8088,906,-53,11,6,32308,5,7,997,272,36722,90,25,144,0,0,0,0,0,0,0,0,-32295,0,0,0,4599,0,19842,0
16710,-1210,-8120,888,-48,7,1,32306,-3,-2,997,280,36720,83,25,144,0,0,0,0,0,0,0,0,-32295,0,0,0,4598,0,19862,0
16720,-1216,-8090,918,-45,10,-5,32307,2,-1,997,280,36716,83,25,144,0,0,0,0,0,0,0,0,-32295,0,0,0,4598,0,19882,0
16730,-1174,-8124,902,-53,10,2,32305,-11,-3,994,296,36715,85,25,144,0,0,0,0,0,0,0,0,-32295,0,0,0,4598,0,19902,0
16740,-1176,-8138,894,-56,13,1,32307,1,1,999,288,36716,82,25,144,0,0,0,0,0,0,0,0,-32295,0,0,0,4598,0,19922,0
16750,-1112,-8082,884,-52,12,3,32307,1,-4,995,272,36719,75,25,144,0,0,0,0,0,0,0,0,-32295,0,0,0,4597,0,19942,0
16760,-1128,-8096,896,-53,8,3,32307,-1,2,996,288,36717,77,25,144,0,0,0,0,0,0,0,0,-32295,0,0,0,4598,0,19962,0
16770,-1158,-8118,876,-48,17,4,32307,-1,-2,997,280,36716,81,25,144,0,0,0,0,0,0,0,0,-32295,0,0,0,4598,0,19982,0
16780,-1164,-8102,874,-44,14,7,32307,3,1,1002,304,36716,85,25,144,0,0,0,0,0,0,0,0,-32295,0,0,0,4599,0,20003,0
16790,-1188,-8128,892,-48,12,7,32307,0,1,1001,280,36726,83,25,144,0,0,0,0,0,0,0,0,-32295,0,0,0,4598,0,20023,0
16800,-1190,-8106,924,-44,13,10,32307,2,1,999,288,36728,79,25,144,0,0,0,0,0,0,0,0,-32295,0,0,0,4598,0,20043,0
16810,-1210,-8104,902,-49,12,8,32306,-7,3,1000,280,36725,74,25,144,0,0,0,0,0,0,0,0,-32295,0,0,0,4599,0,20063,0
16820,-1172,-8074,896,-48,13,10,32306,5,0,994,288,36721,66,25,144,0,0,0,0,0,0,0,0,-32295,0,0,0,4598,0,20083,0
16830,-1178,-8094,878,-53,15,8,32306,-2,-1,999,288,36719,73,25,144,0,0,0,0,0,0,0,0,-32295,0,0,0,4598,0,20103,0
16840,-1234,-8140,872,-50,12,6,32307,1,3,1000,296,36719,70,25,144,0,0,0,0,0,0,0,0,-32295,0,0,0,4598,0,20123,0
16850,-1178,-8124,916,-46,12,1,32307,-6,5,998,272,36719,65,25,144,0,0,0,0,0,0,0,0,-32295,0,0,0,4597,0,20143,0
16860,-1166,-8104,898,-52,16,-2,32306,2,-4,996,288,36723,66,25,144,0,0,0,0,0,0,0,0,-32295,0,0,0,4598,0,20163,0
16870,-1182,-8132,890,-47,15,3,32307,-1,-5,996,280,36727,75,25,144,0,0,0,0,0,0,0,0,-32295,0,0,0,4598,0,20183,0
16880,-1206,-8096,892,-47,13,5,32307,0,1,997,296,36725,77,25,144,0,0,0,0,0,0,0,0,-32295,0,0,0,4598,0,20203,0
16890,-1164,-8098,896,-53,10,8,32306,-5,0,1001,272,36728,75,25,144,0,0,0,0,0,0,0,0,-32295,0,0,0,4598,0,20223,0
16900,-1198,-8128,856,-51,19,5,32307,4,2,999,288,36728,81,25,144,0,0,0,0,0,0,0,0,-32295,0,0,0,4598,0,20243,0
16910,-1184,-8120,860,-55,12,9,32306,-5,-2,1000,296,36729,84,25,144,0,0,0,0,0,0,0,0,-32295,0,0,0,4598,0,20263,0
16920,-1190,-8106,862,-41,12,7,32307,8,1,999,288,36731,86,25,144,0,0,0,0,0,0,0,0,-32295,0,0,0,4598,0,20283,0
16930,-1192,-8128,880,-48,15,7,32307,-3,0,994,296,36725,84,25,144,0,0,0,0,0,0,0,0,-32295,0,0,0,4599,0,20303,0
16940,-1188,-8112,894,-49,14,4,32307,1,4,1000,280,36724,85,25,144,0,0,0,0,0,0,0,0,-32295,0,0,0,4598,0,20323,0
16950,-1142,-8100,896,-46,12,5,32308,-3,2,999,288,36724,75,25,144,0,0,0,0,0,0,0,0,-32295,0,0,0,4599,0,20343,0
16960,-1152,-8142,916,-49,15,3,32307,7,3,998,280,36724,71,25,144,0,0,0,0,0,0,0,0,-32295,0,0,0,4597,0,20363,0
16970,-1218,-8110,904,-45,10,-2,32306,-3,6,997,280,36724,78,25,144,0,0,0,0,0,0,0,0,-32295,0,0,0,4598,0,20383,0
16980,-1204,-8120,908,-52,13,-2,32308,7,-1,994,288,36724,81,25,144,0,0,0,0,0,0,0,0,-32295,0,0,0,4598,0,20403,0
16990,-1168,-8090,900,-56,11,-3,32306,1,0,1001,288,36729,72,25,144,0,0,0,0,0,0,0,0,-32295,0,0,0,4597,0,20423,0
17000,-1178,-8124,906,-46,16,-3,32306,0,-1,997,296,36731,70,25,144,0,0,0,0,0,0,0,0,-32295,0,0,0,4598,0,20443,0
17010,-1206,-8066,880,-50,8,1,32305,-2,-1,998,280,36733,74,25,144,0,0,0,0,0,0,0,0,-32295,0,0,0,4596,0,20463,0
17020,-1194,-8126,878,-54,13,2,32306,0,-3,996,288,36732,79,25,144,0,0,0,0,0,0,0,0,-32295,0,0,0,4598,0,20483,0
17030,-1138,-8104,892,-52,13,9,32306,-2,2,1000,296,36722,76,25,144,0,0,0,0,0,0,0,0,-32295,0,0,0,4598,0,20503,0
17040,-1160,-8082,882,-52,18,5,32306,0,-8,1001,280,36722,70,25,144,0,0,0,0,0,0,0,0,-32295,0,0,0,4598,0,20523,0
17050,-1176,-8122,888,-48,14,9,32305,0,3,1000,296,36723,84,25,144,0,0,0,0,0,0,0,0,-32295,0,0,0,4597,0,20543,0
17060,-1154,-8090,882,-49,15,13,32308,8,0,1003,280,36726,85,25,144,0,0,0,0,0,0,0,0,-32295,0,0,0,4598,0,20563,0
17070,-1216,-8086,874,-50,16,11,32307,3,8,1000,288,36727,83,25,144,0,0,0,0,0,0,0,0,-32295,0,0,0,4598,0,20583,0
17080,-1202,-8132,870,-47,10,6,32307,3,4,996,296,36724,83,25,144,0,0,0,0,0,0,0,0,-32295,0,0,0,4598,0,20603,0
17090,-1194,-8114,892,-48,8,9,32306,-7,1,1000,288,36722,85,25,144,0,0,0,0,0,0,0,0,-32295,0,0,0,4598,0,20623,0
17100,-1218,-8092,870,-50,16,8,32307,1,3,998,296,36720,82,25,144,0,0,0,0,0,0,0,0,-32295,0,0,0,4597,0,20643,0
17110,-1216,-8104,868,-49,11,9,32306,3,-1,1001,280,36721,75,25,144,0,0,0,0,0,0,0,0,-32295,0,0,0,4598,0,20663,0
17120,-1168,-8098,920,-46,11,6,32307,0,-1,995,280,36721,69,25,144,0,0,0,0,0,0,0,0,-32295,0,0,0,4598,0,20683,0
17130,-1170,-8126,922,-48,18,4,32305,-5,-2,993,288,36719,74,25,144,0,0,0,0,0,0,0,0,-32296,0,0,0,4598,0,20703,0
17140,-460,-8272,938,-47,14,-4,32301,-35,-7,737,0,36719,74,25,144,0,0,0,0,0,0,0,0,-32295,0,0,0,4597,0,20723,0
17150,-2238,-7706,570,-33,89,-170,32222,-180,-149,311,0,36722,75,25,144,0,0,0,0,0,0,0,0,-32295,0,0,0,4595,0,20743,0
17160,-1948,-7830,842,-19,174,-181,32158,-114,-119,218,0,36737,76,25,144,0,0,0,0,0,0,0,0,-32295,0,0,0,4589,0,20763,0
17170,-878,-8180,948,-16,159,-173,32118,-84,83,160,0,36739,80,25,144,0,0,0,0,0,0,0,0,-32295,0,0,0,4585,0,20783,0
17180,-530,-8156,1090,-49,28,-62,32094,-41,70,93,0,36736,82,25,144,0,0,0,0,0,0,0,0,-32295,0,0,0,4582,0,20804,0
17190,-790,-8096,1012,-58,-26,-30,32072,-48,36,94,0,36724,93,25,144,0,0,0,0,0,0,0,0,-32295,0,0,0,4581,0,20823,0
17200,-1442,-8038,772,-53,10,-18,32057,-19,11,58,0,36730,77,25,144,0,0,0,0,0,0,0,0,-32295,0,0,0,4580,0,20843,0
17210,-1264,-8086,826,-41,32,-17,32055,-5,37,-1,0,36732,67,25,144,0,0,0,0,0,0,0,0,-32295,0,0,0,4580,0,20863,0
17220,-928,-8138,978,-43,28,-13,32055,0,26,7,0,36730,65,25,144,0,0,0,0,0,0,0,0,-32295,0,0,0,4580,0,20883,0
17230,-958,-8116,1036,-51,4,11,32052,-4,-6,11,0,36726,67,25,144,0,0,0,0,0,0,0,0,-32295,0,0,0,4580,0,20903,0
17240,-1196,-8126,890,-59,-6,21,32051,1,6,0,0,36721,71,25,144,0,0,0,0,0,0,0,0,-32295,0,0,0,4579,0,20923,0
17250,-1306,-8096,812,-60,5,10,32051,-3,10,0,0,36720,58,25,144,0,0,0,0,0,0,0,0,-32295,0,0,0,4579,0,20943,0
17260,-1202,-8088,794,-51,27,-5,32052,0,-5,-1,0,36721,45,25,144,0,0,0,0,0,0,0,0,-32295,0,0,0,4580,0,20963,0
17270,-1120,-8126,874,-42,18,-5,32050,-6,3,3,0,36722,51,25,144,0,0,0,0,0,0,0,0,-32295,0,0,0,4580,0,20983,0
17280,-1106,-8108,916,-45,7,3,32049,-3,-2,4,0,36722,66,25,144,0,0,0,0,0,0,0,0,-32295,0,0,0,4579,0,21003,0
17290,-1218,-8108,886,-46,1,-2,32049,-1,-3,0,0,36721,72,25,144,0,0,0,0,0,0,0,0,-32294,0,0,0,4579,0,21023,0
17300,-1228,-8122,924,-43,14,-8,32047,-7,-3,1,0,36718,67,25,144,0,0,0,0,0,0,0,0,-32295,0,0,0,4579,0,21043,0
17310,-1184,-8096,932,-49,22,-10,32047,-8,-4,3,0,36725,71,25,144,0,0,0,0,0,0,0,0,-32295,0,0,0,4579,0,21063,0
17320,-1068,-8140,920,-50,19,-9,32046,6,1,8,0,36723,68,25,144,0,0,0,0,0,0,0,0,-32295,0,0,0,4579,0,21083,0
17330,-1080,-8120,896,-52,9,-2,32042,-2,-3,11,0,36723,64,25,144,0,0,0,0,0,0,0,0,-32295,0,0,0,4579,0,21103,0
17340,-1138,-8110,842,-47,15,2,32040,-12,-2,7,0,36719,66,25,144,0,0,0,0,0,0,0,0,-32295,0,0,0,4579,0,21123,0
17350,-1158,-8112,828,-53,10,9,32040,1,10,5,0,36721,71,25,144,0,0,0,0,0,0,0,0,-32295,0,0,0,4579,0,21143,0
17360,-1160,-8102,900,-43,17,7,32037,-7,-1,4,0,36719,67,25,144,0,0,0,0,0,0,0,0,-32295,0,0,0,4579,0,21163,0
17370,-1156,-8104,910,-40,14,9,32037,-8,1,6,0,36717,60,25,144,0,0,0,0,0,0,0,0,-32295,0,0,0,4579,0,21183,0
17380,-1146,-8112,934,-48,17,5,32033,-15,-4,8,0,36719,61,25,144,0,0,0,0,0,0,0,0,-32295,0,0,0,4579,0,21203,0
17390,-1218,-8134,910,-54,12,2,32031,-1,1,10,0,36719,64,25,144,0,0,0,0,0,0,0,0,-32294,0,0,0,4579,0,21223,0
17400,-1212,-8124,920,-49,21,-9,32027,-11,-5,17,0,36716,61,25,144,0,0,0,0,0,0,0,0,-32295,0,0,0,4578,0,21243,0
17410,-1214,-8114,878,-49,25,-23,32020,-19,-11,32,0,36715,63,25,144,0,0,0,0,0,0,0,0,-32294,0,0,0,4578,0,21263,0
17420,-1218,-8130,876,-49,35,-36,32005,-37,-19,56,0,36725,64,25,144,0,0,0,0,0,0,0,0,-32294,0,0,0,4577,0,21283,0
17430,-1224,-8094,888,-45,37,-34,31993,-21,-7,47,0,36727,73,25,144,0,0,0,0,0,0,0,0,-32294,0,0,0,4576,0,21303,0
17440,-1050,-8106,904,-45,19,-15,31991,-3,18,9,0,36727,70,25,144,0,0,0,0,0,0,0,0,-32295,0,0,0,4576,0,21323,0
17450,-982,-8156,918,-50,4,-6,31988,-11,25,1,0,36716,67,25,144,0,0,0,0,0,0,0,0,-32295,0,0,0,4575,0,21343,0
17460,-1138,-8106,896,-49,-3,6,31990,-2,3,0,0,36719,64,25,144,0,0,0,0,0,0,0,0,-32295,0,0,0,4575,0,21363,0
17470,-1188,-8106,858,-54,11,-4,31989,2,2,-2,0,36720,62,25,144,0,0,0,0,0,0,0,0,-32294,0,0,0,4575,0,21383,0
17480,-1148,-8130,902,-42,13,-2,31990,2,1,0,0,36718,61,25,144,0,0,0,0,0,0,0,0,-32294,0,0,0,4575,0,21403,0
17490,-1116,-8108,904,-44,19,3,31988,-1,1,0,0,36715,66,25,144,0,0,0,0,0,0,0,0,-32295,0,0,0,4576,0,21423,0
17500,-1124,-8116,906,-48,5,7,31987,0,-1,0,0,36714,70,25,144,0,0,0,0,0,0,0,0,-32295,0,0,0,4575,0,21443,0
17510,-1166,-8132,894,-52,7,5,31985,-12,-2,0,0,36715,66,25,144,0,0,0,0,0,0,0,0,-32294,0,0,0,4576,0,21463,0
17520,-1180,-8102,896,-49,11,2,31987,0,0,-1,0,36720,65,25,144,0,0,0,0,0,0,0,0,-32294,0,0,0,4575,0,21483,0
17530,-1156,-8120,898,-47,10,3,31985,-3,-1,2,0,36724,69,25,144,0,0,0,0,0,0,0,0,-32294,0,0,0,4576,0,21503,0
17540,-1114,-8120,908,-51,10,4,31985,-6,-3,1,0,36722,72,25,144,0,0,0,0,0,0,0,0,-32295,0,0,0,4575,0,21523,0
17550,-1126,-8124,900,-50,13,0,31983,-9,2,0,0,36715,67,25,144,0,0,0,0,0,0,0,0,-32295,0,0,0,4575,0,21543,0
17560,-1154,-8096,868,-52,10,-3,31983,-1,1,0,0,36713,71,25,144,0,0,0,0,0,0,0,0,-32294,0,0,0,4575,0,21563,0
17570,-1180,-8152,894,-53,7,4,31982,-1,2,0,0,36717,76,25,144,0,0,0,0,0,0,0,0,-32295,0,0,0,4575,0,21583,0
17580,-1158,-8102,886,-51,14,0,31983,2,2,0,0,36719,80,25,144,0,0,0,0,0,0,0,0,-32295,0,0,0,4575,0,21603,0
17590,-1142,-8108,890,-48,10,-1,31981,-1,-1,2,0,36718,69,25,144,0,0,0,0,0,0,0,0,-32295,0,0,0,4575,0,21623,0
17600,-1106,-8144,886,-52,6,2,31981,-3,-4,1,0,36715,64,25,144,0,0,0,0,0,0,0,0,-32295,0,0,0,4575,0,21643,0
17610,-1144,-8112,902,-50,9,0,31979,-1,0,4,0,36716,66,25,144,0,0,0,0,0,0,0,0,-32295,0,0,0,4575,0,21663,0
17620,-1150,-8096,904,-49,15,0,31977,-11,-1,2,0,36719,64,25,144,0,0,0,0,0,0,0,0,-32295,0,0,0,4573,0,21683,0
17630,-1122,-8130,876,-50,18,4,31977,-3,1,2,0,36719,60,25,144,0,0,0,0,0,0,0,0,-32294,0,0,0,4575,0,21703,0
17640,-1112,-8118,870,-53,17,6,31975,-5,-5,2,0,36719,64,25,144,0,0,0,0,0,0,0,0,-32295,0,0,0,4575,0,21723,0
17650,-1118,-8106,894,-48,13,12,31976,3,-1,0,0,36720,58,25,144,0,0,0,0,0,0,0,0,-32294,0,0,0,4575,0,21743,0
17660,-1160,-8126,886,-48,9,8,31976,2,3,0,0,36723,61,25,144,0,0,0,0,0,0,0,0,-32295,0,0,0,4575,0,21763,0
17670,-1134,-8120,872,-48,15,7,31976,4,-1,0,0,36725,61,25,144,0,0,0,0,0,0,0,0,-32295,0,0,0,4575,0,21783,0
17680,-1140,-8104,906,-50,19,8,31973,-6,3,-2,0,36723,64,25,144,0,0,0,0,0,0,0,0,-32295,0,0,0,4575,0,21806,0
17690,-1158,-8096,888,-43,12,7,31975,-2,-2,0,0,36718,70,25,144,0,0,0,0,0,0,0,0,-32295,0,0,0,4575,0,21829,0
17700,-1156,-8150,916,-52,10,10,31975,-2,3,0,0,36717,69,25,144,0,0,0,0,0,0,0,0,-32295,0,0,0,4573,0,21849,0
17710,-1176,-8102,922,-51,11,3,31973,4,-3,0,0,36719,72,25,144,0,0,0,0,0,0,0,0,-32294,0,0,0,4574,0,21869,0
17720,-1150,-8122,912,-52,10,4,31973,0,3,0,0,36721,75,25,144,0,0,0,0,0,0,0,0,-32295,0,0,0,4574,0,21889,0
17730,-1152,-8136,890,-46,14,-4,31972,-5,-4,1,0,36724,82,25,144,0,0,0,0,0,0,0,0,-32294,0,0,0,4573,0,21909,0
17740,-1112,-8132,902,-48,12,0,31970,-4,-7,3,0,36723,77,25,144,0,0,0,0,0,0,0,0,-32294,0,0,0,4575,0,21929,0
17750,-1114,-8104,880,-52,12,1,31970,-6,1,5,0,36724,78,25,144,0,0,0,0,0,0,0,0,-32295,0,0,0,4573,0,21949,0
17760,-1184,-8136,856,-53,12,4,31968,-6,-4,7,0,36722,78,25,144,0,0,0,0,0,0,0,0,-32295,0,0,0,4573,0,21969,0
17770,-1146,-8120,852,-50,15,3,31966,0,1,7,0,36720,72,25,144,0,0,0,0,0,0,0,0,-32295,0,0,0,4573,0,21989,0
17780,-1144,-8102,900,-47,18,-5,31962,-13,-1,13,0,36718,70,25,144,0,0,0,0,0,0,0,0,-32295,0,0,0,4573,0,22010,0
17790,-1162,-8118,876,-48,12,-14,31956,-13,-13,25,0,36721,74,25,144,0,0,0,0,0,0,0,0,-32295,0,0,0,4573,0,22030,0
17800,-1176,-8110,882,-48,25,-19,31946,-28,-7,43,0,36724,79,25,144,0,0,0,0,0,0,0,0,-32295,0,0,0,4572,0,22050,0
17810,-1210,-8098,870,-46,40,-26,31933,-34,-17,58,0,36723,68,25,144,0,0,0,0,0,0,0,0,-32295,0,0,0,4571,0,22070,0
17820,-1106,-8124,956,-47,36,-24,31924,-9,1,30,0,36722,68,25,144,0,0,0,0,0,0,0,0,-32295,0,0,0,4571,0,22090,0
17830,-1022,-8132,944,-47,16,-8,31922,-6,22,3,0,36725,82,25,144,0,0,0,0,0,0,0,0,-32295,0,0,0,4569,0,22110,0
17840,-1026,-8108,922,-56,-1,9,31922,0,15,3,0,36733,100,25,144,0,0,0,0,0,0,0,0,-32294,0,0,0,4571,0,22130,0
17850,-1134,-8130,884,-56,4,12,31922,1,3,-1,0,36732,102,25,144,0,0,0,0,0,0,0,0,-32294,0,0,0,4571,0,22150,0
17860,-1168,-8120,864,-52,16,11,31921,1,6,0,0,36731,100,25,144,0,0,0,0,0,0,0,0,-32294,0,0,0,4570,0,22170,0
17870,-1138,-8096,850,-46,17,8,31921,0,1,0,0,36728,95,25,144,0,0,0,0,0,0,0,0,-32294,0,0,0,4571,0,22190,0
17880,-1074,-8094,910,-47,17,12,31921,3,2,0,0,36731,104,25,144,0,0,0,0,0,0,0,0,-32294,0,0,0,4570,0,22210,0
17890,-1108,-8104,930,-47,10,10,31921,-3,1,-2,0,36728,105,25,144,0,0,0,0,0,0,0,0,-32294,0,0,0,4570,0,22230,0
17900,-1164,-8142,902,-45,11,13,31920,-5,5,-3,0,36724,96,25,144,0,0,0,0,0,0,0,0,-32294,0,0,0,4571,0,22250,0
17910,-1194,-8126,892,-50,14,6,31921,-1,8,-1,0,36724,90,25,144,0,0,0,0,0,0,0,0,-32295,0,0,0,4571,0,22270,0
17920,-1158,-8120,910,-46,16,6,31921,-2,0,0,0,36726,94,25,144,0,0,0,0,0,0,0,0,-32294,0,0,0,4571,0,22290,0
17930,-1156,-8132,886,-48,17,-1,31919,-3,1,-2,0,36727,96,25,144,0,0,0,0,0,0,0,0,-32295,0,0,0,4571,0,22310,0
17940,-1176,-8136,876,-46,14,7,31921,4,1,-3,0,36731,96,25,144,0,0,0,0,0,0,0,0,-32294,0,0,0,4571,0,22330,0
17950,-1166,-8106,906,-44,8,2,31921,9,1,-1,0,36734,97,25,144,0,0,0,0,0,0,0,0,-32295,0,0,0,4571,0,22350,0
17960,-1136,-8118,886,-56,11,3,31921,0,0,-1,0,36735,88,25,144,0,0,0,0,0,0,0,0,-32294,0,0,0,4571,0,22370,0
17970,-1108,-8120,898,-47,15,3,31920,-1,7,-2,0,36737,91,25,144,0,0,0,0,0,0,0,0,-32294,0,0,0,4571,0,22390,0
17980,-1112,-8098,886,-50,15,6,31920,1,3,0,0,36731,89,25,144,0,0,0,0,0,0,0,0,-32295,0,0,0,4569,0,22410,0
17990,-1112,-8128,886,-50,15,9,31920,-1,0,-1,0,36728,98,25,144,0,0,0,0,0,0,0,0,-32294,0,0,0,4571,0,22430,0
18000,-1136,-8116,888,-50,9,8,31919,0,2,-3,0,36728,96,25,144,0,0,0,0,0,0,0,0,-32295,0,0,0,4570,0,22450,0
18010,-1150,-8110,880,-49,14,9,31920,5,2,-3,0,36728,95,25,144,0,0,0,0,0,0,0,0,-32294,0,0,0,4570,0,22470,0
18020,-1156,-8130,908,-51,12,1,31920,7,-1,-2,0,36731,96,25,144,0,0,0,0,0,0,0,0,-32294,0,0,0,4571,0,22490,0
18030,-1128,-8100,868,-51,15,6,31918,0,4,-2,0,36729,98,25,144,0,0,0,0,0,0,0,0,-32295,0,0,0,4571,0,22510,0
18040,-1128,-8106,882,-49,11,0,31919,-5,-4,-2,0,36726,100,25,144,0,0,0,0,0,0,0,0,-32295,0,0,0,4570,0,22530,0
18050,-1128,-8106,906,-49,11,3,31920,2,6,0,0,36728,97,25,144,0,0,0,0,0,0,0,0,-32294,0,0,0,4571,0,22550,0
18060,-1100,-8128,900,-45,15,8,31918,-5,-1,0,0,36729,96,25,144,0,0,0,0,0,0,0,0,-32294,0,0,0,4569,0,22570,0
18070,-1130,-8104,916,-49,11,6,31917,-7,-3,-1,0,36730,88,25,144,0,0,0,0,0,0,0,0,-32294,0,0,0,4570,0,22590,0
18080,-1116,-8098,878,-54,8,14,31917,-12,2,-2,0,36728,93,25,144,0,0,0,0,0,0,0,0,-32294,0,0,0,4571,0,22610,0
18090,-1124,-8110,896,-49,11,8,31918,1,-1,-3,0,36727,97,25,144,0,0,0,0,0,0,0,0,-32294,0,0,0,4570,0,22630,0
18100,-1158,-8088,888,-45,15,8,31919,0,-2,-1,0,36726,101,25,144,0,0,0,0,0,0,0,0,-32294,0,0,0,4569,0,22650,0
18110,-1150,-8090,898,-50,18,17,31918,1,4,-1,0,36724,94,25,144,0,0,0,0,0,0,0,0,-32294,0,0,0,4570,0,22670,0
18120,-1146,-8124,884,-45,14,11,31920,4,2,-2,0,36724,93,25,144,0,0,0,0,0,0,0,0,-32294,0,0,0,4570,0,22690,0
18130,-1156,-8118,936,-49,16,8,31920,3,-1,-1,0,36724,97,25,144,0,0,0,0,0,0,0,0,-32294,0,0,0,4571,0,22710,0
18140,-1152,-8108,912,-48,14,5,31918,-5,-1,-4,0,36725,96,25,144,0,0,0,0,0,0,0,0,-32295,0,0,0,4571,0,22730,0
18150,-1128,-8106,924,-54,8,11,31918,-1,-5,-2,0,36729,95,25,144,0,0,0,0,0,0,0,0,-32295,0,0,0,4571,0,22750,0
18160,-1122,-8106,906,-48,15,7,31918,-3,-5,-2,0,36729,90,25,144,0,0,0,0,0,0,0,0,-32295,0,0,0,4570,0,22771,0
18170,-1138,-8114,900,-52,14,11,31917,-3,1,-1,0,36731,91,25,144,0,0,0,0,0,0,0,0,-32295,0,0,0,4571,0,22790,0
18180,-1126,-8102,896,-52,17,8,31919,6,2,-1,0,36721,91,25,144,0,0,0,0,0,0,0,0,-32294,0,0,0,4571,0,22810,0
18190,-1120,-8150,890,-48,12,5,31918,0,3,0,0,36718,94,25,144,0,0,0,0,0,0,0,0,-32295,0,0,0,4570,0,22830,0
18200,-1138,-8122,882,-56,15,7,31918,-3,-2,-1,0,36718,91,25,144,0,0,0,0,0,0,0,0,-32294,0,0,0,4570,0,22850,0
18210,-1120,-8118,904,-46,9,11,31918,2,2,-1,0,36720,94,25,144,0,0,0,0,0,0,0,0,-32295,0,0,0,4571,0,22870,0
18220,-1156,-8128,916,-46,14,14,31918,1,3,-1,0,36722,100,25,144,0,0,0,0,0,0,0,0,-32295,0,0,0,4571,0,22890,0
18230,-1134,-8104,914,-49,17,6,31918,0,-1,-1,0,36720,101,25,144,0,0,0,0,0,0,0,0,-32295,0,0,0,4571,0,22910,0
18240,-1150,-8112,872,-49,12,3,31917,-4,-4,-1,0,36719,99,25,144,0,0,0,0,0,0,0,0,-32294,0,0,0,4571,0,22930,0
18250,-1130,-8108,868,-52,14,6,31917,-1,4,1,0,36725,97,25,144,0,0,0,0,0,0,0,0,-32295,0,0,0,4570,0,22950,0
18260,-1120,-8086,884,-45,16,6,31918,2,3,-3,0,36731,103,25,144,0,0,0,0,0,0,0,0,-32294,0,0,0,4571,0,22970,0
18270,-1128,-8124,882,-49,13,4,31918,3,0,-2,0,36731,103,25,144,0,0,0,0,0,0,0,0,-32294,0,0,0,4571,0,22990,0
18280,-1142,-8134,912,-51,13,7,31917,-4,4,-1,0,36730,100,25,144,0,0,0,0,0,0,0,0,-32295,0,0,0,4570,0,23010,0
18290,-1128,-8106,916,-54,16,6,31918,0,1,-3,0,36718,91,25,144,0,0,0,0,0,0,0,0,-32294,0,0,0,4571,0,23030,0
18300,-1186,-8128,878,-47,11,11,31918,0,3,0,0,36717,94,25,144,0,0,0,0,0,0,0,0,-32295,0,0,0,4571,0,23050,0
18310,-1158,-8126,898,-47,10,6,31917,-3,1,0,0,36718,92,25,144,0,0,0,0,0,0,0,0,-32294,0,0,0,4571,0,23070,0
18320,-1166,-8102,868,-50,12,4,31918,0,1,-1,0,36719,89,25,144,0,0,0,0,0,0,0,0,-32295,0,0,0,4570,0,23090,0
18330,-1154,-8092,878,-50,13,1,31918,-1,-2,-1,0,36716,86,25,144,0,0,0,0,0,0,0,0,-32295,0,0,0,4571,0,23110,0
18340,-1160,-8128,890,-48,15,1,31917,-1,0,0,0,36715,87,25,144,0,0,0,0,0,0,0,0,-32295,0,0,0,4569,0,23130,0
18350,-1142,-8122,884,-54,18,1,31917,-2,-4,0,0,36716,95,25,144,0,0,0,0,0,0,0,0,-32295,0,0,0,4571,0,23150,0
18360,-1118,-8020,894,-50,16,0,31917,-5,-2,-1,0,36725,100,25,144,0,0,0,0,0,0,0,0,-32295,0,0,0,4570,0,23170,0
18370,-1124,-8272,922,-52,15,9,31917,3,6,-1,0,36724,99,25,144,0,0,0,0,0,0,0,0,-32294,0,0,0,4570,0,23190,0
18380,-1072,-8244,946,-54,12,3,31917,2,1,-1,0,36722,101,25,144,0,0,0,0,0,0,0,0,-32294,0,0,0,4570,0,23210,0
18390,-1136,-8140,842,-51,10,16,31917,-5,5,-1,0,36718,99,25,144,0,0,0,0,0,0,0,0,-32294,0,0,0,4570,0,23230,0
18400,-1114,-7978,842,-51,5,5,31916,1,2,-1,0,36716,92,25,144,0,0,0,0,0,0,0,0,-32295,0,0,0,4570,0,23250,0
18410,-1222,-8156,766,-50,8,4,31917,-1,-2,-4,0,36715,88,25,144,0,0,0,0,0,0,0,0,-32294,0,0,0,4570,0,23270,0
18420,-1210,-8080,650,-45,17,1,31917,-2,1,-1,0,36713,88,25,144,0,0,0,0,0,0,0,0,-32294,0,0,0,4571,0,23290,0
18430,-1088,-7984,744,-16,22,0,31917,-4,-6,0,0,36719,87,25,144,0,0,0,0,0,0,0,0,-32294,0,0,0,4571,0,23310,0
18440,-1032,-8058,896,-8,25,5,31918,10,-1,-1,0,36729,86,25,144,0,0,0,0,0,0,0,0,-32294,0,0,0,4571,0,23330,0
18450,-1084,-8072,1140,-12,21,19,31916,-4,-7,0,0,36740,88,25,144,0,0,0,0,0,0,0,0,-32294,0,0,0,4571,0,23350,0
18460,-1114,-8080,1158,-28,18,30,31916,-3,-1,-4,0,36748,84,25,144,0,0,0,0,0,0,0,0,-32294,0,0,0,4571,0,23370,0
18470,-1130,-8194,1048,-56,18,18,31917,3,2,-1,0,36738,81,25,144,0,0,0,0,0,0,0,0,-32294,0,0,0,4571,0,23390,0
18480,-1172,-8242,922,-49,15,25,31916,-2,1,-1,0,36728,85,25,144,0,0,0,0,0,0,0,0,-32294,0,0,0,4571,0,23410,0
18490,-1186,-8158,700,-48,19,21,31917,1,-2,-3,0,36717,91,25,144,0,0,0,0,0,0,0,0,-32294,0,0,0,4571,0,23430,0
18500,-1166,-8162,662,-40,7,13,31916,-1,-6,-2,0,36715,110,25,144,0,0,0,0,0,0,0,0,-32295,0,0,0,4571,0,23450,0
18510,-1206,-8034,746,-22,13,13,31916,-2,1,-3,0,36713,100,25,144,0,0,0,0,0,0,0,0,-32295,0,0,0,4570,0,23470,0
18520,-1194,-8132,806,-20,9,15,31916,1,1,-2,0,36714,99,25,144,0,0,0,0,0,0,0,0,-32295,0,0,0,4571,0,23490,0
18530,-1202,-8040,978,-11,14,2,31916,-4,1,0,0,36715,93,25,144,0,0,0,0,0,0,0,0,-32294,0,0,0,4571,0,23510,0
18540,-1166,-8066,1066,-27,22,-3,31916,-3,-3,-1,0,36716,96,25,144,0,0,0,0,0,0,0,0,-32294,0,0,0,4571,0,23530,0
18550,-1166,-8104,1100,-45,14,6,31917,7,-3,-1,0,36717,93,25,144,0,0,0,0,0,0,0,0,-32294,0,0,0,4570,0,23550,0
18560,-1144,-8114,1010,-54,9,0,31916,-3,2,-2,0,36719,91,25,144,0,0,0,0,0,0,0,0,-32295,0,0,0,4571,0,23570,0
18570,-1176,-8118,880,-52,8,-14,31916,-6,-2,0,0,36722,89,25,144,0,0,0,0,0,0,0,0,-32295,0,0,0,4570,0,23590,0
18580,-1136,-8170,854,-50,9,-1,31916,-2,-5,0,0,36722,93,25,144,0,0,0,0,0,0,0,0,-32295,0,0,0,4571,0,23610,0
18590,-1146,-8110,812,-52,6,-1,31914,-3,2,-1,0,36722,89,25,144,0,0,0,0,0,0,0,0,-32294,0,0,0,4570,0,23630,0
18600,-1048,-8106,830,-42,14,-6,31914,-4,-4,-1,0,36716,86,25,144,0,0,0,0,0,0,0,0,-32295,0,0,0,4570,0,23650,0
18610,-1078,-8090,856,-35,19,5,31915,-5,2,1,0,36718,87,25,144,0,0,0,0,0,0,0,0,-32295,0,0,0,4570,0,23670,0
18620,-1058,-8078,928,-34,16,20,31914,-5,-2,-1,0,36719,89,25,144,0,0,0,0,0,0,0,0,-32294,0,0,0,4570,0,23690,0
18630,-1074,-8110,928,-39,17,16,31914,3,3,-1,0,36720,96,25,144,0,0,0,0,0,0,0,0,-32295,0,0,0,4569,0,23710,0
18640,-1098,-8128,906,-37,25,25,31915,0,-3,-3,0,36717,103,25,144,0,0,0,0,0,0,0,0,-32294,0,0,0,4571,0,23730,0
18650,-1084,-8114,908,-27,17,33,31914,-6,2,-2,0,36715,99,25,144,0,0,0,0,0,0,0,0,-32295,0,0,0,4570,0,23750,0
18660,-1158,-8106,940,-33,11,34,31915,-1,6,-5,0,36717,88,25,144,0,0,0,0,0,0,0,0,-32295,0,0,0,4570,0,23770,0
18670,-1208,-8092,900,-34,12,28,31915,0,0,-1,0,36726,88,25,144,0,0,0,0,0,0,0,0,-32295,0,0,0,4570,0,23790,0
18680,-1190,-8112,936,-38,18,31,31915,-1,3,-2,0,36728,90,25,144,0,0,0,0,0,0,0,0,-32294,0,0,0,4570,0,23810,0
18690,-1154,-8112,910,-38,15,24,31916,5,5,-3,0,36725,105,25,144,0,0,0,0,0,0,0,0,-32295,0,0,0,4571,0,23830,0
18700,-1220,-8142,908,-44,16,17,31914,-2,-5,-2,0,36717,104,25,144,0,0,0,0,0,0,0,0,-32295,0,0,0,4571,0,23850,0
18710,-1210,-8126,926,-45,13,16,31916,-3,1,-5,0,36715,96,25,144,0,0,0,0,0,0,0,0,-32294,0,0,0,4570,0,23870,0
18720,-1168,-8078,896,-46,11,5,31915,-6,0,-4,0,36717,93,25,144,0,0,0,0,0,0,0,0,-32294,0,0,0,4571,0,23890,0
18730,-1150,-8130,836,-45,18,0,31915,0,-1,-4,0,36719,92,25,144,0,0,0,0,0,0,0,0,-32294,0,0,0,4571,0,23910,0
18740,-1156,-8138,930,-38,9,9,31916,4,-1,-3,0,36719,91,25,144,0,0,0,0,0,0,0,0,-32294,0,0,0,4570,0,23930,0
18750,-1170,-8116,954,-43,8,7,31916,0,-1,-3,0,36719,85,25,144,0,0,0,0,0,0,0,0,-32294,0,0,0,4571,0,23950,0
18760,-1174,-8078,940,-53,16,-2,31916,3,-2,0,0,36722,87,25,144,0,0,0,0,0,0,0,0,-32294,0,0,0,4571,0,23971,0
18770,-1150,-8140,932,-54,8,2,31915,-1,3,0,0,36725,90,25,144,0,0,0,0,0,0,0,0,-32294,0,0,0,4571,0,23991,0
18780,-1148,-8074,892,-52,13,-5,31914,1,-2,0,0,36725,92,25,144,0,0,0,0,0,0,0,0,-32294,0,0,0,4571,0,24011,0
18790,-1154,-8112,910,-52,12,-11,31915,0,0,0,0,36725,99,25,144,0,0,0,0,0,0,0,0,-32294,0,0,0,4571,0,24031,0
18800,-1140,-8134,916,-54,13,2,31914,-6,1,-2,0,36726,98,25,144,0,0,0,0,0,0,0,0,-32294,0,0,0,4570,0,24051,0
18810,-1092,-8134,870,-54,12,2,31915,-1,-1,-4,0,36726,99,25,144,0,0,0,0,0,0,0,0,-32295,0,0,0,4570,0,24071,0
18820,-1076,-8078,878,-42,11,-1,31916,0,-2,-1,0,36725,89,25,144,0,0,0,0,0,0,0,0,-32295,0,0,0,4571,0,24091,0
18830,-1108,-8164,908,-44,14,8,31916,12,2,-1,0,36724,93,25,144,0,0,0,0,0,0,0,0,-32294,0,0,0,4569,0,24111,0
18840,-1144,-8110,908,-50,13,16,31915,-5,1,-1,0,36723,93,25,144,0,0,0,0,0,0,0,0,-32295,0,0,0,4571,0,24131,0
18850,-1146,-8092,900,-50,13,10,31915,-3,1,0,0,36723,88,25,144,0,0,0,0,0,0,0,0,-32295,0,0,0,4571,0,24151,0
18860,-1146,-8114,916,-46,12,13,31915,2,4,-1,0,36723,87,25,144,0,0,0,0,0,0,0,0,-32295,0,0,0,4571,0,24171,0
18870,-1184,-8140,936,-44,11,14,31916,8,4,-2,0,36734,85,25,144,0,0,0,0,0,0,0,0,-32295,0,0,0,4570,0,24191,0
18880,-1152,-8058,932,-49,16,6,31916,7,4,-2,0,36735,99,25,144,0,0,0,0,0,0,0,0,-32295,0,0,0,4571,0,24211,0
18890,-1134,-8094,924,-52,14,5,31914,-5,0,-1,0,36734,97,25,144,0,0,0,0,0,0,0,0,-32295,0,0,0,4570,0,24231,0
18900,-1124,-8124,890,-52,11,11,31916,7,2,-2,0,36722,97,25,144,0,0,0,0,0,0,0,0,-32295,0,0,0,4571,0,24251,0
18910,-1136,-8072,912,-49,14,5,31914,-6,-1,-2,0,36722,86,25,144,0,0,0,0,0,0,0,0,-32295,0,0,0,4570,0,24271,0
18920,-1160,-8150,906,-51,16,5,31913,-11,-1,-1,0,36724,89,25,144,0,0,0,0,0,0,0,0,-32294,0,0,0,4570,0,24291,0
18930,-1166,-8144,902,-54,14,7,31916,4,2,-2,0,36725,87,25,144,0,0,0,0,0,0,0,0,-32295,0,0,0,4571,0,24311,0
18940,-1136,-8100,890,-52,9,3,31916,5,-3,0,0,36726,96,25,144,0,0,0,0,0,0,0,0,-32294,0,0,0,4570,0,24331,0
18950,-1152,-8132,884,-48,8,0,31915,1,4,-2,0,36727,90,25,144,0,0,0,0,0,0,0,0,-32294,0,0,0,4571,0,24351,0
18960,-1150,-8136,916,-52,9,7,31916,4,-3,-3,0,36727,90,25,144,0,0,0,0,0,0,0,0,-32295,0,0,0,4571,0,24371,0
18970,-1148,-8104,916,-55,14,11,31914,-3,0,-3,0,36728,93,25,144,0,0,0,0,0,0,0,0,-32294,0,0,0,4571,0,24391,0
18980,-1114,-8108,870,-52,14,5,31914,-1,4,-3,0,36735,88,25,144,0,0,0,0,0,0,0,0,-32294,0,0,0,4571,0,24411,0
18990,-1152,-8120,900,-48,12,8,31915,3,3,-1,0,36736,87,25,144,0,0,0,0,0,0,0,0,-32294,0,0,0,4571,0,24431,0
19000,-1150,-8048,924,-53,9,8,31915,-1,2,-2,0,36734,86,25,144,0,0,0,0,0,0,0,0,-32295,0,0,0,4571,0,24451,0
19010,-1160,-8106,948,-57,13,5,31915,0,0,-2,0,36728,93,25,144,0,0,0,0,0,0,0,0,-32294,0,0,0,4570,0,24471,0
19020,-1150,-8126,894,-51,14,6,31916,6,0,-2,0,36729,99,25,144,0,0,0,0,0,0,0,0,-32295,0,0,0,4570,0,24491,0
19030,-1160,-8114,924,-55,11,7,31915,8,5,-1,0,36729,103,25,144,0,0,0,0,0,0,0,0,-32295,0,0,0,4570,0,24511,0
19040,-1160,-8138,892,-51,13,-11,31914,-6,1,-1,0,36727,98,25,144,0,0,0,0,0,0,0,0,-32294,0,0,0,4570,0,24531,0
19050,-1182,-8126,914,-52,13,-5,31915,-1,1,0,0,36725,93,25,144,0,0,0,0,0,0,0,0,-32295,0,0,0,4570,0,24551,0
19060,-1134,-8118,910,-53,10,3,31914,0,-2,-2,0,36725,89,25,144,0,0,0,0,0,0,0,0,-32294,0,0,0,4570,0,24571,0
19070,-1114,-8092,898,-51,15,-3,31914,-1,-1,-1,0,36726,88,25,144,0,0,0,0,0,0,0,0,-32294,0,0,0,4569,0,24591,0
19080,-1164,-8104,908,-54,10,-2,31915,1,-4,-2,0,36733,81,25,144,0,0,0,0,0,0,0,0,-32294,0,0,0,4570,0,24611,0
19090,-1166,-8154,926,-49,13,3,31915,6,1,-2,0,36732,86,25,144,0,0,0,0,0,0,0,0,-32294,0,0,0,4570,0,24631,0
19100,-1108,-8104,922,-57,11,-4,31914,2,0,-2,0,36730,83,25,144,0,0,0,0,0,0,0,0,-32294,0,0,0,4569,0,24651,0
19110,-1124,-8110,908,-52,15,-2,31915,5,3,-1,0,36724,85,25,144,0,0,0,0,0,0,0,0,-32294,0,0,0,4571,0,24671,0
19120,-1136,-8134,938,-50,12,5,31913,-8,2,0,0,36725,87,25,144,0,0,0,0,0,0,0,0,-32294,0,0,0,4571,0,24691,0
19130,-1126,-8090,892,-50,15,0,31913,1,-2,0,0,36726,84,25,144,0,0,0,0,0,0,0,0,-32294,0,0,0,4570,0,24711,0
19140,-1130,-8098,916,-54,16,-2,31914,1,-3,1,0,36722,92,25,144,0,0,0,0,0,0,0,0,-32294,0,0,0,4571,0,24731,0
19150,-1142,-8116,908,-53,13,3,31913,4,-1,3,0,36722,98,25,144,0,0,0,0,0,0,0,0,-32294,0,0,0,4570,0,24751,0
19160,-1138,-8104,884,-49,12,1,31912,-5,2,0,0,36724,100,25,144,0,0,0,0,0,0,0,0,-32294,0,0,0,4570,0,24771,0
19170,-1132,-8070,894,-49,13,-3,31910,-5,2,1,0,36726,103,25,144,0,0,0,0,0,0,0,0,-32295,0,0,0,4569,0,24791,0
19180,-1118,-8134,934,-47,12,4,31912,5,-1,4,0,36723,102,25,144,0,0,0,0,0,0,0,0,-32295,0,0,0,4569,0,24811,0
19190,-1086,-8120,922,-52,15,5,31911,0,1,0,0,36725,92,25,144,0,0,0,0,0,0,0,0,-32294,0,0,0,4570,0,24831,0
19200,-1122,-8098,874,-51,13,5,31910,4,4,0,0,36726,92,25,144,0,0,0,0,0,0,0,0,-32294,0,0,0,4569,0,24851,0
19210,-1156,-8136,878,-47,15,12,31909,-3,5,0,0,36728,88,25,144,0,0,0,0,0,0,0,0,-32294,0,0,0,4570,0,24871,0
19220,-1142,-8116,894,-50,18,6,31910,-1,0,-1,0,36723,92,25,144,0,0,0,0,0,0,0,0,-32295,0,0,0,4570,0,24891,0
19230,-1112,-8114,892,-52,16,6,31909,0,3,-1,0,36720,82,25,144,0,0,0,0,0,0,0,0,-32294,0,0,0,4570,0,24911,0
19240,-1156,-8114,880,-48,15,4,31909,5,1,-1,0,36718,88,25,144,0,0,0,0,0,0,0,0,-32295,0,0,0,4569,0,24931,0
19250,-1158,-8116,924,-48,11,8,31908,-3,2,0,0,36720,88,25,144,0,0,0,0,0,0,0,0,-32295,0,0,0,4569,0,24951,0
19260,-1152,-8120,948,-51,10,-3,31909,0,-2,-4,0,36720,87,25,144,0,0,0,0,0,0,0,0,-32294,0,0,0,4570,0,24971,0
19270,-1182,-8134,934,-56,14,7,31908,-8,2,0,0,36722,84,25,144,0,0,0,0,0,0,0,0,-32294,0,0,0,4569,0,24991,0
19280,-1154,-8114,928,-50,12,5,31908,3,6,2,0,36723,95,25,144,0,0,0,0,0,0,0,0,-32295,0,0,0,4569,0,25011,0
19290,-1120,-8126,882,-54,15,0,31907,-5,-2,2,0,36721,104,25,144,0,0,0,0,0,0,0,0,-32295,0,0,0,4569,0,25031,0
19300,-1108,-8124,888,-54,13,-2,31906,-1,1,5,0,36725,108,25,144,0,0,0,0,0,0,0,0,-32295,0,0,0,4570,0,25051,0
19310,-1146,-8124,882,-53,14,5,31904,-1,3,5,0,36721,102,25,144,0,0,0,0,0,0,0,0,-32294,0,0,0,4569,0,25071,0
19320,-1138,-8118,848,-47,16,-6,31903,1,-4,8,0,36722,102,25,144,0,0,0,0,0,0,0,0,-32294,0,0,0,4569,0,25091,0
19330,-1132,-8086,876,-46,16,-8,31902,3,5,10,0,36715,104,25,144,0,0,0,0,0,0,0,0,-32294,0,0,0,4569,0,25111,0
19340,-1138,-8108,908,-53,28,-7,31895,-10,-3,19,0,36712,99,25,144,0,0,0,0,0,0,0,0,-32294,0,0,0,4568,0,25131,0
19350,-1154,-8130,916,-48,22,-16,31887,-22,-10,36,0,36713,88,25,144,0,0,0,0,0,0,0,0,-32294,0,0,0,4568,0,25151,0
19360,-1204,-8116,888,-52,32,-30,31873,-40,-17,57,0,36715,91,25,144,0,0,0,0,0,0,0,0,-32294,0,0,0,4568,0,25171,0
19370,-1226,-8096,878,-49,41,-27,31862,-17,-10,45,0,36717,100,25,144,0,0,0,0,0,0,0,0,-32294,0,0,0,4567,0,25191,0
19380,-980,-8146,950,-54,22,-8,31862,7,27,0,0,36716,105,25,144,0,0,0,0,0,0,0,0,-32295,0,0,0,4567,0,25211,0
19390,-1034,-8112,936,-58,2,1,31861,-1,21,0,0,36714,104,25,144,0,0,0,0,0,0,0,0,-32294,0,0,0,4566,0,25231,0
19400,-1114,-8106,878,-53,5,7,31861,0,3,-2,0,36722,102,25,144,0,0,0,0,0,0,0,0,-32294,0,0,0,4566,0,25251,0
19410,-1168,-8138,860,-47,10,2,31861,0,2,0,0,36722,96,25,144,0,0,0,0,0,0,0,0,-32294,0,0,0,4567,0,25271,0
19420,-1104,-8136,898,-47,21,0,31862,5,-3,-1,0,36723,101,25,144,0,0,0,0,0,0,0,0,-32294,0,0,0,4566,0,25291,0
19430,-1076,-8122,926,-46,17,7,31860,-5,3,0,0,36722,104,25,144,0,0,0,0,0,0,0,0,-32294,0,0,0,4566,0,25311,0
19440,-1092,-8080,938,-45,10,13,31861,-3,3,-3,0,36715,115,25,144,0,0,0,0,0,0,0,0,-32295,0,0,0,4567,0,25331,0
19450,-1162,-8104,894,-55,9,17,31861,-4,-5,-1,0,36717,112,25,144,0,0,0,0,0,0,0,0,-32294,0,0,0,4567,0,25351,0
19460,-1224,-8102,874,-53,14,4,31861,1,4,-2,0,36716,102,25,144,0,0,0,0,0,0,0,0,-32294,0,0,0,4566,0,25371,0
19470,-1200,-8098,862,-51,19,4,31861,-6,-4,-1,0,36719,95,25,144,0,0,0,0,0,0,0,0,-32294,0,0,0,4567,0,25391,0
19480,-1140,-8096,892,-47,15,-1,31861,4,3,1,0,36718,96,25,144,0,0,0,0,0,0,0,0,-32295,0,0,0,4567,0,25411,0
19490,-1120,-8096,918,-48,8,8,31861,-1,0,-1,0,36717,103,25,144,0,0,0,0,0,0,0,0,-32294,0,0,0,4566,0,25431,0
19500,-1184,-8120,910,-48,9,4,31860,0,-2,1,0,36716,105,25,144,0,0,0,0,0,0,0,0,-32294,0,0,0,4567,0,25451,0
19510,-1122,-8116,908,-53,13,-5,31861,-1,0,-1,0,36721,112,25,144,0,0,0,0,0,0,0,0,-32294,0,0,0,4565,0,25471,0
19520,-1118,-8116,896,-50,17,-1,31861,-3,0,-2,0,36718,101,25,144,0,0,0,0,0,0,0,0,-32294,0,0,0,4567,0,25491,0
19530,-1110,-8124,906,-52,15,5,31860,12,1,2,0,36717,107,25,144,0,0,0,0,0,0,0,0,-32295,0,0,0,4566,0,25511,0
19540,-1102,-8080,914,-52,11,2,31861,7,6,-1,0,36711,104,25,144,0,0,0,0,0,0,0,0,-32295,0,0,0,4566,0,25531,0
19550,-1122,-8112,900,-51,7,6,31860,0,-3,0,0,36713,110,25,144,0,0,0,0,0,0,0,0,-32294,0,0,0,4566,0,25551,0
19560,-1142,-8156,884,-49,9,13,31860,5,3,0,0,36712,99,25,144,0,0,0,0,0,0,0,0,-32295,0,0,0,4567,0,25571,0
19570,-1122,-8116,928,-50,14,3,31860,0,-1,-1,0,36713,96,25,144,0,0,0,0,0,0,0,0,-32294,0,0,0,4567,0,25591,0
19580,-1116,-8108,916,-54,14,5,31859,-7,-1,0,0,36715,106,25,144,0,0,0,0,0,0,0,0,-32294,0,0,0,4567,0,25611,0
19590,-1116,-8088,894,-51,13,8,31860,2,-2,-2,0,36719,110,25,144,0,0,0,0,0,0,0,0,-32295,0,0,0,4567,0,25631,0
19600,-1132,-8108,878,-50,7,8,31859,-1,2,0,0,36716,112,25,144,0,0,0,0,0,0,0,0,-32294,0,0,0,4566,0,25651,0
19610,-1126,-8102,890,-53,12,0,31860,0,-3,-2,0,36714,112,25,144,0,0,0,0,0,0,0,0,-32294,0,0,0,4567,0,25671,0
19620,-1124,-8104,894,-53,16,2,31860,0,-3,-1,0,36720,111,25,144,0,0,0,0,0,0,0,0,-32294,0,0,0,4566,0,25691,0
19630,-1100,-8148,904,-51,12,3,31857,-13,-6,1,0,36722,107,25,144,0,0,0,0,0,0,0,0,-32294,0,0,0,4566,0,25711,0
19640,-1102,-8082,908,-49,11,4,31859,0,0,-3,0,36722,105,25,144,0,0,0,0,0,0,0,0,-32295,0,0,0,4566,0,25731,0
19650,-1116,-8102,882,-52,11,6,31858,0,-2,0,0,36716,96,25,144,0,0,0,0,0,0,0,0,-32294,0,0,0,4566,0,25751,0
19660,-1162,-8098,892,-51,11,7,31859,-2,1,0,0,36714,102,25,144,0,0,0,0,0,0,0,0,-32294,0,0,0,4566,0,25771,0
19670,-1144,-8098,894,-50,15,3,31858,3,5,-1,0,36717,105,25,144,0,0,0,0,0,0,0,0,-32295,0,0,0,4566,0,25791,0
19680,-1132,-8098,894,-46,12,2,31858,-1,-2,0,0,36719,104,25,144,0,0,0,0,0,0,0,0,-32294,0,0,0,4566,0,25811,0
19690,-1104,-8126,910,-49,10,2,31858,-2,-2,-1,0,36718,100,25,144,0,0,0,0,0,0,0,0,-32294,0,0,0,4566,0,25831,0
19700,-1146,-8110,908,-50,11,6,31858,-3,-3,0,0,36717,101,25,144,0,0,0,0,0,0,0,0,-32294,0,0,0,4566,0,25851,0
19710,-1118,-8112,918,-45,13,7,31858,-1,-4,-1,0,36721,101,25,144,0,0,0,0,0,0,0,0,-32294,0,0,0,4567,0,25871,0
19720,-1134,-8128,900,-47,12,6,31858,2,-2,-2,0,36733,103,25,144,0,0,0,0,0,0,0,0,-32295,0,0,0,4566,0,25891,0
19730,-1146,-8134,920,-54,11,8,31858,-1,-3,0,0,36740,103,25,144,0,0,0,0,0,0,0,0,-32294,0,0,0,4567,0,25911,0
19740,-1112,-8094,906,-57,10,1,31859,4,5,-3,0,36737,104,25,144,0,0,0,0,0,0,0,0,-32294,0,0,0,4566,0,25931,0
19750,-1118,-8122,876,-53,13,4,31859,2,1,-1,0,36724,109,25,144,0,0,0,0,0,0,0,0,-32294,0,0,0,4565,0,25951,0
19760,-1150,-8100,884,-52,12,7,31858,-7,-2,0,0,36719,103,25,144,0,0,0,0,0,0,0,0,-32294,0,0,0,4566,0,25971,0
19770,-1126,-8116,894,-51,10,3,31859,3,0,-2,0,36722,106,25,144,0,0,0,0,0,0,0,0,-32294,0,0,0,4566,0,25991,0
19780,-1122,-8128,918,-51,11,6,31860,7,7,-1,0,36721,104,25,144,0,0,0,0,0,0,0,0,-32295,0,0,0,4567,0,26012,0
19790,-1126,-8120,902,-51,17,6,31858,1,-1,-3,0,36719,104,25,144,0,0,0,0,0,0,0,0,-32294,0,0,0,4566,0,26032,0
19800,-1128,-8136,910,-50,14,4,31859,3,-3,-1,0,36721,111,25,144,0,0,0,0,0,0,0,0,-32294,0,0,0,4567,0,26052,0
19810,-1128,-8112,910,-53,14,6,31858,0,3,-1,0,36723,116,25,144,0,0,0,0,0,0,0,0,-32295,0,0,0,4566,0,26072,0
19820,-1138,-8098,910,-52,14,5,31860,6,-3,0,0,36723,118,25,144,0,0,0,0,0,0,0,0,-32294,0,0,0,4566,0,26091,0
19830,-1146,-8118,924,-48,12,2,31858,-12,-2,0,0,36726,114,25,144,0,0,0,0,0,0,0,0,-32295,0,0,0,4566,0,26112,0
19840,-1138,-8116,910,-52,15,7,31857,0,1,0,0,36728,115,25,144,0,0,0,0,0,0,0,0,-32295,0,0,0,4567,0,26132,0
19850,-1102,-8122,910,-52,9,3,31857,-5,0,-2,0,36728,108,25,144,0,0,0,0,0,0,0,0,-32295,0,0,0,4566,0,26152,0
19860,-1116,-8114,876,-47,12,3,31857,-7,1,-2,0,36722,103,25,144,0,0,0,0,0,0,0,0,-32294,0,0,0,4566,0,26171,0
19870,-1106,-8080,870,-50,17,9,31858,-6,1,-1,0,36722,93,25,144,0,0,0,0,0,0,0,0,-32294,0,0,0,4566,0,26191,0
19880,-1116,-8146,896,-49,10,6,31857,-1,-1,-1,0,36727,98,25,144,0,0,0,0,0,0,0,0,-32295,0,0,0,4566,0,26212,0
19890,-1154,-8118,910,-50,20,5,31857,2,3,-2,0,36731,98,25,144,0,0,0,0,0,0,0,0,-32295,0,0,0,4566,0,26232,0
19900,-1136,-8132,918,-46,16,4,31858,-4,1,0,0,36728,104,25,144,0,0,0,0,0,0,0,0,-32295,0,0,0,4567,0,26252,0
19910,-1134,-8152,916,-49,15,12,31858,2,0,0,0,36725,105,25,144,0,0,0,0,0,0,0,0,-32294,0,0,0,4567,0,26272,0
19920,-1124,-8118,920,-53,10,6,31857,-1,2,0,0,36724,107,25,144,0,0,0,0,0,0,0,0,-32294,0,0,0,4566,0,26292,0
19930,-1138,-8110,882,-51,11,6,31857,-8,0,-1,0,36734,105,25,144,0,0,0,0,0,0,0,0,-32294,0,0,0,4567,0,26312,0
19940,-1128,-8106,904,-49,11,10,31859,3,-3,-2,0,36735,97,25,144,0,0,0,0,0,0,0,0,-32295,0,0,0,4567,0,26332,0
19950,-1130,-8114,908,-53,13,5,31858,5,0,-1,0,36734,107,25,144,0,0,0,0,0,0,0,0,-32295,0,0,0,4566,0,26352,0
19960,-1098,-8110,872,-49,12,6,31857,-10,-3,-1,0,36726,111,25,144,0,0,0,0,0,0,0,0,-32295,0,0,0,4567,0,26372,0
19970,-1120,-8122,872,-47,15,10,31858,5,6,-2,0,36725,116,25,144,0,0,0,0,0,0,0,0,-32294,0,0,0,4566,0,26392,0
19980,-1114,-8096,900,-50,18,16,31857,-4,-1,-2,0,36727,118,25,144,0,0,0,0,0,0,0,0,-32294,0,0,0,4567,0,26412,0
19990,-1112,-8114,902,-49,16,6,31857,-6,0,-2,0,36726,120,25,144,0,0,0,0,0,0,0,0,-32294,0,0,0,4567,0,26432,0
20000,-1136,-8116,930,-44,14,9,31858,5,5,-1,0,36727,116,25,144,0,0,0,0,0,0,0,0,-32294,0,0,0,4567,0,26452,0
20010,-1150,-8122,924,-44,12,11,31858,2,-2,0,0,36726,113,25,144,0,0,0,0,0,0,0,0,-32294,0,0,0,4566,0,26472,0
20020,-1146,-8132,904,-48,11,11,31857,-8,0,-2,0,36726,103,25,144,0,0,0,0,0,0,0,0,-32294,0,0,0,4566,0,26492,0
20030,-1136,-8150,904,-53,13,6,31857,-6,3,0,0,36734,109,25,144,0,0,0,0,0,0,0,0,-32295,0,0,0,4566,0,26511,0
20040,-1160,-8116,880,-47,13,1,31859,6,6,-1,0,36733,104,25,144,0,0,0,0,0,0,0,0,-32294,0,0,0,4567,0,26531,0
20050,-1126,-8080,862,-50,11,3,31858,-1,4,-1,0,36730,100,25,144,0,0,0,0,0,0,0,0,-32294,0,0,0,4567,0,26551,0
20060,-1130,-8118,898,-51,16,-2,31858,6,3,-1,0,36724,99,25,144,0,0,0,0,0,0,0,0,-32294,0,0,0,4566,0,26571,0
20070,-1136,-8098,908,-47,12,3,31858,2,2,-1,0,36728,98,25,144,0,0,0,0,0,0,0,0,-32294,0,0,0,4567,0,26591,0
20080,-1122,-8126,888,-48,10,-4,31858,3,-5,-1,0,36729,102,25,144,0,0,0,0,0,0,0,0,-32294,0,0,0,4566,0,26611,0
20090,-1114,-8124,920,-48,9,1,31858,-4,-1,0,0,36728,112,25,144,0,0,0,0,0,0,0,0,-32294,0,0,0,4566,0,26631,0
20100,-1144,-8104,884,-53,12,4,31858,0,-4,1,0,36724,118,25,144,0,0,0,0,0,0,0,0,-32294,0,0,0,4567,0,26651,0
20110,-1114,-8126,902,-51,12,3,31857,-3,-6,1,0,36722,121,25,144,0,0,0,0,0,0,0,0,-32294,0,0,0,4567,0,26671,0
20120,-1106,-8132,914,-52,12,6,31859,0,-1,-1,0,36721,124,25,144,0,0,0,0,0,0,0,0,-32294,0,0,0,4566,0,26691,0
20130,-1110,-8114,880,-44,11,5,31858,2,2,0,0,36722,117,25,144,0,0,0,0,0,0,0,0,-32294,0,0,0,4566,0,26711,0
20140,-1108,-8066,918,-47,15,9,31857,-3,2,0,0,36728,110,25,144,0,0,0,0,0,0,0,0,-32294,0,0,0,4566,0,26731,0
20150,-1132,-8124,908,-49,10,8,31857,-2,-1,-2,0,36726,100,25,144,0,0,0,0,0,0,0,0,-32294,0,0,0,4567,0,26751,0
20160,-1126,-8106,908,-43,17,12,31858,6,10,0,0,36724,89,25,144,0,0,0,0,0,0,0,0,-32295,0,0,0,4566,0,26771,0
20170,-1136,-8092,900,-47,16,12,31856,-6,-1,-2,0,36717,102,25,144,0,0,0,0,0,0,0,0,-32294,0,0,0,4566,0,26791,0
20180,-1152,-8106,936,-46,14,10,31858,2,2,-1,0,36719,104,25,144,0,0,0,0,0,0,0,0,-32295,0,0,0,4566,0,26811,0
20190,-1134,-8104,904,-50,12,9,31858,-1,4,-1,0,36718,109,25,144,0,0,0,0,0,0,0,0,-32294,0,0,0,4566,0,26831,0
20200,-1150,-8102,914,-48,17,10,31856,-1,1,-1,0,36716,105,25,144,0,0,0,0,0,0,0,0,-32294,0,0,0,4567,0,26851,0
20210,-1102,-8114,886,-51,12,6,31857,1,7,0,0,36718,112,25,144,0,0,0,0,0,0,0,0,-32294,0,0,0,4566,0,26871,0
20220,-1128,-8120,910,-48,11,7,31857,2,0,-1,0,36720,110,25,144,0,0,0,0,0,0,0,0,-32294,0,0,0,4567,0,26891,0
20230,-1132,-8102,894,-49,10,3,31857,0,2,0,0,36720,109,25,144,0,0,0,0,0,0,0,0,-32294,0,0,0,4566,0,26911,0
20240,-1112,-8088,888,-48,15,5,31859,7,1,-3,0,36723,107,25,144,0,0,0,0,0,0,0,0,-32294,0,0,0,4566,0,26931,0
20250,-1128,-8094,902,-50,12,8,31858,0,-1,-2,0,36722,114,25,144,0,0,0,0,0,0,0,0,-32294,0,0,0,4566,0,26951,0
20260,-1128,-8100,914,-47,8,6,31859,4,-2,0,0,36724,113,25,144,0,0,0,0,0,0,0,0,-32294,0,0,0,4566,0,26971,0
20270,-1142,-8102,912,-47,16,11,31858,-4,2,-2,0,36724,107,25,144,0,0,0,0,0,0,0,0,-32294,0,0,0,4566,0,26991,0
20280,-1138,-8134,906,-51,17,9,31857,1,-1,-2,0,36721,109,25,144,0,0,0,0,0,0,0,0,-32294,0,0,0,4566,0,27011,0
20290,-1132,-8098,918,-48,12,8,31858,3,-2,-1,0,36719,111,25,144,0,0,0,0,0,0,0,0,-32295,0,0,0,4566,0,27031,0
20300,-1150,-8124,908,-52,15,4,31857,3,2,-1,0,36716,113,25,144,0,0,0,0,0,0,0,0,-32294,0,0,0,4566,0,27051,0
20310,-1124,-8134,918,-52,12,5,31858,-3,1,-1,0,36717,112,25,144,0,0,0,0,0,0,0,0,-32295,0,0,0,4566,0,27071,0
20320,-1132,-8094,894,-51,11,6,31858,-1,-4,-2,0,36715,108,25,144,0,0,0,0,0,0,0,0,-32294,0,0,0,4565,0,27091,0
20330,-1136,-8126,900,-49,10,2,31858,-2,-1,-1,0,36715,116,25,144,0,0,0,0,0,0,0,0,-32294,0,0,0,4565,0,27111,0
20340,-1132,-8102,904,-51,12,4,31856,-5,2,-1,0,36714,117,25,144,0,0,0,0,0,0,0,0,-32294,0,0,0,4567,0,27131,0
20350,-1088,-8120,894,-53,20,9,31857,0,2,-1,0,36714,118,25,144,0,0,0,0,0,0,0,0,-32294,0,0,0,4566,0,27151,0
20360,-1106,-8126,876,-53,13,9,31856,-7,0,-1,0,36718,107,25,144,0,0,0,0,0,0,0,0,-32294,0,0,0,4566,0,27171,0
20370,-1130,-8130,900,-56,12,9,31857,0,-2,0,0,36719,105,25,144,0,0,0,0,0,0,0,0,-32294,0,0,0,4567,0,27191,0
20380,-1156,-8116,868,-45,11,11,31858,5,-3,-2,0,36713,94,25,144,0,0,0,0,0,0,0,0,-32294,0,0,0,4567,0,27211,0
20390,-1122,-8124,900,-51,11,11,31858,1,-1,-2,0,36712,103,25,144,0,0,0,0,0,0,0,0,-32294,0,0,0,4566,0,27231,0
20400,-1138,-8102,904,-49,9,9,31857,0,5,-2,0,36713,103,25,144,0,0,0,0,0,0,0,0,-32295,0,0,0,4567,0,27251,0
20410,-1134,-8104,888,-50,9,6,31858,4,0,-1,0,36717,102,25,144,0,0,0,0,0,0,0,0,-32294,0,0,0,4567,0,27271,0
20420,-1134,-8106,888,-52,16,7,31858,0,1,0,0,36715,107,25,144,0,0,0,0,0,0,0,0,-32294,0,0,0,4566,0,27291,0
20430,-1128,-8124,872,-53,14,6,31858,6,5,-1,0,36714,105,25,144,0,0,0,0,0,0,0,0,-32294,0,0,0,4566,0,27311,0
20440,-1112,-8116,904,-54,13,11,31857,0,3,0,0,36712,102,25,144,0,0,0,0,0,0,0,0,-32294,0,0,0,4565,0,27331,0
20450,-1090,-8116,892,-54,14,5,31857,-2,5,-2,0,36715,100,25,144,0,0,0,0,0,0,0,0,-32294,0,0,0,4566,0,27351,0
20460,-1112,-8102,930,-47,14,13,31858,-1,0,0,0,36715,103,25,144,0,0,0,0,0,0,0,0,-32294,0,0,0,4566,0,27371,0
20470,-1156,-8104,908,-49,14,14,31858,3,1,0,0,36717,109,25,144,0,0,0,0,0,0,0,0,-32294,0,0,0,4566,0,27391,0
20480,-1152,-8112,872,-52,14,8,31859,1,-1,-2,0,36719,121,25,144,0,0,0,0,0,0,0,0,-32294,0,0,0,4567,0,27411,0
20490,-1166,-8118,890,-54,12,11,31857,-4,2,-1,0,36714,112,25,144,0,0,0,0,0,0,0,0,-32295,0,0,0,4567,0,27431,0
20500,-1154,-8118,880,-48,12,10,31857,-4,-4,-2,0,36711,106,25,144,0,0,0,0,0,0,0,0,-32294,0,0,0,4567,0,27451,0
20510,-1126,-8114,878,-50,15,6,31859,9,-1,-1,0,36712,104,25,144,0,0,0,0,0,0,0,0,-32294,0,0,0,4566,0,27471,0
20520,-1154,-8126,872,-52,17,5,31858,4,-2,-1,0,36712,110,25,144,0,0,0,0,0,0,0,0,-32294,0,0,0,4566,0,27491,0
20530,-1130,-8108,916,-54,12,5,31858,3,2,0,0,36713,104,25,144,0,0,0,0,0,0,0,0,-32294,0,0,0,4567,0,27511,0
20540,-1132,-8088,880,-54,14,8,31858,0,0,-1,0,36712,107,25,144,0,0,0,0,0,0,0,0,-32295,0,0,0,4565,0,27531,0
20550,-1130,-8154,892,-52,11,5,31859,5,0,-1,0,36713,108,25,144,0,0,0,0,0,0,0,0,-32294,0,0,0,4567,0,27551,0
20560,-1152,-8112,918,-49,14,5,31859,6,-10,-1,0,36718,106,25,144,0,0,0,0,0,0,0,0,-32295,0,0,0,4566,0,27571,0
20570,-1126,-8100,914,-47,12,8,31858,-1,2,-1,0,36716,102,25,144,0,0,0,0,0,0,0,0,-32294,0,0,0,4566,0,27591,0
