state_time,accelx,accely,accelz,gyrox,gyroy,gyroz,mot_ang,mot_vel,mot_acc,mot_cur,mot_volt,batt_volt,batt_curr,temperature,status_mn,status_ex,status_re,genvar_0,genvar_1,genvar_2,genvar_3,genvar_4,genvar_5,genvar_6,genvar_7,genvar_8,genvar_9,ank_ang,ank_vel,sys_time,event flags
8228,-1318,-8094,800,-46,14,14,12279,-1,0,1,0,36832,91,25,144,0,0,0,0,0,0,0,0,-32295,0,0,0,4610,0,2683,0
8238,-1308,-8120,794,-47,12,10,12278,-1,0,3,0,36821,95,25,144,0,0,0,0,0,0,0,0,-32295,0,0,0,4610,0,8238,0
8248,-1302,-8092,794,-49,15,9,12279,-1,-1,3,0,36817,93,25,144,0,0,0,0,0,0,0,0,-32295,0,0,0,4610,0,8248,0
8258,-1308,-8084,790,-49,12,10,12278,0,4,1,0,36814,95,25,144,0,0,0,0,0,0,0,0,-32295,0,0,0,4610,0,8258,0
8268,-1290,-8108,778,-46,15,6,12278,-6,1,2,0,36819,89,25,144,0,0,0,0,0,0,0,0,-32295,0,0,0,4610,0,8268,0
8278,-1304,-8102,798,-52,17,5,12279,9,3,3,0,36821,91,25,144,0,0,0,0,0,0,0,0,-32295,0,0,0,4610,0,8278,0
8288,-1312,-8114,806,-43,20,6,12280,5,2,4,0,36823,94,25,144,0,0,0,0,0,0,0,0,-32295,0,0,0,4611,0,8289,0
8298,-1296,-8112,792,-49,14,7,12279,-1,1,3,0,36816,101,25,144,0,0,0,0,0,0,0,0,-32295,0,0,0,4610,0,8308,0
8308,-1292,-8110,804,-48,12,6,12279,-3,3,4,0,36813,106,25,144,0,0,0,0,0,0,0,0,-32295,0,0,0,4610,0,8328,0
8318,-1292,-8108,816,-48,21,5,12278,-2,-1,2,0,36811,109,25,144,0,0,0,0,0,0,0,0,-32295,0,0,0,4609,0,8348,0
8328,-1290,-8100,758,-51,16,9,12278,0,2,3,0,36813,102,25,144,0,0,0,0,0,0,0,0,-32295,0,0,0,4610,0,8365,0
8338,-1296,-8100,776,-50,16,5,12278,-3,1,3,0,36816,99,25,144,0,0,0,0,0,0,0,0,-32295,0,0,0,4610,0,8376,0
8348,-1294,-8090,770,-48,14,8,12280,-2,-4,3,0,36817,91,25,144,0,0,0,0,0,0,0,0,-32295,0,0,0,4609,0,8386,0
8358,-1290,-8108,790,-48,16,4,12279,0,3,4,0,36815,89,25,144,0,0,0,0,0,0,0,0,-32295,0,0,0,4609,0,8396,0
8368,-1298,-8098,802,-48,12,3,12278,-2,0,0,0,36818,91,25,144,0,0,0,0,0,0,0,0,-32295,0,0,0,4610,0,8407,0
8378,-1288,-8088,782,-45,14,6,12280,2,-3,2,0,36815,100,25,144,0,0,0,0,0,0,0,0,-32295,0,0,0,4610,0,8426,0
8388,-1284,-8100,804,-47,14,8,12279,1,-2,3,0,36815,94,25,144,0,0,0,0,0,0,0,0,-32295,0,0,0,4609,0,8436,0
8398,-1310,-8094,786,-47,13,6,12279,-4,-2,1,0,36810,90,25,144,0,0,0,0,0,0,0,0,-32295,0,0,0,4609,0,8447,0
8408,-1298,-8106,778,-47,11,3,12280,0,0,2,0,36812,89,25,144,0,0,0,0,0,0,0,0,-32295,0,0,0,4610,0,8458,0
8418,-1292,-8086,798,-47,15,4,12279,1,0,0,0,36814,91,25,144,0,0,0,0,0,0,0,0,-32295,0,0,0,4609,0,8468,0
8428,-1284,-8100,786,-47,13,4,12278,-7,1,2,0,36812,93,25,144,0,0,0,0,0,0,0,0,-32295,0,0,0,4609,0,8478,0
8438,-1300,-8100,762,-44,17,8,12278,-6,1,3,0,36810,96,25,144,0,0,0,0,0,0,0,0,-32295,0,0,0,4609,0,8488,0
8448,-1300,-8114,784,-41,12,9,12279,-5,1,3,0,36808,100,25,144,0,0,0,0,0,0,0,0,-32295,0,0,0,4610,0,8500,0
8458,-1276,-8112,814,-45,16,13,12278,-1,0,4,0,36809,103,25,144,0,0,0,0,0,0,0,0,-32295,0,0,0,4611,0,8511,0
8468,-1304,-8132,804,-46,13,5,12279,4,1,4,0,36818,105,25,144,0,0,0,0,0,0,0,0,-32295,0,0,0,4611,0,8521,0
8478,-1316,-8094,798,-47,15,7,12278,-4,1,3,0,36819,106,25,144,0,0,0,0,0,0,0,0,-32295,0,0,0,4610,0,8531,0
8488,-1310,-8110,802,-46,9,5,12279,-2,0,4,0,36820,105,25,144,0,0,0,0,0,0,0,0,-32295,0,0,0,4609,0,8541,0
8498,-1296,-8118,820,-50,9,-1,12279,0,1,1,0,36811,105,25,144,0,0,0,0,0,0,0,0,-32295,0,0,0,4610,0,8551,0
8508,-1310,-8108,784,-53,14,4,12278,4,-2,4,0,36809,94,25,144,0,0,0,0,0,0,0,0,-32295,0,0,0,4610,0,8561,0
8518,-1280,-8124,788,-52,12,6,12279,-4,3,2,0,36809,94,25,144,0,0,0,0,0,0,0,0,-32295,0,0,0,4610,0,8571,0
8528,-1270,-8094,774,-52,18,3,12279,-1,1,2,0,36810,95,25,144,0,0,0,0,0,0,0,0,-32295,0,0,0,4609,0,8583,0
8538,-1268,-8102,772,-55,13,10,12279,0,0,3,0,36812,90,25,144,0,0,0,0,0,0,0,0,-32295,0,0,0,4610,0,8593,0
8548,-1292,-8120,788,-52,13,9,12277,-8,-4,2,0,36814,90,25,144,0,0,0,0,0,0,0,0,-32295,0,0,0,4609,0,8603,0
8558,-1280,-8116,766,-46,11,12,12280,3,-3,2,0,36815,86,25,144,0,0,0,0,0,0,0,0,-32295,0,0,0,4609,0,8613,0
8568,-1280,-8102,770,-52,15,12,12279,4,2,3,0,36817,90,25,144,0,0,0,0,0,0,0,0,-32295,0,0,0,4610,0,8626,0
8578,-1330,-8108,778,-49,12,13,12279,-4,-1,3,0,36816,91,25,144,0,0,0,0,0,0,0,0,-32295,0,0,0,4610,0,8636,0
8588,-1322,-8108,798,-50,12,9,12280,13,2,4,0,36816,96,25,144,0,0,0,0,0,0,0,0,-32295,0,0,0,4610,0,8646,0
8598,-1332,-8096,782,-52,12,6,12278,-1,2,1,0,36814,99,25,144,0,0,0,0,0,0,0,0,-32295,0,0,0,4609,0,8656,0
8608,-1332,-8096,798,-58,12,1,12280,4,2,3,0,36814,99,25,144,0,0,0,0,0,0,0,0,-32295,0,0,0,4610,0,8669,0
8618,-1322,-8096,790,-55,10,-3,12278,-3,-3,3,0,36815,96,25,144,0,0,0,0,0,0,0,0,-32295,0,0,0,4610,0,8679,0
8628,-1304,-8106,796,-59,11,-4,12280,6,1,2,0,36814,105,25,144,0,0,0,0,0,0,0,0,-32295,0,0,0,4610,0,8689,0
8638,-1320,-8134,776,-53,17,-1,12279,-4,2,4,0,36813,109,25,144,0,0,0,0,0,0,0,0,-32295,0,0,0,4610,0,8700,0
8648,-1286,-8128,798,-62,17,-5,12280,1,-3,2,0,36812,107,25,144,0,0,0,0,0,0,0,0,-32295,0,0,0,4609,0,8712,0
8658,-1276,-8118,772,-58,14,-4,12278,2,0,3,0,36815,96,25,144,0,0,0,0,0,0,0,0,-32295,0,0,0,4609,0,8722,0
8668,-1278,-8128,780,-59,10,2,12277,-3,-3,1,0,36814,94,25,144,0,0,0,0,0,0,0,0,-32295,0,0,0,4609,0,8732,0
8678,-1288,-8106,774,-58,15,2,12279,4,0,2,0,36821,110,25,144,0,0,0,0,0,0,0,0,-32295,0,0,0,4610,0,8745,0
8688,-1272,-8094,754,-58,16,4,12280,1,2,4,0,36819,105,25,144,0,0,0,0,0,0,0,0,-32295,0,0,0,4609,0,8756,0
8698,-1274,-8106,764,-59,17,6,12279,0,0,1,0,36822,101,25,144,0,0,0,0,0,0,0,0,-32295,0,0,0,4609,0,8766,0
8708,-1296,-8096,770,-56,17,6,12279,-5,2,3,0,36816,90,25,144,0,0,0,0,0,0,0,0,-32295,0,0,0,4610,0,8776,0
8718,-1294,-8102,790,-53,17,3,12279,0,1,4,0,36816,102,25,144,0,0,0,0,0,0,0,0,-32295,0,0,0,4609,0,8789,0
8728,-1310,-8102,802,-52,17,7,12279,-3,0,3,0,36813,102,25,144,0,0,0,0,0,0,0,0,-32295,0,0,0,4609,0,8799,0
8738,-1300,-8116,784,-56,13,8,12279,5,-1,4,0,36815,99,25,144,0,0,0,0,0,0,0,0,-32295,0,0,0,4609,0,8809,0
8748,-1268,-8094,774,-59,14,7,12280,6,8,3,0,36820,99,25,144,0,0,0,0,0,0,0,0,-32295,0,0,0,4609,0,8819,0
8758,-1302,-8102,786,-51,12,6,12279,-3,4,1,0,36820,98,25,144,0,0,0,0,0,0,0,0,-32295,0,0,0,4609,0,8832,0
8768,-1308,-8100,778,-56,8,3,12281,4,4,2,0,36818,102,25,144,0,0,0,0,0,0,0,0,-32295,0,0,0,4610,0,8843,0
8778,-1312,-8116,790,-51,19,10,12279,0,-1,1,0,36818,100,25,144,0,0,0,0,0,0,0,0,-32295,0,0,0,4609,0,8853,0
8788,-1294,-8120,764,-47,13,3,12279,0,-1,5,0,36822,104,25,144,0,0,0,0,0,0,0,0,-32295,0,0,0,4610,0,8863,0
8798,-1320,-8132,752,-48,13,7,12280,6,2,1,0,36820,100,25,144,0,0,0,0,0,0,0,0,-32295,0,0,0,4610,0,8877,0
8808,-1268,-8092,766,-50,13,6,12280,4,3,1,0,36820,97,25,144,0,0,0,0,0,0,0,0,-32295,0,0,0,4610,0,8887,0
8818,-1280,-8104,780,-47,11,1,12279,-3,2,4,0,36817,101,25,144,0,0,0,0,0,0,0,0,-32295,0,0,0,4609,0,8897,0
8828,-1312,-8120,776,-45,15,6,12278,0,4,3,0,36819,102,25,144,0,0,0,0,0,0,0,0,-32294,0,0,0,4610,0,8907,0
8838,-1272,-8102,792,-46,18,8,12278,1,0,4,0,36819,95,25,144,0,0,0,0,0,0,0,0,-32295,0,0,0,4610,0,8920,0
8848,-1314,-8118,782,-47,12,6,12279,-5,-3,3,0,36816,93,25,144,0,0,0,0,0,0,0,0,-32295,0,0,0,4609,0,8930,0
8858,-1310,-8118,784,-52,13,-2,12279,1,1,0,0,36815,93,25,144,0,0,0,0,0,0,0,0,-32295,0,0,0,4610,0,8940,0
8868,-1302,-8108,786,-49,13,0,12279,-4,-2,3,0,36816,92,25,144,0,0,0,0,0,0,0,0,-32295,0,0,0,4609,0,8950,0
8878,-1276,-8086,786,-55,8,0,12280,2,0,3,0,36818,90,25,144,0,0,0,0,0,0,0,0,-32295,0,0,0,4609,0,8963,0
8888,-1292,-8088,770,-53,14,1,12279,3,-1,2,0,36823,94,25,144,0,0,0,0,0,0,0,0,-32295,0,0,0,4609,0,8973,0
8898,-1280,-8120,766,-42,16,-1,12279,1,-1,2,0,36822,100,25,144,0,0,0,0,0,0,0,0,-32295,0,0,0,4608,0,8983,0
8908,-1284,-8108,762,-46,13,-5,12279,-1,-1,3,0,36823,92,25,144,0,0,0,0,0,0,0,0,-32295,0,0,0,4609,0,8993,0
8918,-1288,-8100,756,-47,10,1,12279,-3,-1,2,0,36821,94,25,144,0,0,0,0,0,0,0,0,-32295,0,0,0,4609,0,9006,0
8928,-1292,-8116,768,-43,13,6,12278,-6,-3,3,0,36823,92,25,144,0,0,0,0,0,0,0,0,-32295,0,0,0,4610,0,9016,0
8938,-1274,-8100,780,-44,12,0,12279,-11,2,2,0,36822,101,25,144,0,0,0,0,0,0,0,0,-32295,0,0,0,4609,0,9026,0
8948,-1262,-8106,786,-46,18,3,12279,-3,-2,2,0,36821,98,25,144,0,0,0,0,0,0,0,0,-32295,0,0,0,4609,0,9039,0
8958,-1280,-8108,774,-44,15,-1,12279,8,6,4,0,36823,96,25,144,0,0,0,0,0,0,0,0,-32295,0,0,0,4609,0,9049,0
8968,-1298,-8102,810,-48,13,-2,12279,5,0,3,0,36826,99,25,144,0,0,0,0,0,0,0,0,-32295,0,0,0,4609,0,9059,0
8978,-1294,-8116,762,-49,13,-2,12278,1,4,3,0,36827,102,25,144,0,0,0,0,0,0,0,0,-32295,0,0,0,4609,0,9069,0
8988,-1278,-8112,786,-48,15,0,12280,2,0,3,0,36824,102,25,144,0,0,0,0,0,0,0,0,-32295,0,0,0,4609,0,9082,0
8998,-1282,-8090,770,-45,15,-1,12278,-4,-2,3,0,36825,96,25,144,0,0,0,0,0,0,0,0,-32295,0,0,0,4608,0,9092,0
9008,-1298,-8118,772,-48,7,-4,12278,-6,-1,3,0,36826,89,25,144,0,0,0,0,0,0,0,0,-32296,0,0,0,4608,0,9102,0
9018,-1312,-8112,784,-48,12,-10,12280,3,3,3,0,36827,94,25,144,0,0,0,0,0,0,0,0,-32295,0,0,0,4609,0,9112,0
9028,-1298,-8108,814,-45,16,-5,12279,1,2,2,0,36821,100,25,144,0,0,0,0,0,0,0,0,-32295,0,0,0,4608,0,9125,0
9038,-1272,-8120,794,-42,11,-10,12279,-2,3,3,0,36820,101,25,144,0,0,0,0,0,0,0,0,-32295,0,0,0,4608,0,9135,0
9048,-1272,-8096,778,-46,14,-9,12278,-3,-1,3,0,36818,98,25,144,0,0,0,0,0,0,0,0,-32295,0,0,0,4608,0,9145,0
9058,-1262,-8096,742,-43,9,-2,12279,-2,1,3,0,36821,84,25,144,0,0,0,0,0,0,0,0,-32295,0,0,0,4608,0,9155,0
9068,-1288,-8128,756,-45,14,-4,12278,-3,2,3,0,36822,88,25,144,0,0,0,0,0,0,0,0,-32295,0,0,0,4609,0,9168,0
9078,-1284,-8114,750,-41,16,-6,12280,6,-3,4,0,36821,99,25,144,0,0,0,0,0,0,0,0,-32295,0,0,0,4607,0,9178,0
9088,-1288,-8114,764,-40,10,-5,12279,-7,-5,3,0,36819,104,25,144,0,0,0,0,0,0,0,0,-32295,0,0,0,4607,0,9188,0
9098,-1272,-8108,776,-41,14,-10,12278,-5,6,4,0,36825,100,25,144,0,0,0,0,0,0,0,0,-32295,0,0,0,4607,0,9198,0
9108,-1286,-8102,800,-43,7,-2,12278,-8,-2,2,0,36826,103,25,144,0,0,0,0,0,0,0,0,-32295,0,0,0,4608,0,9211,0
9118,-1272,-8108,782,-41,14,-3,12279,1,-4,3,0,36826,104,25,144,0,0,0,0,0,0,0,0,-32295,0,0,0,4607,0,9221,0
9128,-1314,-8122,772,-48,11,-1,12280,7,-2,3,0,36816,106,25,144,0,0,0,0,0,0,0,0,-32295,0,0,0,4607,0,9232,0
9138,-1310,-8106,794,-41,13,-6,12278,-4,-2,3,0,36816,101,25,144,0,0,0,0,0,0,0,0,-32295,0,0,0,4606,0,9241,0
9148,-1302,-8076,806,-46,10,-13,12279,0,-1,3,0,36817,95,25,144,0,0,0,0,0,0,0,0,-32295,0,0,0,4607,0,9255,0
9158,-1326,-8104,826,-43,15,-13,12279,4,-1,4,0,36819,96,25,144,0,0,0,0,0,0,0,0,-32295,0,0,0,4606,0,9265,0
9168,-1298,-8118,766,-52,15,-14,12278,-5,1,2,0,36818,86,25,144,0,0,0,0,0,0,0,0,-32295,0,0,0,4607,0,9275,0
9178,-1268,-8088,792,-45,19,-16,12278,-4,-1,2,0,36817,92,25,144,0,0,0,0,0,0,0,0,-32295,0,0,0,4606,0,9285,0
9188,-1244,-8124,776,-48,17,-18,12279,1,4,3,0,36817,100,25,144,0,0,0,0,0,0,0,0,-32294,0,0,0,4606,0,9297,0
9198,-1252,-8120,794,-50,16,-16,12279,4,3,4,0,36818,99,25,144,0,0,0,0,0,0,0,0,-32295,0,0,0,4606,0,9307,0
9208,-1188,-8098,768,-50,14,-12,12279,1,1,1,0,36821,93,25,144,0,0,0,0,0,0,0,0,-32295,0,0,0,4606,0,9317,0
9218,-1216,-8108,778,-44,13,1,12277,-3,0,2,0,36819,95,25,144,0,0,0,0,0,0,0,0,-32295,0,0,0,4605,0,9328,0
9228,-1230,-8116,792,-46,11,8,12279,-6,-2,3,0,36819,96,25,144,0,0,0,0,0,0,0,0,-32295,0,0,0,4605,0,9341,0
9238,-1260,-8130,788,-47,16,12,12279,-2,1,2,0,36815,98,25,144,0,0,0,0,0,0,0,0,-32295,0,0,0,4605,0,9351,0
9248,-1264,-8130,780,-50,13,9,12279,0,3,4,0,36815,98,25,144,0,0,0,0,0,0,0,0,-32295,0,0,0,4604,0,9361,0
9258,-1318,-8084,798,-45,12,10,12279,-1,5,2,0,36814,95,25,144,0,0,0,0,0,0,0,0,-32295,0,0,0,4605,0,9372,0
9268,-1286,-8108,800,-57,12,5,12278,1,6,2,0,36812,99,25,144,0,0,0,0,0,0,0,0,-32295,0,0,0,4605,0,9383,0
9278,-1278,-8088,802,-45,17,6,12278,-5,-6,3,0,36811,98,25,144,0,0,0,0,0,0,0,0,-32295,0,0,0,4605,0,9394,0
9288,-1276,-8086,794,-47,14,8,12279,2,6,2,0,36811,105,25,144,0,0,0,0,0,0,0,0,-32295,0,0,0,4605,0,9403,0
9298,-1250,-8114,778,-50,18,7,12280,4,0,3,0,36814,102,25,144,0,0,0,0,0,0,0,0,-32295,0,0,0,4606,0,9416,0
9308,-1240,-8092,774,-48,9,10,12279,1,2,0,0,36817,105,25,144,0,0,0,0,0,0,0,0,-32295,0,0,0,4606,0,9428,0
9318,-1250,-8114,792,-52,15,15,12279,2,2,1,0,36814,97,25,144,0,0,0,0,0,0,0,0,-32294,0,0,0,4606,0,9438,0
9328,-1238,-8098,760,-50,18,14,12279,5,3,1,0,36811,95,25,144,0,0,0,0,0,0,0,0,-32295,0,0,0,4607,0,9448,0
9338,-1264,-8084,764,-51,17,16,12278,-3,0,0,0,36809,97,25,144,0,0,0,0,0,0,0,0,-32295,0,0,0,4606,0,9460,0
9348,-1286,-8120,776,-52,16,16,12279,7,4,5,0,36808,96,25,144,0,0,0,0,0,0,0,0,-32295,0,0,0,4605,0,9471,0
9358,-1280,-8100,774,-45,13,14,12280,2,1,3,0,36807,92,25,144,0,0,0,0,0,0,0,0,-32295,0,0,0,4605,0,9481,0
9368,-1290,-8096,782,-49,11,16,12279,3,2,2,0,36808,85,25,144,0,0,0,0,0,0,0,0,-32295,0,0,0,4605,0,9491,0
9378,-1294,-8122,786,-48,16,13,12278,0,2,3,0,36812,95,25,144,0,0,0,0,0,0,0,0,-32295,0,0,0,4606,0,9503,0
9388,-1306,-8110,792,-44,13,12,12279,0,0,2,0,36813,99,25,144,0,0,0,0,0,0,0,0,-32295,0,0,0,4606,0,9515,0
9398,-1274,-8082,766,-46,11,8,12280,4,-3,3,0,36808,99,25,144,0,0,0,0,0,0,0,0,-32295,0,0,0,4606,0,9525,0
9408,-1258,-8128,792,-45,15,5,12279,-7,1,3,0,36805,95,25,144,0,0,0,0,0,0,0,0,-32295,0,0,0,4606,0,9535,0
9418,-1282,-8110,818,-44,13,7,12279,0,4,4,0,36814,94,25,144,0,0,0,0,0,0,0,0,-32295,0,0,0,4605,0,9546,0
9428,-1292,-8078,826,-50,17,8,12279,-4,1,3,0,36815,98,25,144,0,0,0,0,0,0,0,0,-32295,0,0,0,4606,0,9559,0
9438,-1304,-8114,774,-46,16,10,12279,0,1,2,0,36815,95,25,144,0,0,0,0,0,0,0,0,-32295,0,0,0,4606,0,9569,0
9448,-1286,-8074,762,-54,15,8,12278,-3,1,3,0,36811,99,25,144,0,0,0,0,0,0,0,0,-32295,0,0,0,4606,0,9579,0
9458,-1274,-8090,772,-48,17,2,12279,3,6,2,0,36807,92,25,144,0,0,0,0,0,0,0,0,-32295,0,0,0,4606,0,9591,0
9468,-1286,-8136,804,-50,16,5,12278,-5,-2,2,0,36809,99,25,144,0,0,0,0,0,0,0,0,-32294,0,0,0,4606,0,9601,0
9478,-1290,-8076,810,-51,14,5,12278,0,2,1,0,36819,98,25,144,0,0,0,0,0,0,0,0,-32294,0,0,0,4605,0,9611,0
9488,-1268,-8090,752,-51,10,6,12278,0,0,2,0,36818,102,25,144,0,0,0,0,0,0,0,0,-32294,0,0,0,4605,0,9621,0
9498,-1286,-8118,766,-45,11,6,12279,1,0,3,0,36819,94,25,144,0,0,0,0,0,0,0,0,-32295,0,0,0,4605,0,9635,0
9508,-1302,-8124,808,-49,11,5,12278,-3,2,2,0,36807,89,25,144,0,0,0,0,0,0,0,0,-32295,0,0,0,4606,0,9646,0
9518,-1294,-8082,802,-52,19,1,12278,-5,2,1,0,36818,91,25,144,0,0,0,0,0,0,0,0,-32295,0,0,0,4605,0,9656,0
9528,-1294,-8112,796,-51,19,3,12280,0,0,2,0,36819,97,25,144,0,0,0,0,0,0,0,0,-32295,0,0,0,4606,0,9666,0
9538,-1284,-8098,798,-55,12,0,12280,0,5,2,0,36819,93,25,144,0,0,0,0,0,0,0,0,-32295,0,0,0,4606,0,9679,0
9548,-1270,-8086,804,-53,11,-4,12279,-5,3,4,0,36810,90,25,144,0,0,0,0,0,0,0,0,-32295,0,0,0,4605,0,9689,0
9558,-1282,-8106,792,-58,12,-7,12280,3,1,3,0,36809,95,25,144,0,0,0,0,0,0,0,0,-32295,0,0,0,4606,0,9699,0
9568,-1298,-8076,798,-58,15,-1,12279,9,2,1,0,36813,89,25,144,0,0,0,0,0,0,0,0,-32295,0,0,0,4606,0,9709,0
9578,-1270,-8106,786,-57,15,-8,12279,1,3,4,0,36816,95,25,144,0,0,0,0,0,0,0,0,-32295,0,0,0,4606,0,9721,0
9588,-1272,-8124,796,-59,10,-15,12278,-6,-3,3,0,36817,95,25,144,0,0,0,0,0,0,0,0,-32295,0,0,0,4606,0,9731,0
9598,-1244,-8100,806,-60,14,-9,12278,0,0,4,0,36814,106,25,144,0,0,0,0,0,0,0,0,-32295,0,0,0,4606,0,9741,0
9608,-1236,-8120,774,-62,10,-8,12279,0,-2,3,0,36812,105,25,144,0,0,0,0,0,0,0,0,-32295,0,0,0,4605,0,9751,0
9618,-1278,-8110,780,-58,13,-11,12279,-3,2,1,0,36818,97,25,144,0,0,0,0,0,0,0,0,-32295,0,0,0,4606,0,9765,0
9628,-1304,-8104,778,-58,18,-11,12278,-4,-2,5,0,36818,91,25,144,0,0,0,0,0,0,0,0,-32295,0,0,0,4605,0,9775,0
9638,-1256,-8112,782,-56,18,-10,12280,3,4,3,0,36816,90,25,144,0,0,0,0,0,0,0,0,-32295,0,0,0,4606,0,9785,0
9648,-1224,-8116,786,-56,17,-7,12280,7,2,5,0,36817,87,25,144,0,0,0,0,0,0,0,0,-32295,0,0,0,4604,0,9795,0
9658,-1256,-8094,784,-56,10,-4,12279,-4,2,3,0,36812,92,25,144,0,0,0,0,0,0,0,0,-32295,0,0,0,4603,0,9808,0
9668,-1274,-8114,786,-55,16,2,12281,9,2,2,0,36814,93,25,144,0,0,0,0,0,0,0,0,-32294,0,0,0,4604,0,9818,0
9678,-1264,-8106,776,-59,16,2,12280,3,3,4,0,36812,97,25,144,0,0,0,0,0,0,0,0,-32295,0,0,0,4604,0,9828,0
9688,-1238,-8128,778,-55,11,2,12279,-4,0,3,0,36811,100,25,144,0,0,0,0,0,0,0,0,-32295,0,0,0,4605,0,9838,0
9698,-1254,-8120,764,-58,16,4,12279,-1,-1,3,0,36812,95,25,144,0,0,0,0,0,0,0,0,-32294,0,0,0,4605,0,9852,0
9708,-1266,-8104,770,-54,15,9,12278,-3,0,4,0,36813,96,25,144,0,0,0,0,0,0,0,0,-32294,0,0,0,4605,0,9862,0
9718,-1232,-8112,756,-57,11,7,12279,5,1,2,0,36815,97,25,144,0,0,0,0,0,0,0,0,-32295,0,0,0,4605,0,9872,0
9728,-1256,-8124,776,-52,14,16,12279,2,0,3,0,36820,102,25,144,0,0,0,0,0,0,0,0,-32295,0,0,0,4604,0,9882,0
9738,-1246,-8114,772,-54,19,13,12279,7,0,1,0,36821,102,25,144,0,0,0,0,0,0,0,0,-32294,0,0,0,4605,0,9896,0
9748,-1256,-8126,792,-56,17,14,12280,0,2,3,0,36824,104,25,144,0,0,0,0,0,0,0,0,-32295,0,0,0,4604,0,9906,0
9758,-1268,-8098,776,-59,11,13,12278,-3,-3,3,0,36823,99,25,144,0,0,0,0,0,0,0,0,-32295,0,0,0,4605,0,9916,0
9768,-1260,-8096,754,-56,16,15,12278,0,-3,2,0,36818,97,25,144,0,0,0,0,0,0,0,0,-32295,0,0,0,4605,0,9926,0
9778,-1270,-8132,776,-54,16,12,12278,-4,0,5,0,36818,93,25,144,0,0,0,0,0,0,0,0,-32295,0,0,0,4604,0,9939,0
9788,-1288,-8122,764,-50,13,10,12280,1,1,2,0,36818,98,25,144,0,0,0,0,0,0,0,0,-32295,0,0,0,4605,0,9949,0
9798,-1282,-8088,766,-56,14,11,12279,0,0,4,0,36818,102,25,144,0,0,0,0,0,0,0,0,-32295,0,0,0,4606,0,9959,0
9808,-1284,-8100,764,-51,14,10,12278,-6,1,3,0,36815,102,25,144,0,0,0,0,0,0,0,0,-32295,0,0,0,4605,0,9969,0
9818,-1310,-8110,766,-59,11,9,12280,1,-3,3,0,36815,100,25,144,0,0,0,0,0,0,0,0,-32295,0,0,0,4605,0,9983,0
9828,-1272,-8096,770,-51,11,5,12278,-2,-2,6,0,36817,105,25,144,0,0,0,0,0,0,0,0,-32295,0,0,0,4604,0,9993,0
9838,-1278,-8134,770,-48,14,6,12279,0,2,1,0,36823,95,25,144,0,0,0,0,0,0,0,0,-32295,0,0,0,4605,0,10003,0
9848,-1272,-8084,772,-49,15,6,12278,-6,6,2,0,36823,87,25,144,0,0,0,0,0,0,0,0,-32295,0,0,0,4605,0,10013,0
9858,-1250,-8106,770,-48,14,4,12279,0,2,3,0,36824,92,25,144,0,0,0,0,0,0,0,0,-32295,0,0,0,4605,0,10026,0
9868,-1254,-8132,748,-48,15,13,12278,-1,0,1,0,36820,97,25,144,0,0,0,0,0,0,0,0,-32295,0,0,0,4605,0,10036,0
9878,-1266,-8122,742,-46,12,10,12279,-2,-8,4,0,36820,103,25,144,0,0,0,0,0,0,0,0,-32295,0,0,0,4605,0,10046,0
9888,-1274,-8128,746,-42,14,12,12278,5,5,2,0,36819,104,25,144,0,0,0,0,0,0,0,0,-32295,0,0,0,4605,0,10059,0
9898,-1280,-8120,770,-48,11,8,12279,0,4,1,0,36819,105,25,144,0,0,0,0,0,0,0,0,-32294,0,0,0,4606,0,10069,0
9908,-1288,-8114,756,-43,13,8,12279,-1,2,2,0,36821,110,25,144,0,0,0,0,0,0,0,0,-32295,0,0,0,4605,0,10079,0
9918,-1292,-8100,780,-45,12,4,12280,1,1,3,0,36820,109,25,144,0,0,0,0,0,0,0,0,-32295,0,0,0,4605,0,10089,0
9928,-1330,-8116,788,-39,15,1,12277,-3,0,6,0,36820,112,25,144,0,0,0,0,0,0,0,0,-32294,0,0,0,4605,0,10102,0
9938,-1306,-8120,752,-40,13,0,12279,1,-1,2,0,36823,101,25,144,0,0,0,0,0,0,0,0,-32295,0,0,0,4605,0,10112,0
9948,-1270,-8102,790,-37,12,-3,12278,2,-2,4,0,36822,97,25,144,0,0,0,0,0,0,0,0,-32295,0,0,0,4605,0,10122,0
9958,-1254,-8104,764,-43,12,-2,12279,1,2,6,0,36824,93,25,144,0,0,0,0,0,0,0,0,-32295,0,0,0,4605,0,10132,0
9968,-1246,-8108,778,-40,13,2,12279,3,2,5,0,36823,97,25,144,0,0,0,0,0,0,0,0,-32295,0,0,0,4606,0,10146,0
9978,-1246,-8092,812,-43,8,7,12279,4,-1,6,0,36825,91,25,144,0,0,0,0,0,0,0,0,-32295,0,0,0,4606,0,10156,0
9988,-1252,-8108,786,-43,11,5,12279,-2,-1,3,0,36826,92,25,144,0,0,0,0,0,0,0,0,-32295,0,0,0,4605,0,10166,0
9998,-1258,-8106,766,-43,14,6,12278,-7,0,4,0,36825,95,25,144,0,0,0,0,0,0,0,0,-32294,0,0,0,4605,0,10177,0
10008,-1292,-8112,756,-42,7,13,12279,1,7,3,0,36821,102,25,144,0,0,0,0,0,0,0,0,-32295,0,0,0,4605,0,10190,0
10018,-1260,-8094,752,-35,13,12,12278,-4,-1,2,0,36820,97,25,144,0,0,0,0,0,0,0,0,-32294,0,0,0,4605,0,10200,0
10028,-1294,-8100,768,-36,16,11,12278,0,1,2,0,36820,94,25,144,0,0,0,0,0,0,0,0,-32295,0,0,0,4606,0,10210,0
10038,-1294,-8108,788,-35,10,12,12280,0,0,2,0,36823,96,25,144,0,0,0,0,0,0,0,0,-32294,0,0,0,4605,0,10220,0
10048,-1252,-8140,792,-37,14,9,12279,0,0,4,0,36822,104,25,144,0,0,0,0,0,0,0,0,-32295,0,0,0,4605,0,10233,0
10058,-1262,-8120,798,-38,10,10,12278,-8,1,2,0,36823,109,25,144,0,0,0,0,0,0,0,0,-32295,0,0,0,4605,0,10243,0
10068,-1240,-8074,806,-42,18,13,12279,3,-3,2,0,36819,108,25,144,0,0,0,0,0,0,0,0,-32295,0,0,0,4605,0,10253,0
10078,-1252,-8108,760,-40,13,15,12279,5,-1,3,0,36819,105,25,144,0,0,0,0,0,0,0,0,-32295,0,0,0,4605,0,10265,0
10088,-1256,-8118,774,-38,14,14,12278,1,0,1,0,36817,106,25,144,0,0,0,0,0,0,0,0,-32294,0,0,0,4605,0,10276,0
10098,-1254,-8092,780,-44,14,22,12279,3,-2,4,0,36816,98,25,144,0,0,0,0,0,0,0,0,-32295,0,0,0,4606,0,10286,0
10108,-1276,-8080,778,-36,14,19,12279,6,0,3,0,36818,93,25,144,0,0,0,0,0,0,0,0,-32295,0,0,0,4605,0,10296,0
10118,-1282,-8104,778,-39,16,23,12279,-3,-2,3,0,36820,92,25,144,0,0,0,0,0,0,0,0,-32295,0,0,0,4606,0,10309,0
10128,-1298,-8090,770,-37,18,16,12280,2,1,3,0,36818,99,25,144,0,0,0,0,0,0,0,0,-32295,0,0,0,4606,0,10319,0
10138,-1294,-8128,794,-42,15,18,12279,0,2,-1,0,36816,94,25,144,0,0,0,0,0,0,0,0,-32295,0,0,0,4605,0,10329,0
10148,-1316,-8106,798,-41,14,18,12278,-7,3,3,0,36817,91,25,144,0,0,0,0,0,0,0,0,-32295,0,0,0,4605,0,10339,0
10158,-1316,-8126,784,-46,11,11,12279,-7,-3,3,0,36820,90,25,144,0,0,0,0,0,0,0,0,-32295,0,0,0,4607,0,10352,0
10168,-1262,-8120,768,-39,15,10,12279,0,0,1,0,36820,97,25,144,0,0,0,0,0,0,0,0,-32295,0,0,0,4606,0,10362,0
10178,-1254,-8096,754,-41,15,13,12279,2,-4,4,0,36818,95,25,144,0,0,0,0,0,0,0,0,-32295,0,0,0,4606,0,10372,0
10188,-1238,-8076,786,-42,14,23,12279,5,0,2,0,36818,99,25,144,0,0,0,0,0,0,0,0,-32294,0,0,0,4605,0,10382,0
10198,-1272,-8090,786,-41,14,20,12280,7,-1,3,0,36817,105,25,144,0,0,0,0,0,0,0,0,-32295,0,0,0,4605,0,10395,0
10208,-1248,-8106,810,-43,7,22,12277,-10,0,3,0,36818,97,25,144,0,0,0,0,0,0,0,0,-32295,0,0,0,4606,0,10405,0
10218,-1290,-8110,796,-36,14,27,12279,-2,4,3,0,36815,102,25,144,0,0,0,0,0,0,0,0,-32295,0,0,0,4607,0,10415,0
10228,-1274,-8096,756,-42,9,19,12278,-5,0,3,0,36812,102,25,144,0,0,0,0,0,0,0,0,-32295,0,0,0,4607,0,10425,0
10238,-1298,-8106,780,-38,11,18,12278,1,6,4,0,36811,109,25,144,0,0,0,0,0,0,0,0,-32295,0,0,0,4606,0,10438,0
10248,-1290,-8102,828,-40,13,25,12279,4,-5,3,0,36815,107,25,144,0,0,0,0,0,0,0,0,-32295,0,0,0,4607,0,10448,0
10258,-1278,-8114,792,-43,10,20,12278,-4,2,2,0,36817,105,25,144,0,0,0,0,0,0,0,0,-32295,0,0,0,4607,0,10458,0
10268,-1242,-8112,798,-43,11,27,12278,-1,0,2,0,36815,104,25,144,0,0,0,0,0,0,0,0,-32295,0,0,0,4607,0,10470,0
10278,-1254,-8122,768,-41,14,29,12279,6,0,3,0,36810,97,25,144,0,0,0,0,0,0,0,0,-32295,0,0,0,4607,0,10481,0
10288,-1258,-8094,774,-40,10,34,12279,2,4,3,0,36811,93,25,144,0,0,0,0,0,0,0,0,-32295,0,0,0,4607,0,10491,0
10298,-1254,-8100,774,-42,13,36,12279,1,4,3,0,36809,97,25,144,0,0,0,0,0,0,0,0,-32295,0,0,0,4608,0,10501,0
10308,-1326,-8098,788,-41,12,33,12279,-4,-1,2,0,36809,98,25,144,0,0,0,0,0,0,0,0,-32295,0,0,0,4608,0,10516,0
10318,-1316,-8106,770,-38,9,32,12278,-4,5,0,0,36808,101,25,144,0,0,0,0,0,0,0,0,-32295,0,0,0,4608,0,10527,0
10328,-1318,-8108,800,-43,7,32,12280,5,5,3,0,36807,95,25,144,0,0,0,0,0,0,0,0,-32295,0,0,0,4609,0,10538,0
10338,-1342,-8130,826,-41,6,26,12279,-2,-5,2,0,36810,93,25,144,0,0,0,0,0,0,0,0,-32295,0,0,0,4609,0,10547,0
10348,-1364,-8110,824,-41,7,17,12279,-3,-3,3,0,36815,101,25,144,0,0,0,0,0,0,0,0,-32295,0,0,0,4609,0,10558,0
10358,-1336,-8112,780,-48,15,12,12279,0,-1,2,0,36816,102,25,144,0,0,0,0,0,0,0,0,-32295,0,0,0,4608,0,10568,0
10368,-1296,-8100,774,-44,16,4,12280,5,0,3,0,36814,100,25,144,0,0,0,0,0,0,0,0,-32295,0,0,0,4609,0,10578,0
10378,-1318,-8096,788,-45,12,6,12278,-7,-2,5,0,36813,100,25,144,0,0,0,0,0,0,0,0,-32295,0,0,0,4609,0,10589,0
10388,-1298,-8118,814,-47,12,8,12280,5,1,3,0,36814,106,25,144,0,0,0,0,0,0,0,0,-32295,0,0,0,4609,0,10599,0
10398,-1272,-8126,804,-48,12,14,12279,1,1,4,0,36812,104,25,144,0,0,0,0,0,0,0,0,-32295,0,0,0,4609,0,10609,0
10408,-1278,-8090,808,-52,11,8,12279,1,1,3,0,36809,98,25,144,0,0,0,0,0,0,0,0,-32295,0,0,0,4609,0,10619,0
10418,-1308,-8110,794,-52,16,9,12278,0,-2,3,0,36807,100,25,144,0,0,0,0,0,0,0,0,-32295,0,0,0,4609,0,10629,0
10428,-1320,-8108,796,-48,15,3,12279,0,1,4,0,36805,101,25,144,0,0,0,0,0,0,0,0,-32295,0,0,0,4609,0,10639,0
10438,-1282,-8082,814,-56,16,9,12278,-5,5,3,0,36805,103,25,144,0,0,0,0,0,0,0,0,-32294,0,0,0,4609,0,10649,0
10448,-1292,-8102,782,-53,13,4,12279,2,1,2,0,36808,109,25,144,0,0,0,0,0,0,0,0,-32294,0,0,0,4610,0,10659,0
10458,-1296,-8102,778,-54,18,3,12279,6,4,1,0,36811,102,25,144,0,0,0,0,0,0,0,0,-32295,0,0,0,4609,0,10669,0
10468,-1290,-8078,828,-54,13,0,12280,2,-1,2,0,36810,101,25,144,0,0,0,0,0,0,0,0,-32295,0,0,0,4609,0,10679,0
10478,-1292,-8140,816,-56,11,6,12279,3,0,5,0,36806,91,25,144,0,0,0,0,0,0,0,0,-32295,0,0,0,4609,0,10689,0
10488,-1274,-8086,794,-53,15,3,12278,1,2,3,0,36807,96,25,144,0,0,0,0,0,0,0,0,-32295,0,0,0,4609,0,10699,0
10498,-1286,-8112,790,-55,15,5,12280,0,-3,4,0,36808,104,25,144,0,0,0,0,0,0,0,0,-32295,0,0,0,4609,0,10709,0
10508,-1294,-8116,796,-56,13,8,12278,3,0,4,0,36809,95,25,144,0,0,0,0,0,0,0,0,-32295,0,0,0,4610,0,10719,0
10518,-1314,-8110,772,-59,15,3,12279,2,1,2,0,36809,96,25,144,0,0,0,0,0,0,0,0,-32295,0,0,0,4609,0,10729,0
10528,-1292,-8114,780,-56,15,2,12279,-7,-1,3,0,36808,94,25,144,0,0,0,0,0,0,0,0,-32295,0,0,0,4609,0,10739,0
10538,-1312,-8102,752,-57,18,3,12278,-1,-4,0,0,36808,96,25,144,0,0,0,0,0,0,0,0,-32295,0,0,0,4609,0,10749,0
10548,-1314,-8112,774,-53,15,-1,12279,2,3,2,0,36811,91,25,144,0,0,0,0,0,0,0,0,-32295,0,0,0,4609,0,10759,0
10558,-1316,-8108,788,-48,18,2,12280,0,5,2,0,36812,97,25,144,0,0,0,0,0,0,0,0,-32295,0,0,0,4610,0,10769,0
10568,-1298,-8108,788,-55,16,-3,12279,1,-1,3,0,36813,102,25,144,0,0,0,0,0,0,0,0,-32295,0,0,0,4609,0,10779,0
10578,-1266,-8118,798,-57,13,1,12280,1,2,4,0,36815,104,25,144,0,0,0,0,0,0,0,0,-32295,0,0,0,4609,0,10790,0
10588,-1274,-8106,788,-57,14,3,12278,-3,-4,2,0,36814,99,25,144,0,0,0,0,0,0,0,0,-32295,0,0,0,4609,0,10800,0
10598,-1270,-8116,770,-56,8,1,12280,0,2,3,0,36812,92,25,144,0,0,0,0,0,0,0,0,-32295,0,0,0,4609,0,10810,0
10608,-1312,-8112,778,-52,11,-1,12278,-10,-2,3,0,36813,96,25,144,0,0,0,0,0,0,0,0,-32295,0,0,0,4609,0,10820,0
10618,-1314,-8100,776,-49,10,4,12278,-1,1,2,0,36810,102,25,144,0,0,0,0,0,0,0,0,-32295,0,0,0,4609,0,10830,0
10628,-1284,-8090,762,-51,11,4,12280,8,-4,4,0,36811,99,25,144,0,0,0,0,0,0,0,0,-32295,0,0,0,4609,0,10840,0
10638,-1290,-8118,742,-51,9,3,12279,0,1,2,0,36809,95,25,144,0,0,0,0,0,0,0,0,-32294,0,0,0,4609,0,10850,0
10648,-1308,-8118,774,-46,18,4,12279,3,-4,6,0,36809,92,25,144,0,0,0,0,0,0,0,0,-32294,0,0,0,4609,0,10860,0
10658,-1262,-8088,808,-39,13,-5,12279,-4,1,5,0,36812,94,25,144,0,0,0,0,0,0,0,0,-32295,0,0,0,4609,0,10870,0
10668,-1288,-8112,806,-48,7,-6,12278,-3,-2,2,0,36815,95,25,144,0,0,0,0,0,0,0,0,-32295,0,0,0,4609,0,10880,0
10678,-1286,-8094,800,-45,16,-6,12280,8,-1,4,0,36816,97,25,144,0,0,0,0,0,0,0,0,-32294,0,0,0,4609,0,10890,0
10688,-1298,-8110,786,-47,12,-4,12278,-4,-2,2,0,36811,105,25,144,0,0,0,0,0,0,0,0,-32294,0,0,0,4608,0,10900,0
10698,-1296,-8126,782,-45,11,-5,12279,-5,-2,4,0,36811,109,25,144,0,0,0,0,0,0,0,0,-32295,0,0,0,4609,0,10910,0
10708,-1308,-8114,800,-47,10,-7,12279,0,-1,2,0,36813,104,25,144,0,0,0,0,0,0,0,0,-32295,0,0,0,4609,0,10920,0
10718,-1316,-8112,790,-41,11,-3,12277,-2,-6,2,0,36814,99,25,144,0,0,0,0,0,0,0,0,-32294,0,0,0,4609,0,10930,0
10728,-1282,-8138,770,-48,20,-6,12279,1,-1,4,0,36812,98,25,144,0,0,0,0,0,0,0,0,-32295,0,0,0,4609,0,10940,0
10738,-1216,-8116,766,-47,16,-7,12278,-7,0,2,0,36809,97,25,144,0,0,0,0,0,0,0,0,-32295,0,0,0,4609,0,10950,0
10748,-1278,-8090,764,-42,15,-2,12279,-2,1,4,0,36816,97,25,144,0,0,0,0,0,0,0,0,-32295,0,0,0,4609,0,10960,0
10758,-1266,-8096,800,-45,16,-8,12278,-6,-4,4,0,36831,101,25,144,0,0,0,0,0,0,0,0,-32295,0,0,0,4609,0,10970,0
10768,-1272,-8116,794,-42,14,-7,12280,9,0,2,0,36842,97,25,144,0,0,0,0,0,0,0,0,-32294,0,0,0,4609,0,10980,0
10778,-1278,-8096,800,-47,13,-2,12279,-9,2,4,0,36848,93,25,144,0,0,0,0,0,0,0,0,-32295,0,0,0,4608,0,10990,0
10788,-1288,-8124,800,-48,14,3,12279,0,-1,2,0,36836,98,25,144,0,0,0,0,0,0,0,0,-32295,0,0,0,4608,0,11000,0
10798,-1280,-8106,798,-47,16,6,12279,8,1,2,0,36830,102,25,144,0,0,0,0,0,0,0,0,-32294,0,0,0,4608,0,11010,0
10808,-1268,-8086,778,-47,16,7,12280,3,4,3,0,36820,98,25,144,0,0,0,0,0,0,0,0,-32295,0,0,0,4608,0,11020,0
10818,-1256,-8112,808,-46,12,12,12279,-1,-2,2,0,36818,95,25,144,0,0,0,0,0,0,0,0,-32295,0,0,0,4607,0,11030,0
10828,-1284,-8094,788,-51,13,10,12280,7,3,2,0,36816,103,25,144,0,0,0,0,0,0,0,0,-32295,0,0,0,4608,0,11040,0
10838,-1278,-8084,790,-46,15,14,12280,9,-1,3,0,36818,108,25,144,0,0,0,0,0,0,0,0,-32295,0,0,0,4609,0,11050,0
10848,-1282,-8134,798,-48,14,14,12279,3,3,2,0,36819,99,25,144,0,0,0,0,0,0,0,0,-32295,0,0,0,4607,0,11060,0
10858,-1284,-8092,818,-47,13,14,12280,9,-3,4,0,36817,93,25,144,0,0,0,0,0,0,0,0,-32295,0,0,0,4608,0,11070,0
10868,-1286,-8110,820,-48,12,14,12278,-3,-3,2,0,36822,96,25,144,0,0,0,0,0,0,0,0,-32295,0,0,0,4608,0,11080,0
10878,-1270,-8100,808,-50,15,15,12280,2,3,4,0,36823,104,25,144,0,0,0,0,0,0,0,0,-32295,0,0,0,4608,0,11090,0
10888,-1274,-8096,794,-51,15,22,12278,6,1,1,0,36824,107,25,144,0,0,0,0,0,0,0,0,-32295,0,0,0,4609,0,11100,0
10898,-1250,-8098,786,-54,14,15,12278,0,-4,3,0,36820,104,25,144,0,0,0,0,0,0,0,0,-32295,0,0,0,4609,0,11111,0
10908,-1290,-8148,804,-55,14,15,12280,7,0,4,0,36819,101,25,144,0,0,0,0,0,0,0,0,-32294,0,0,0,4609,0,11120,0
10918,-1326,-8094,780,-50,16,17,12278,-3,0,1,0,36820,96,25,144,0,0,0,0,0,0,0,0,-32294,0,0,0,4608,0,11130,0
10928,-1312,-8102,776,-51,11,11,12278,-9,1,4,0,36819,95,25,144,0,0,0,0,0,0,0,0,-32294,0,0,0,4609,0,11140,0
10938,-1308,-8092,778,-50,18,7,12278,1,6,3,0,36819,99,25,144,0,0,0,0,0,0,0,0,-32294,0,0,0,4608,0,11151,0
10948,-1320,-8116,766,-47,14,4,12279,-3,-1,2,0,36820,95,25,144,0,0,0,0,0,0,0,0,-32295,0,0,0,4608,0,11160,0
10958,-1314,-8114,802,-52,9,7,12278,-1,1,4,0,36820,95,25,144,0,0,0,0,0,0,0,0,-32294,0,0,0,4608,0,11170,0
10968,-1304,-8104,766,-46,11,5,12278,-1,1,1,0,36821,94,25,144,0,0,0,0,0,0,0,0,-32294,0,0,0,4609,0,11180,0
10978,-1332,-8086,782,-48,15,2,12280,9,0,3,0,36823,95,25,144,0,0,0,0,0,0,0,0,-32294,0,0,0,4608,0,11190,0
10988,-1324,-8110,802,-48,14,-3,12280,4,-2,2,0,36826,96,25,144,0,0,0,0,0,0,0,0,-32295,0,0,0,4608,0,11200,0
10998,-1292,-8074,788,-51,13,-2,12279,-1,1,2,0,36827,91,25,144,0,0,0,0,0,0,0,0,-32294,0,0,0,4608,0,11210,0
11008,-1322,-8114,790,-54,13,-4,12279,0,-1,3,0,36826,107,25,144,0,0,0,0,0,0,0,0,-32295,0,0,0,4608,0,11221,0
11018,-1298,-8110,802,-55,11,-4,12279,-1,-3,3,0,36825,105,25,144,0,0,0,0,0,0,0,0,-32295,0,0,0,4608,0,11233,0
11028,-1292,-8096,796,-54,11,-11,12279,0,-4,4,0,36820,112,25,144,0,0,0,0,0,0,0,0,-32295,0,0,0,4609,0,11243,0
11038,-1254,-8114,780,-48,9,-9,12280,0,-6,2,0,36819,104,25,144,0,0,0,0,0,0,0,0,-32294,0,0,0,4608,0,11253,0
11048,-1236,-8100,782,-53,11,-5,12279,-2,-1,3,0,36819,104,25,144,0,0,0,0,0,0,0,0,-32295,0,0,0,4607,0,11263,0
11058,-1266,-8102,786,-51,14,-6,12280,7,0,4,0,36820,104,25,144,0,0,0,0,0,0,0,0,-32294,0,0,0,4607,0,11273,0
11068,-1268,-8134,760,-48,12,3,12278,1,2,1,0,36824,96,25,144,0,0,0,0,0,0,0,0,-32294,0,0,0,4608,0,11283,0
11078,-1282,-8098,770,-46,11,3,12279,-2,1,2,0,36823,95,25,144,0,0,0,0,0,0,0,0,-32295,0,0,0,4607,0,11293,0
11088,-1238,-8112,776,-46,12,7,12280,0,-1,2,0,36821,99,25,144,0,0,0,0,0,0,0,0,-32295,0,0,0,4608,0,11303,0
11098,-1276,-8110,802,-49,13,3,12279,-3,1,1,0,36816,95,25,144,0,0,0,0,0,0,0,0,-32295,0,0,0,4608,0,11313,0
11108,-1334,-8136,786,-46,13,4,12278,2,4,4,0,36815,94,25,144,0,0,0,0,0,0,0,0,-32295,0,0,0,4608,0,11323,0
11118,-1320,-8086,786,-47,11,3,12279,-3,1,2,0,36816,91,25,144,0,0,0,0,0,0,0,0,-32295,0,0,0,4607,0,11333,0
11128,-1282,-8108,810,-48,12,-7,12278,-3,2,3,0,36817,95,25,144,0,0,0,0,0,0,0,0,-32295,0,0,0,4608,0,11343,0
11138,-1302,-8130,798,-46,11,-6,12280,8,0,2,0,36817,99,25,144,0,0,0,0,0,0,0,0,-32295,0,0,0,4607,0,11353,0
11148,-1280,-8092,802,-51,12,-9,12279,3,4,3,0,36814,95,25,144,0,0,0,0,0,0,0,0,-32294,0,0,0,4607,0,11363,0
11158,-1286,-8116,810,-49,14,-8,12279,-1,-7,3,0,36814,93,25,144,0,0,0,0,0,0,0,0,-32295,0,0,0,4607,0,11373,0
11168,-1282,-8112,816,-52,12,-10,12279,6,4,2,0,36820,94,25,144,0,0,0,0,0,0,0,0,-32295,0,0,0,4607,0,11383,0
11178,-1288,-8110,778,-50,10,-4,12278,1,1,4,0,36822,98,25,144,0,0,0,0,0,0,0,0,-32295,0,0,0,4607,0,11393,0
11188,-1272,-8102,808,-47,13,-6,12279,1,3,3,0,36822,96,25,144,0,0,0,0,0,0,0,0,-32295,0,0,0,4607,0,11403,0
11198,-1262,-8106,786,-49,10,0,12278,-2,-8,3,0,36823,104,25,144,0,0,0,0,0,0,0,0,-32294,0,0,0,4607,0,11413,0
11208,-1274,-8088,784,-50,18,-8,12278,-2,-1,4,0,36817,104,25,144,0,0,0,0,0,0,0,0,-32295,0,0,0,4606,0,11423,0
11218,-1292,-8114,814,-54,8,-6,12280,7,5,0,0,36816,107,25,144,0,0,0,0,0,0,0,0,-32295,0,0,0,4607,0,11433,0
11228,-1274,-8104,788,-57,10,-11,12280,0,-3,3,0,36812,100,25,144,0,0,0,0,0,0,0,0,-32294,0,0,0,4607,0,11443,0
11238,-1276,-8096,772,-54,17,-12,12278,0,0,1,0,36809,97,25,144,0,0,0,0,0,0,0,0,-32294,0,0,0,4605,0,11453,0
11248,-1264,-8128,776,-55,12,-3,12279,-6,-2,1,0,36810,93,25,144,0,0,0,0,0,0,0,0,-32295,0,0,0,4606,0,11463,0
11258,-1252,-8132,764,-58,19,-4,12278,-9,-2,4,0,36811,86,25,144,0,0,0,0,0,0,0,0,-32295,0,0,0,4606,0,11473,0
11268,-1256,-8104,816,-54,13,-5,12279,2,-4,4,0,36817,86,25,144,0,0,0,0,0,0,0,0,-32295,0,0,0,4605,0,11483,0
11278,-1258,-8128,754,-56,13,6,12279,-3,4,4,0,36817,94,25,144,0,0,0,0,0,0,0,0,-32294,0,0,0,4605,0,11493,0
11288,-1252,-8108,808,-53,16,11,12278,-2,0,4,0,36815,98,25,144,0,0,0,0,0,0,0,0,-32295,0,0,0,4606,0,11503,0
11298,-1276,-8112,814,-56,9,8,12279,-1,2,2,0,36814,90,25,144,0,0,0,0,0,0,0,0,-32294,0,0,0,4605,0,11513,0
11308,-1238,-8118,802,-57,14,14,12279,4,0,4,0,36811,93,25,144,0,0,0,0,0,0,0,0,-32295,0,0,0,4605,0,11523,0
11318,-1246,-8114,788,-58,10,15,12278,-4,5,2,0,36813,92,25,144,0,0,0,0,0,0,0,0,-32295,0,0,0,4605,0,11533,0
11328,-1236,-8100,766,-54,16,19,12279,1,-1,3,0,36810,97,25,144,0,0,0,0,0,0,0,0,-32295,0,0,0,4605,0,11543,0
11338,-1240,-8112,766,-56,16,21,12279,0,-1,3,0,36807,96,25,144,0,0,0,0,0,0,0,0,-32294,0,0,0,4606,0,11553,0
11348,-1256,-8092,758,-59,15,26,12279,0,2,0,0,36808,99,25,144,0,0,0,0,0,0,0,0,-32294,0,0,0,4606,0,11563,0
11358,-1248,-8112,768,-56,18,26,12278,-1,1,3,0,36808,98,25,144,0,0,0,0,0,0,0,0,-32295,0,0,0,4605,0,11573,0
11368,-1272,-8120,788,-52,21,28,12278,-5,1,1,0,36808,101,25,144,0,0,0,0,0,0,0,0,-32295,0,0,0,4605,0,11583,0
11378,-1278,-8106,784,-55,14,31,12278,0,-1,6,0,36807,100,25,144,0,0,0,0,0,0,0,0,-32295,0,0,0,4607,0,11593,0
11388,-1278,-8080,794,-57,19,27,12280,-3,0,3,0,36812,95,25,144,0,0,0,0,0,0,0,0,-32295,0,0,0,4607,0,11603,0
11398,-1272,-8100,794,-52,20,35,12278,-2,7,2,0,36814,94,25,144,0,0,0,0,0,0,0,0,-32295,0,0,0,4608,0,11613,0
11408,-1274,-8122,790,-57,15,32,12279,2,1,4,0,36812,87,25,144,0,0,0,0,0,0,0,0,-32295,0,0,0,4607,0,11623,0
11418,-1318,-8098,790,-63,20,28,12279,0,-3,3,0,36808,92,25,144,0,0,0,0,0,0,0,0,-32295,0,0,0,4607,0,11633,0
11428,-1314,-8086,764,-56,20,28,12279,1,2,2,0,36805,91,25,144,0,0,0,0,0,0,0,0,-32295,0,0,0,4607,0,11644,0
11438,-1314,-8102,768,-57,13,26,12278,-6,-12,2,0,36805,91,25,144,0,0,0,0,0,0,0,0,-32295,0,0,0,4607,0,11654,0
11448,-1312,-8080,758,-51,17,20,12278,-3,-4,3,0,36805,87,25,144,0,0,0,0,0,0,0,0,-32294,0,0,0,4607,0,11664,0
11458,-1302,-8098,780,-51,20,20,12279,0,1,4,0,36805,89,25,144,0,0,0,0,0,0,0,0,-32294,0,0,0,4607,0,11674,0
11468,-1308,-8128,782,-50,13,16,12279,0,0,3,0,36805,93,25,144,0,0,0,0,0,0,0,0,-32295,0,0,0,4607,0,11684,0
11478,-1286,-8100,782,-47,13,10,12279,0,-3,2,0,36805,92,25,144,0,0,0,0,0,0,0,0,-32294,0,0,0,4608,0,11694,0
11488,-1286,-8108,784,-49,13,16,12280,7,-1,3,0,36813,91,25,144,0,0,0,0,0,0,0,0,-32295,0,0,0,4608,0,11704,0
11498,-1306,-8090,796,-52,15,13,12279,-2,1,3,0,36813,93,25,144,0,0,0,0,0,0,0,0,-32295,0,0,0,4608,0,11714,0
11508,-1316,-8088,790,-48,16,16,12279,4,-2,3,0,36813,96,25,144,0,0,0,0,0,0,0,0,-32294,0,0,0,4608,0,11724,0
11518,-1292,-8118,776,-55,18,11,12279,1,-1,1,0,36807,95,25,144,0,0,0,0,0,0,0,0,-32295,0,0,0,4608,0,11734,0
11528,-1332,-8092,770,-50,16,7,12279,7,4,3,0,36808,104,25,144,0,0,0,0,0,0,0,0,-32294,0,0,0,4608,0,11744,0
11538,-1302,-8112,772,-49,16,4,12279,5,3,3,0,36808,107,25,144,0,0,0,0,0,0,0,0,-32295,0,0,0,4608,0,11754,0
11548,-1290,-8106,770,-46,13,-3,12279,0,3,3,0,36807,102,25,144,0,0,0,0,0,0,0,0,-32295,0,0,0,4608,0,11764,0
11558,-1282,-8096,758,-56,14,4,12280,1,2,3,0,36806,89,25,144,0,0,0,0,0,0,0,0,-32295,0,0,0,4608,0,11774,0
11568,-1292,-8084,774,-52,14,2,12279,1,2,3,0,36808,90,25,144,0,0,0,0,0,0,0,0,-32295,0,0,0,4608,0,11784,0
11578,-1260,-8118,732,-47,12,0,12279,0,4,3,0,36808,99,25,144,0,0,0,0,0,0,0,0,-32295,0,0,0,4608,0,11794,0
11588,-1242,-8104,764,-43,13,6,12278,3,-4,1,0,36813,102,25,144,0,0,0,0,0,0,0,0,-32295,0,0,0,4608,0,11804,0
11598,-1250,-8098,760,-40,14,13,12278,-5,-2,2,0,36814,95,25,144,0,0,0,0,0,0,0,0,-32294,0,0,0,4608,0,11814,0
11608,-1260,-8128,786,-40,16,13,12279,-3,-1,2,0,36817,92,25,144,0,0,0,0,0,0,0,0,-32294,0,0,0,4608,0,11824,0
11618,-1302,-8124,784,-46,13,16,12280,7,1,3,0,36815,105,25,144,0,0,0,0,0,0,0,0,-32294,0,0,0,4608,0,11834,0
11628,-1352,-8108,786,-48,11,12,12279,5,2,3,0,36814,95,25,144,0,0,0,0,0,0,0,0,-32295,0,0,0,4608,0,11844,0
11638,-1338,-8104,766,-41,10,9,12278,-3,1,3,0,36811,101,25,144,0,0,0,0,0,0,0,0,-32294,0,0,0,4608,0,11854,0
11648,-1302,-8096,794,-44,10,3,12280,-1,0,3,0,36808,98,25,144,0,0,0,0,0,0,0,0,-32294,0,0,0,4608,0,11864,0
11658,-1322,-8126,812,-42,10,-3,12280,5,-1,2,0,36808,99,25,144,0,0,0,0,0,0,0,0,-32294,0,0,0,4608,0,11874,0
11668,-1276,-8112,792,-44,11,-3,12278,-3,-2,3,0,36810,105,25,144,0,0,0,0,0,0,0,0,-32294,0,0,0,4608,0,11884,0
11678,-1286,-8112,800,-46,11,1,12279,-5,2,2,0,36814,104,25,144,0,0,0,0,0,0,0,0,-32295,0,0,0,4607,0,11894,0
11688,-1294,-8120,792,-48,8,1,12279,3,-7,4,0,36814,98,25,144,0,0,0,0,0,0,0,0,-32295,0,0,0,4608,0,11904,0
11698,-1280,-8090,788,-44,12,-7,12277,-9,-7,0,0,36819,92,25,144,0,0,0,0,0,0,0,0,-32294,0,0,0,4608,0,11914,0
11708,-1260,-8116,796,-47,11,-5,12278,-4,-1,4,0,36818,91,25,144,0,0,0,0,0,0,0,0,-32295,0,0,0,4608,0,11924,0
11718,-1254,-8104,780,-45,11,1,12280,4,5,2,0,36820,97,25,144,0,0,0,0,0,0,0,0,-32294,0,0,0,4608,0,11934,0
11728,-1284,-8082,780,-43,13,1,12279,2,0,2,0,36812,102,25,144,0,0,0,0,0,0,0,0,-32294,0,0,0,4608,0,11944,0
11738,-1278,-8104,786,-49,12,-4,12279,3,3,4,0,36811,97,25,144,0,0,0,0,0,0,0,0,-32295,0,0,0,4608,0,11954,0
11748,-1304,-8102,784,-48,12,-5,12279,-8,0,2,0,36809,97,25,144,0,0,0,0,0,0,0,0,-32295,0,0,0,4608,0,11964,0
11758,-1316,-8096,794,-47,13,-5,12279,-1,-6,2,0,36814,98,25,144,0,0,0,0,0,0,0,0,-32294,0,0,0,4608,0,11974,0
11768,-1258,-8126,774,-53,12,-2,12280,6,1,3,0,36817,97,25,144,0,0,0,0,0,0,0,0,-32295,0,0,0,4608,0,11984,0
11778,-1270,-8114,772,-51,11,-5,12279,-3,-2,1,0,36815,94,25,144,0,0,0,0,0,0,0,0,-32295,0,0,0,4607,0,11994,0
11788,-1260,-8084,802,-50,17,-2,12279,6,-4,3,0,36813,93,25,144,0,0,0,0,0,0,0,0,-32294,0,0,0,4606,0,12004,0
11798,-1278,-8112,796,-50,11,3,12279,1,-5,3,0,36824,98,25,144,0,0,0,0,0,0,0,0,-32294,0,0,0,4607,0,12014,0
11808,-1270,-8126,798,-49,14,6,12279,0,-3,2,0,36826,86,25,144,0,0,0,0,0,0,0,0,-32295,0,0,0,4608,0,12024,0
11818,-1272,-8090,770,-48,12,3,12279,2,0,3,0,36827,94,25,144,0,0,0,0,0,0,0,0,-32294,0,0,0,4607,0,12034,0
11828,-1270,-8110,764,-52,12,7,12279,0,-4,3,0,36820,102,25,144,0,0,0,0,0,0,0,0,-32295,0,0,0,4608,0,12044,0
11838,-1310,-8128,748,-51,17,2,12279,0,-1,3,0,36816,107,25,144,0,0,0,0,0,0,0,0,-32295,0,0,0,4607,0,12054,0
11848,-1282,-8112,774,-47,17,1,12278,-7,-1,2,0,36814,98,25,144,0,0,0,0,0,0,0,0,-32295,0,0,0,4607,0,12064,0
11858,-1282,-8100,774,-46,12,3,12278,-8,1,2,0,36815,100,25,144,0,0,0,0,0,0,0,0,-32295,0,0,0,4608,0,12074,0
11868,-1324,-8088,782,-49,14,2,12279,1,1,3,0,36817,104,25,144,0,0,0,0,0,0,0,0,-32294,0,0,0,4608,0,12084,0
11878,-1284,-8098,780,-47,14,5,12279,4,4,4,0,36818,105,25,144,0,0,0,0,0,0,0,0,-32295,0,0,0,4608,0,12094,0
11888,-1284,-8116,792,-49,10,0,12280,5,0,4,0,36818,101,25,144,0,0,0,0,0,0,0,0,-32294,0,0,0,4608,0,12104,0
11898,-1268,-8102,798,-50,12,0,12279,-8,3,4,0,36823,99,25,144,0,0,0,0,0,0,0,0,-32294,0,0,0,4607,0,12114,0
11908,-1296,-8106,760,-53,10,5,12280,4,2,2,0,36824,97,25,144,0,0,0,0,0,0,0,0,-32294,0,0,0,4607,0,12124,0
11918,-1288,-8108,776,-53,7,1,12279,0,2,4,0,36823,98,25,144,0,0,0,0,0,0,0,0,-32294,0,0,0,4608,0,12134,0
11928,-1274,-8116,758,-46,13,1,12278,-9,-3,2,0,36822,93,25,144,0,0,0,0,0,0,0,0,-32294,0,0,0,4607,0,12144,0
11938,-1290,-8094,768,-48,11,-1,12279,4,0,3,0,36819,92,25,144,0,0,0,0,0,0,0,0,-32294,0,0,0,4608,0,12154,0
11948,-1284,-8124,784,-46,12,1,12278,5,-3,3,0,36822,89,25,144,0,0,0,0,0,0,0,0,-32295,0,0,0,4608,0,12164,0
11958,-1286,-8118,792,-50,12,-4,12278,-4,5,3,0,36821,83,25,144,0,0,0,0,0,0,0,0,-32295,0,0,0,4607,0,12174,0
11968,-1286,-8102,784,-47,12,0,12278,0,-4,3,0,36821,89,25,144,0,0,0,0,0,0,0,0,-32294,0,0,0,4607,0,12184,0
11978,-1272,-8124,794,-50,12,-4,12280,4,-1,4,0,36821,95,25,144,0,0,0,0,0,0,0,0,-32294,0,0,0,4608,0,12194,0
11988,-1292,-8138,774,-49,15,-5,12280,2,1,3,0,36820,104,25,144,0,0,0,0,0,0,0,0,-32295,0,0,0,4607,0,12204,0
11998,-1274,-8102,784,-48,11,-2,12279,2,2,3,0,36819,92,25,144,0,0,0,0,0,0,0,0,-32294,0,0,0,4607,0,12214,0
12008,-1298,-8072,796,-52,14,-4,12278,-8,0,5,0,36825,97,25,144,0,0,0,0,0,0,0,0,-32294,0,0,0,4607,0,12224,0
12018,-1298,-8104,782,-50,11,-4,12279,-3,-5,4,0,36829,101,25,144,0,0,0,0,0,0,0,0,-32296,0,0,0,4608,0,12235,0
12028,-1302,-8096,764,-53,16,-6,12279,0,-3,1,0,36832,109,25,144,0,0,0,0,0,0,0,0,-32294,0,0,0,4606,0,12245,0
12038,-1320,-8086,770,-46,15,-12,12278,-2,-4,2,0,36836,99,25,144,0,0,0,0,0,0,0,0,-32294,0,0,0,4607,0,12255,0
12048,-1298,-8136,774,-42,12,-7,12280,5,1,1,0,36829,89,25,144,0,0,0,0,0,0,0,0,-32294,0,0,0,4606,0,12265,0
12058,-1260,-8092,786,-48,16,-13,12280,1,-1,3,0,36828,90,25,144,0,0,0,0,0,0,0,0,-32295,0,0,0,4606,0,12275,0
12068,-1246,-8110,774,-46,15,-2,12278,0,5,4,0,36815,94,25,144,0,0,0,0,0,0,0,0,-32294,0,0,0,4607,0,12285,0
12078,-1244,-8144,768,-45,14,0,12278,-2,2,2,0,36814,92,25,144,0,0,0,0,0,0,0,0,-32294,0,0,0,4607,0,12295,0
12088,-1252,-8126,814,-45,10,5,12278,-5,-1,3,0,36816,94,25,144,0,0,0,0,0,0,0,0,-32294,0,0,0,4607,0,12305,0
12098,-1280,-8118,814,-43,11,12,12279,1,-4,3,0,36817,93,25,144,0,0,0,0,0,0,0,0,-32294,0,0,0,4606,0,12315,0
12108,-1280,-8138,812,-51,9,7,12278,-6,1,2,0,36817,90,25,144,0,0,0,0,0,0,0,0,-32294,0,0,0,4605,0,12325,0
12118,-1296,-8092,786,-52,14,7,12280,0,-3,4,0,36825,99,25,144,0,0,0,0,0,0,0,0,-32295,0,0,0,4605,0,12335,0
12128,-1316,-8100,796,-51,12,4,12280,8,2,2,0,36827,98,25,144,0,0,0,0,0,0,0,0,-32295,0,0,0,4605,0,12345,0
12138,-1288,-8102,762,-49,17,-3,12278,-2,0,3,0,36824,96,25,144,0,0,0,0,0,0,0,0,-32295,0,0,0,4605,0,12355,0
12148,-1274,-8120,766,-49,18,-4,12280,7,1,3,0,36813,92,25,144,0,0,0,0,0,0,0,0,-32295,0,0,0,4606,0,12371,0
12158,-1258,-8102,748,-53,16,-2,12280,-3,2,4,0,36812,92,25,144,0,0,0,0,0,0,0,0,-32294,0,0,0,4606,0,12391,0
12168,-1264,-8132,806,-47,14,1,12277,-5,3,4,0,36815,101,25,144,0,0,0,0,0,0,0,0,-32295,0,0,0,4605,0,12412,0
12178,-1276,-8102,816,-49,8,-4,12279,6,-3,2,0,36816,100,25,144,0,0,0,0,0,0,0,0,-32295,0,0,0,4605,0,12432,0
12188,-1286,-8088,820,-55,10,-7,12278,-3,3,2,0,36813,99,25,144,0,0,0,0,0,0,0,0,-32295,0,0,0,4605,0,12452,0
12198,-1304,-8126,802,-52,9,-7,12279,0,2,4,0,36811,87,25,144,0,0,0,0,0,0,0,0,-32294,0,0,0,4605,0,12472,0
12208,-1290,-8104,776,-53,11,-8,12279,-3,-1,3,0,36815,92,25,144,0,0,0,0,0,0,0,0,-32294,0,0,0,4605,0,12492,0
12218,-1286,-8118,812,-54,17,-10,12279,0,-3,5,0,36816,91,25,144,0,0,0,0,0,0,0,0,-32295,0,0,0,4605,0,12513,0
12228,-1288,-8118,770,-56,16,-14,12278,-7,-2,2,0,36818,99,25,144,0,0,0,0,0,0,0,0,-32295,0,0,0,4605,0,12536,0
12238,-1266,-8128,758,-61,15,-13,12279,-1,-1,1,0,36813,100,25,144,0,0,0,0,0,0,0,0,-32294,0,0,0,4604,0,12556,0
12248,-1294,-8126,772,-53,19,-15,12279,0,-1,5,0,36811,99,25,144,0,0,0,0,0,0,0,0,-32294,0,0,0,4604,0,12576,0
12258,-1328,-8102,794,-48,16,-20,12278,-5,2,5,0,36810,88,25,144,0,0,0,0,0,0,0,0,-32294,0,0,0,4603,0,12596,0
12268,-1296,-8102,804,-52,19,-27,12277,0,-1,2,0,36812,87,25,144,0,0,0,0,0,0,0,0,-32295,0,0,0,4604,0,12616,0
12278,-1256,-8090,808,-57,21,-24,12279,0,4,3,0,36813,95,25,144,0,0,0,0,0,0,0,0,-32295,0,0,0,4603,0,12636,0
12288,-1214,-8096,774,-57,17,-19,12279,5,5,2,0,36810,97,25,144,0,0,0,0,0,0,0,0,-32295,0,0,0,4602,0,12656,0
12298,-1214,-8098,782,-59,12,-16,12278,-1,2,4,0,36806,91,25,144,0,0,0,0,0,0,0,0,-32294,0,0,0,4602,0,12676,0
12308,-1204,-8100,794,-60,13,-7,12279,-1,-2,3,0,36808,96,25,144,0,0,0,0,0,0,0,0,-32294,0,0,0,4602,0,12696,0
12318,-1220,-8110,770,-59,19,-4,12280,-2,-1,2,0,36809,104,25,144,0,0,0,0,0,0,0,0,-32295,0,0,0,4601,0,12716,0
12328,-1216,-8110,762,-61,15,4,12279,6,1,2,0,36814,102,25,144,0,0,0,0,0,0,0,0,-32295,0,0,0,4602,0,12736,0
12338,-1238,-8118,754,-58,12,6,12279,3,-2,3,0,36812,95,25,144,0,0,0,0,0,0,0,0,-32295,0,0,0,4602,0,12756,0
12348,-1242,-8122,752,-53,13,9,12279,-6,1,4,0,36812,87,25,144,0,0,0,0,0,0,0,0,-32295,0,0,0,4601,0,12776,0
12358,-1280,-8130,772,-54,17,15,12279,-1,3,3,0,36809,94,25,144,0,0,0,0,0,0,0,0,-32295,0,0,0,4602,0,12796,0
12368,-1270,-8104,792,-52,13,12,12279,2,-2,3,0,36808,95,25,144,0,0,0,0,0,0,0,0,-32295,0,0,0,4603,0,12816,0
12378,-1252,-8104,784,-57,18,7,12278,-1,2,3,0,36807,95,25,144,0,0,0,0,0,0,0,0,-32295,0,0,0,4602,0,12836,0
12388,-1254,-8118,796,-53,17,9,12279,1,5,3,0,36805,97,25,144,0,0,0,0,0,0,0,0,-32295,0,0,0,4602,0,12856,0
12398,-1244,-8094,792,-53,17,14,12279,3,2,4,0,36806,90,25,144,0,0,0,0,0,0,0,0,-32295,0,0,0,4602,0,12876,0
12408,-1204,-8098,786,-58,19,11,12280,0,0,2,0,36809,85,25,144,0,0,0,0,0,0,0,0,-32295,0,0,0,4602,0,12896,0
12418,-1264,-8132,794,-56,19,12,12280,4,0,3,0,36809,90,25,144,0,0,0,0,0,0,0,0,-32295,0,0,0,4602,0,12916,0
12428,-1246,-8122,762,-64,14,16,12279,-1,0,1,0,36809,99,25,144,0,0,0,0,0,0,0,0,-32295,0,0,0,4601,0,12937,0
12438,-1252,-8080,806,-53,15,16,12279,3,0,2,0,36812,102,25,144,0,0,0,0,0,0,0,0,-32295,0,0,0,4601,0,12957,0
12448,-1288,-8134,764,-57,15,13,12279,4,-3,5,0,36810,99,25,144,0,0,0,0,0,0,0,0,-32294,0,0,0,4603,0,12977,0
12458,-1300,-8086,770,-54,8,10,12280,6,-2,4,0,36810,98,25,144,0,0,0,0,0,0,0,0,-32294,0,0,0,4601,0,12997,0
12468,-1300,-8106,762,-55,14,5,12279,-3,1,2,0,36806,96,25,144,0,0,0,0,0,0,0,0,-32295,0,0,0,4603,0,13017,0
12478,-1300,-8124,786,-56,14,9,12280,0,-1,5,0,36805,97,25,144,0,0,0,0,0,0,0,0,-32294,0,0,0,4602,0,13037,0
12488,-1296,-8118,780,-55,15,5,12279,2,-2,4,0,36803,92,25,144,0,0,0,0,0,0,0,0,-32295,0,0,0,4601,0,13057,0
12498,-1274,-8086,774,-56,21,5,12279,-2,2,3,0,36803,94,25,144,0,0,0,0,0,0,0,0,-32294,0,0,0,4601,0,13077,0
12508,-1254,-8102,774,-57,13,7,12279,0,1,2,0,36804,94,25,144,0,0,0,0,0,0,0,0,-32294,0,0,0,4602,0,13097,0
12518,-1230,-8112,768,-55,12,4,12279,2,0,4,0,36804,95,25,144,0,0,0,0,0,0,0,0,-32294,0,0,0,4602,0,13117,0
12528,-1234,-8112,766,-55,11,10,12279,1,-2,3,0,36803,95,25,144,0,0,0,0,0,0,0,0,-32295,0,0,0,4602,0,13137,0
12538,-1242,-8106,740,-53,13,8,12279,1,1,2,0,36809,86,25,144,0,0,0,0,0,0,0,0,-32295,0,0,0,4601,0,13157,0
12548,-1230,-8068,732,-50,21,13,12279,0,-1,6,0,36812,80,25,144,0,0,0,0,0,0,0,0,-32294,0,0,0,4601,0,13177,0
12558,-1220,-8094,764,-44,19,15,12281,10,6,1,0,36813,82,25,144,0,0,0,0,0,0,0,0,-32294,0,0,0,4602,0,13197,0
12568,-1250,-8116,770,-45,13,12,12279,5,2,3,0,36808,88,25,144,0,0,0,0,0,0,0,0,-32294,0,0,0,4601,0,13217,0
12578,-1282,-8122,788,-50,17,8,12280,1,4,2,0,36808,98,25,144,0,0,0,0,0,0,0,0,-32294,0,0,0,4601,0,13237,0
12588,-1300,-8092,780,-51,12,13,12280,3,0,3,0,36809,97,25,144,0,0,0,0,0,0,0,0,-32294,0,0,0,4603,0,13257,0
12598,-1278,-8098,770,-49,13,6,12280,1,5,3,0,36808,93,25,144,0,0,0,0,0,0,0,0,-32294,0,0,0,4602,0,13276,0
12608,-1300,-8108,778,-48,12,5,12279,5,2,5,0,36810,94,25,144,0,0,0,0,0,0,0,0,-32295,0,0,0,4601,0,13296,0
12618,-1248,-8110,778,-48,15,3,12280,5,5,3,0,36813,92,25,144,0,0,0,0,0,0,0,0,-32294,0,0,0,4602,0,13316,0
12628,-1248,-8098,776,-46,13,7,12279,0,-1,4,0,36814,100,25,144,0,0,0,0,0,0,0,0,-32294,0,0,0,4602,0,13336,0
12638,-1272,-8104,762,-49,13,5,12280,4,0,0,0,36811,100,25,144,0,0,0,0,0,0,0,0,-32295,0,0,0,4603,0,13355,0
12648,-1232,-8120,756,-49,12,13,12280,0,2,3,0,36809,112,25,144,0,0,0,0,0,0,0,0,-32294,0,0,0,4603,0,13374,0
12658,-1274,-8132,794,-49,11,6,12279,2,-1,3,0,36807,103,25,144,0,0,0,0,0,0,0,0,-32294,0,0,0,4602,0,13394,0
12668,-1304,-8120,812,-50,11,6,12280,5,6,4,0,36809,102,25,144,0,0,0,0,0,0,0,0,-32294,0,0,0,4603,0,13415,0
12678,-1306,-8130,776,-47,16,5,12279,0,5,5,0,36808,91,25,144,0,0,0,0,0,0,0,0,-32295,0,0,0,4603,0,13434,0
12688,-1298,-8116,784,-51,15,0,12279,-8,-3,3,0,36808,90,25,144,0,0,0,0,0,0,0,0,-32295,0,0,0,4601,0,13451,0
12698,-1302,-8098,766,-50,13,-1,12278,5,-10,4,0,36807,89,25,144,0,0,0,0,0,0,0,0,-32295,0,0,0,4602,0,13466,0
12708,-1270,-8134,784,-48,3,-6,12279,5,2,3,0,36807,88,25,144,0,0,0,0,0,0,0,0,-32295,0,0,0,4602,0,13485,0
12718,-1292,-8104,796,-51,14,-6,12280,5,4,2,0,36809,91,25,144,0,0,0,0,0,0,0,0,-32295,0,0,0,4602,0,13503,0
12728,-1598,-8062,782,-52,9,-2,12304,130,58,638,648,36810,96,25,144,0,0,0,0,0,0,0,0,-32295,0,0,0,4602,0,13523,0
12738,-1212,-8126,802,-51,13,-7,12477,480,367,898,1520,36805,104,25,144,0,0,0,0,0,0,0,0,-32294,0,0,0,4602,0,13541,0
12748,-1262,-8130,816,-53,22,5,12815,855,620,1039,2488,36800,115,25,144,0,0,0,0,0,0,0,0,-32295,0,0,0,4601,0,13559,0
12758,-1262,-8090,814,-49,27,2,13307,1183,614,1024,3264,36794,144,25,144,0,0,0,0,0,0,0,0,-32294,0,0,0,4602,0,13578,0
12768,-1196,-8108,690,-61,31,-8,13942,1490,567,1041,4024,36786,165,25,144,0,0,0,0,0,0,0,0,-32294,0,0,0,4602,0,13596,0
12778,-1266,-8154,796,-63,25,-3,14716,1789,533,1015,4744,36769,193,25,144,0,0,0,0,0,0,0,0,-32295,0,0,0,4601,0,13611,0
12788,-1266,-8140,834,-67,16,-6,15638,2133,548,1021,5424,36755,211,25,144,0,0,0,0,0,0,0,0,-32294,0,0,0,4602,0,13625,0
12798,-1292,-8104,784,-47,3,-14,16711,2446,322,1031,6040,36743,241,25,144,0,0,0,0,0,0,0,0,-32295,0,0,0,4602,0,13639,0
12808,-1242,-8124,874,-28,-15,-12,17863,2566,536,966,6544,36734,256,25,144,0,0,0,0,0,0,0,0,-32294,0,0,0,4601,0,13653,0
12818,-1242,-8126,788,-54,-1,-7,19070,2709,469,959,7088,36726,277,25,144,0,0,0,0,0,0,0,0,-32294,0,0,0,4601,0,13665,0
12828,-1214,-8112,752,-76,0,-20,20417,3089,370,1043,7864,36716,288,25,144,0,0,0,0,0,0,0,0,-32293,0,0,0,4601,0,13678,0
12838,-1220,-8046,896,-39,7,-10,21919,3364,583,1006,8568,36704,312,25,144,0,0,0,0,0,0,0,0,-32294,0,0,0,4602,0,13689,0
12848,-1208,-8160,568,-50,11,-10,23537,3675,506,994,9264,36692,329,25,144,0,0,0,0,0,0,0,0,-32294,0,0,0,4600,0,13702,0
12858,-1226,-8048,892,-35,16,-6,25341,4064,600,1074,9896,36678,357,25,144,0,0,0,0,0,0,0,0,-32294,0,0,0,4601,0,13717,0
12868,-1204,-8164,838,-82,54,-3,27194,4086,458,870,10432,36666,373,25,144,0,0,0,0,0,0,0,0,-32295,0,0,0,4599,0,13731,0
12878,-1292,-8260,556,-23,57,2,29205,4577,368,1073,11344,36655,394,25,144,0,0,0,0,0,0,0,0,-32294,0,0,0,4599,0,13747,0
12888,-1110,-8028,674,-95,61,24,31357,4797,598,963,12008,36639,414,25,144,0,0,0,0,0,0,0,0,-32294,0,0,0,4601,0,13760,0
12898,-10416,17436,10180,5,-2095,5303,33500,4341,293,1494,8984,36625,450,25,144,0,0,0,0,0,0,0,0,-32295,0,0,0,4661,14,13773,0
12908,7294,-10430,-1838,118,-1163,2252,34590,1416,-2016,1131,1064,36610,464,25,144,0,0,0,0,0,0,0,0,-32295,0,0,0,4758,7,13788,0
12918,-9720,-11626,366,178,405,-331,34262,-1474,-4876,569,-3160,36642,359,25,144,0,0,0,0,0,0,0,0,-32294,0,0,0,4751,-3,13801,0
12928,-14166,-7352,998,142,2334,-2631,33182,-2584,-4219,655,-4176,36698,227,25,144,0,0,0,0,0,0,0,0,-32294,0,0,0,4679,-8,13808,0
12938,-9268,-2668,3920,-54,1199,-1178,32127,-2121,-1375,870,-2344,36772,71,25,144,0,0,0,0,0,0,0,0,-32295,0,0,0,4628,-2,13815,0
12948,144,-7906,2176,94,1306,-1040,31444,-1238,810,1029,-336,36809,26,25,144,0,0,0,0,0,0,0,0,-32295,0,0,0,4611,-2,13824,0
12958,6734,-8028,-20,-353,-63,-280,31177,-272,1519,1383,336,36828,24,25,144,0,0,0,0,0,0,0,0,-32294,0,0,0,4604,0,13837,0
12968,-2624,-8142,-2298,-47,-1262,364,31295,399,1560,833,1400,36825,48,25,144,0,0,0,0,0,0,0,0,-32294,0,0,0,4603,0,13854,0
12978,-3268,-9214,202,162,86,109,31617,842,1111,1021,2544,36812,85,25,144,0,0,0,0,0,0,0,0,-32295,0,0,0,4611,0,13874,0
12988,-2862,-8400,2312,99,20,-310,32147,1296,775,1035,3584,36792,129,25,144,0,0,0,0,0,0,0,0,-32294,0,0,0,4609,0,13888,0
12998,-1520,814,5300,-32,-300,1263,32795,1361,652,1150,3000,36772,165,25,144,0,0,0,0,0,0,0,0,-32294,0,0,0,4627,4,13901,0
13008,6406,-10522,1802,-196,-312,899,33154,462,-313,1042,296,36763,179,25,144,0,0,0,0,0,0,0,0,-32295,0,0,0,4657,2,13914,0
13018,-4674,-8464,564,-210,-255,392,33056,-387,-1491,955,-16,36769,158,25,144,0,0,0,0,0,0,0,0,-32296,0,0,0,4657,0,13931,0
13028,-9214,-7722,-2208,-61,546,-383,32875,-336,-1048,982,104,36784,121,25,144,0,0,0,0,0,0,0,0,-32295,0,0,0,4644,-1,13942,0
13038,-2262,-7912,-202,22,492,-355,32832,0,139,998,328,36799,79,25,144,0,0,0,0,0,0,0,0,-32294,0,0,0,4639,0,13953,0
13048,3702,-8346,1280,-5,-113,137,32857,42,411,997,328,36801,63,25,144,0,0,0,0,0,0,0,0,-32294,0,0,0,4640,0,13972,0
13058,-144,-8376,1660,-63,-244,306,32861,1,68,999,320,36800,73,25,144,0,0,0,0,0,0,0,0,-32294,0,0,0,4641,0,13992,0
13068,-4878,-7828,-40,-66,-20,85,32874,40,-16,991,352,36804,85,25,144,0,0,0,0,0,0,0,0,-32294,0,0,0,4642,0,14012,0
13078,-3000,-7940,-410,27,159,-146,32880,-9,10,1015,280,36805,88,25,144,0,0,0,0,0,0,0,0,-32294,0,0,0,4642,0,14032,0
13088,8,-8194,1336,38,46,-122,32870,-13,-52,990,288,36804,89,25,144,0,0,0,0,0,0,0,0,-32294,0,0,0,4641,0,14052,0
13098,-6,-8410,2040,-40,-56,31,32871,3,-2,992,320,36800,80,25,144,0,0,0,0,0,0,0,0,-32295,0,0,0,4641,0,14072,0
13108,-1810,-7974,1040,-124,-5,50,32873,5,24,998,312,36802,79,25,144,0,0,0,0,0,0,0,0,-32294,0,0,0,4642,0,14092,0
13118,-1868,-8176,30,-96,48,-17,32873,2,2,1003,288,36803,84,25,144,0,0,0,0,0,0,0,0,-32294,0,0,0,4641,0,14112,0
13128,-1090,-8106,274,-22,26,-12,32873,0,-5,1000,296,36804,86,25,144,0,0,0,0,0,0,0,0,-32294,0,0,0,4642,0,14132,0
13138,-1038,-8026,836,-7,2,19,32873,4,-1,996,296,36804,86,25,144,0,0,0,0,0,0,0,0,-32294,0,0,0,4641,0,14152,0
13148,-1310,-7876,1026,-34,0,5,32873,1,2,999,288,36802,82,25,144,0,0,0,0,0,0,0,0,-32294,0,0,0,4641,0,14172,0
13158,-1488,-8092,808,-36,12,14,32872,-2,3,995,296,36801,75,25,144,0,0,0,0,0,0,0,0,-32294,0,0,0,4641,0,14192,0
13168,-1556,-8134,584,-27,16,1,32873,0,3,999,288,36807,77,25,144,0,0,0,0,0,0,0,0,-32295,0,0,0,4640,0,14211,0
13178,-1442,-7990,708,-15,11,-25,32872,-12,0,1000,288,36809,78,25,144,0,0,0,0,0,0,0,0,-32294,0,0,0,4641,0,14231,0
13188,-1350,-8144,1028,-32,8,-26,32872,0,-2,1000,288,36809,70,25,144,0,0,0,0,0,0,0,0,-32294,0,0,0,4641,0,14251,0
13198,-1406,-8216,1066,-52,4,-9,32870,-3,-2,996,296,36802,70,25,144,0,0,0,0,0,0,0,0,-32294,0,0,0,4642,0,14271,0
13208,-1324,-8048,868,-67,3,-42,32871,0,2,998,288,36801,67,25,144,0,0,0,0,0,0,0,0,-32294,0,0,0,4641,0,14291,0
13218,-1412,-8074,710,-66,5,-44,32871,4,2,1001,296,36804,77,25,144,0,0,0,0,0,0,0,0,-32294,0,0,0,4641,0,14311,0
13228,-1416,-8114,728,-61,2,-38,32868,0,0,996,296,36806,79,25,144,0,0,0,0,0,0,0,0,-32294,0,0,0,4641,0,14331,0
13238,-1248,-8010,756,-60,12,-51,32870,5,-1,997,296,36804,82,25,144,0,0,0,0,0,0,0,0,-32294,0,0,0,4642,0,14351,0
13248,-1126,-8150,676,-62,10,-46,32866,0,-5,998,280,36800,87,25,144,0,0,0,0,0,0,0,0,-32294,0,0,0,4641,0,14371,0
13258,-1256,-8082,676,-53,4,-4,32864,3,-7,997,296,36799,84,25,144,0,0,0,0,0,0,0,0,-32294,0,0,0,4641,0,14391,0
13268,-1132,-8030,660,-42,18,-8,32865,4,10,997,296,36800,78,25,144,0,0,0,0,0,0,0,0,-32295,0,0,0,4641,0,14411,0
13278,-1030,-8156,726,-42,19,1,32864,-5,-2,1000,304,36805,75,25,144,0,0,0,0,0,0,0,0,-32294,0,0,0,4640,0,14431,0
13288,-1094,-8188,844,-47,9,55,32863,6,0,998,304,36803,80,25,144,0,0,0,0,0,0,0,0,-32294,0,0,0,4641,0,14451,0
13298,-1260,-8026,868,-47,18,58,32865,4,2,996,320,36800,79,25,144,0,0,0,0,0,0,0,0,-32294,0,0,0,4640,0,14471,0
13308,-1264,-8146,800,-45,25,36,32866,2,2,999,320,36800,76,25,144,0,0,0,0,0,0,0,0,-32294,0,0,0,4641,0,14491,0
13318,-1332,-8120,864,-55,23,50,32864,-9,1,997,312,36814,73,25,144,0,0,0,0,0,0,0,0,-32294,0,0,0,4641,0,14511,0
13328,-1386,-8102,778,-61,24,52,32867,4,4,1000,312,36826,77,25,144,0,0,0,0,0,0,0,0,-32295,0,0,0,4641,0,14531,0
13338,-1358,-8068,742,-59,28,30,32867,-2,2,998,304,36824,72,25,144,0,0,0,0,0,0,0,0,-32294,0,0,0,4641,0,14551,0
13348,-1384,-8158,774,-62,17,34,32868,3,-4,996,320,36810,72,25,144,0,0,0,0,0,0,0,0,-32294,0,0,0,4641,0,14572,0
13358,-1420,-8036,768,-63,20,38,32869,4,-4,1000,320,36801,68,25,144,0,0,0,0,0,0,0,0,-32294,0,0,0,4641,0,14592,0
13368,-1340,-8058,762,-57,21,14,32868,-5,1,998,304,36799,72,25,144,0,0,0,0,0,0,0,0,-32295,0,0,0,4642,0,14612,0
13378,-1324,-8160,744,-61,20,10,32868,-7,-4,997,312,36802,72,25,144,0,0,0,0,0,0,0,0,-32294,0,0,0,4641,0,14632,0
13388,-1366,-8140,732,-57,12,31,32869,0,4,998,320,36801,84,25,144,0,0,0,0,0,0,0,0,-32295,0,0,0,4641,0,14652,0
13398,-1348,-8072,712,-51,16,10,32870,-1,-2,998,320,36802,86,25,144,0,0,0,0,0,0,0,0,-32294,0,0,0,4641,0,14672,0
13408,-1358,-8136,742,-48,11,10,32870,1,1,998,312,36804,79,25,144,0,0,0,0,0,0,0,0,-32294,0,0,0,4641,0,14692,0
13418,-1374,-8134,780,-57,18,19,32870,0,1,1000,304,36800,70,25,144,0,0,0,0,0,0,0,0,-32295,0,0,0,4641,0,14712,0
13428,-1336,-8040,718,-50,17,15,32870,-3,-2,996,312,36800,67,25,144,0,0,0,0,0,0,0,0,-32294,0,0,0,4641,0,14733,0
13438,-1326,-8110,736,-48,19,2,32870,1,-1,1000,304,36798,80,25,144,0,0,0,0,0,0,0,0,-32295,0,0,0,4641,0,14753,0
13448,-1336,-8138,798,-50,11,20,32870,0,-4,999,304,36794,83,25,144,0,0,0,0,0,0,0,0,-32295,0,0,0,4641,0,14773,0
13458,-1316,-8054,776,-49,13,15,32870,-3,-1,996,304,36793,89,25,144,0,0,0,0,0,0,0,0,-32294,0,0,0,4641,0,14793,0
13468,-1272,-8108,704,-40,19,10,32871,-1,1,1002,288,36793,80,25,144,0,0,0,0,0,0,0,0,-32295,0,0,0,4640,0,14813,0
13478,-1294,-8146,752,-43,11,20,32872,7,-1,997,296,36795,78,25,144,0,0,0,0,0,0,0,0,-32295,0,0,0,4642,0,14833,0
13488,-1362,-8076,752,-41,14,20,32870,-6,1,996,304,36804,68,25,144,0,0,0,0,0,0,0,0,-32295,0,0,0,4641,0,14853,0
13498,-1346,-8116,754,-43,17,11,32871,-1,-4,997,304,36803,61,25,144,0,0,0,0,0,0,0,0,-32295,0,0,0,4641,0,14873,0
13508,-1392,-8126,766,-46,17,19,32871,-2,-3,998,304,36803,66,25,144,0,0,0,0,0,0,0,0,-32294,0,0,0,4640,0,14893,0
13518,-1378,-8090,768,-46,15,20,32872,2,0,1000,288,36796,75,25,144,0,0,0,0,0,0,0,0,-32294,0,0,0,4641,0,14913,0
13528,-1282,-8070,768,-42,21,5,32873,11,2,1001,288,36794,78,25,144,0,0,0,0,0,0,0,0,-32294,0,0,0,4641,0,14933,0
13538,-1350,-8124,784,-44,18,16,32872,1,2,998,296,36795,79,25,144,0,0,0,0,0,0,0,0,-32294,0,0,0,4642,0,14953,0
13548,-1426,-8058,782,-45,16,14,32871,-10,-2,996,296,36796,78,25,144,0,0,0,0,0,0,0,0,-32294,0,0,0,4641,0,14973,0
13558,-1296,-8068,754,-44,12,4,32873,-1,-1,998,296,36798,75,25,144,0,0,0,0,0,0,0,0,-32294,0,0,0,4642,0,14993,0
13568,-1316,-8096,774,-40,13,6,32872,-1,0,997,296,36798,72,25,144,0,0,0,0,0,0,0,0,-32294,0,0,0,4641,0,15013,0
13578,-1352,-8132,796,-48,14,14,32873,-4,1,997,288,36799,73,25,144,0,0,0,0,0,0,0,0,-32294,0,0,0,4642,0,15033,0
13588,-1306,-8084,766,-48,7,4,32873,3,2,999,312,36799,79,25,144,0,0,0,0,0,0,0,0,-32294,0,0,0,4642,0,15053,0
13598,-1250,-8096,764,-48,12,2,32872,0,3,997,296,36809,84,25,144,0,0,0,0,0,0,0,0,-32294,0,0,0,4642,0,15073,0
13608,-1318,-8128,804,-52,13,10,32873,1,3,1000,288,36809,80,25,144,0,0,0,0,0,0,0,0,-32294,0,0,0,4642,0,15093,0
13618,-1332,-8112,762,-49,15,6,32873,-2,2,1001,288,36808,77,25,144,0,0,0,0,0,0,0,0,-32294,0,0,0,4641,0,15113,0
13628,-1336,-8110,734,-51,19,4,32873,1,-2,998,296,36800,69,25,144,0,0,0,0,0,0,0,0,-32294,0,0,0,4642,0,15133,0
13638,-1356,-8104,752,-47,14,16,32873,-2,2,992,304,36802,72,25,144,0,0,0,0,0,0,0,0,-32294,0,0,0,4642,0,15153,0
13648,-1350,-8094,750,-49,19,12,32873,0,3,999,288,36803,75,25,144,0,0,0,0,0,0,0,0,-32295,0,0,0,4641,0,15173,0
13658,-1244,-8070,738,-45,11,5,32874,0,1,997,296,36802,78,25,144,0,0,0,0,0,0,0,0,-32295,0,0,0,4641,0,15193,0
13668,-1344,-8118,744,-41,12,28,32873,0,-2,995,296,36799,78,25,144,0,0,0,0,0,0,0,0,-32294,0,0,0,4642,0,15213,0
13678,-1342,-8092,754,-44,14,29,32873,-6,-4,996,296,36799,79,25,144,0,0,0,0,0,0,0,0,-32294,0,0,0,4642,0,15233,0
13688,-1354,-8048,742,-40,15,13,32875,6,-4,994,296,36802,81,25,144,0,0,0,0,0,0,0,0,-32295,0,0,0,4642,0,15253,0
13698,-1414,-8118,792,-41,15,17,32874,-1,-2,997,296,36808,80,25,144,0,0,0,0,0,0,0,0,-32294,0,0,0,4642,0,15273,0
13708,-1400,-8116,806,-41,14,17,32874,-3,-2,999,296,36809,78,25,144,0,0,0,0,0,0,0,0,-32294,0,0,0,4642,0,15293,0
13718,-1414,-8074,790,-44,15,5,32874,-4,-1,997,288,36808,73,25,144,0,0,0,0,0,0,0,0,-32295,0,0,0,4642,0,15313,0
13728,-1434,-8118,762,-45,12,-1,32875,-5,0,1000,288,36805,85,25,144,0,0,0,0,0,0,0,0,-32294,0,0,0,4641,0,15333,0
13738,-1430,-8078,782,-48,13,6,32874,-7,-5,999,288,36805,89,25,144,0,0,0,0,0,0,0,0,-32294,0,0,0,4642,0,15351,0
13748,-1428,-8062,776,-47,13,-15,32874,0,-4,998,288,36804,86,25,144,0,0,0,0,0,0,0,0,-32294,0,0,0,4642,0,15370,0
13758,-1336,-8086,742,-42,8,-13,32874,1,-2,1000,288,36804,87,25,144,0,0,0,0,0,0,0,0,-32294,0,0,0,4642,0,15389,0
13768,-1332,-8062,778,-50,11,-7,32875,5,1,998,288,36806,95,25,144,0,0,0,0,0,0,0,0,-32294,0,0,0,4642,0,15409,0
13778,-1326,-8054,746,-45,10,-9,32874,-4,-1,1000,288,36806,92,25,144,0,0,0,0,0,0,0,0,-32294,0,0,0,4642,0,15428,0
13788,-1276,-8114,770,-46,7,-9,32875,0,3,995,296,36803,89,25,144,0,0,0,0,0,0,0,0,-32294,0,0,0,4641,0,15445,0
13798,-1290,-8110,800,-44,12,4,32874,3,-1,998,288,36807,85,25,144,0,0,0,0,0,0,0,0,-32294,0,0,0,4641,0,15465,0
13808,-1284,-8090,776,-43,16,-1,32874,4,4,996,296,36809,87,25,144,0,0,0,0,0,0,0,0,-32294,0,0,0,4641,0,15481,0
13818,-1322,-8114,762,-47,13,3,32874,-4,-1,997,296,36812,85,25,144,0,0,0,0,0,0,0,0,-32294,0,0,0,4642,0,15500,0
13828,-1314,-8126,764,-43,12,8,32873,-10,0,999,296,36808,71,25,144,0,0,0,0,0,0,0,0,-32294,0,0,0,4641,0,15520,0
13838,-1350,-8056,774,-43,16,6,32875,-3,8,998,288,36809,75,25,144,0,0,0,0,0,0,0,0,-32294,0,0,0,4642,0,15539,0
13848,-1338,-8094,740,-43,17,7,32875,3,-4,996,296,36810,76,25,144,0,0,0,0,0,0,0,0,-32294,0,0,0,4642,0,15558,0
13858,-1272,-8092,734,-42,9,10,32873,0,0,999,288,36809,77,25,144,0,0,0,0,0,0,0,0,-32294,0,0,0,4642,0,15578,0
13868,-1312,-8104,774,-40,12,12,32875,3,-3,999,288,36808,75,25,144,0,0,0,0,0,0,0,0,-32295,0,0,0,4641,0,15597,0
13878,-1278,-8076,774,-40,15,7,32873,-11,-1,998,288,36807,75,25,144,0,0,0,0,0,0,0,0,-32294,0,0,0,4641,0,15617,0
13888,-1286,-8110,810,-44,10,17,32874,5,6,996,288,36808,75,25,144,0,0,0,0,0,0,0,0,-32294,0,0,0,4642,0,15636,0
13898,-1392,-8098,792,-42,12,15,32873,5,-2,996,296,36811,77,25,144,0,0,0,0,0,0,0,0,-32294,0,0,0,4641,0,15656,0
13908,-1316,-8118,780,-49,16,10,32874,1,-3,997,288,36814,77,25,144,0,0,0,0,0,0,0,0,-32294,0,0,0,4642,0,15675,0
13918,-1344,-8098,792,-48,17,14,32874,0,5,998,288,36815,76,25,144,0,0,0,0,0,0,0,0,-32294,0,0,0,4641,0,15695,0
13928,-1324,-8114,766,-49,14,9,32874,0,-4,1001,296,36813,84,25,144,0,0,0,0,0,0,0,0,-32294,0,0,0,4641,0,15715,0
13938,-1334,-8060,746,-43,10,8,32875,5,2,995,296,36808,81,25,144,0,0,0,0,0,0,0,0,-32294,0,0,0,4641,0,15735,0
13948,-1354,-8088,760,-45,8,16,32874,2,-4,998,288,36809,81,25,144,0,0,0,0,0,0,0,0,-32294,0,0,0,4641,0,15753,0
13958,-1314,-8104,748,-39,13,14,32873,-1,-6,996,296,36810,82,25,144,0,0,0,0,0,0,0,0,-32294,0,0,0,4641,0,15773,0
13968,-1316,-8082,784,-39,14,8,32875,7,2,998,288,36811,78,25,144,0,0,0,0,0,0,0,0,-32294,0,0,0,4641,0,15793,0
13978,-1276,-8112,802,-39,13,12,32874,0,0,998,288,36809,77,25,144,0,0,0,0,0,0,0,0,-32294,0,0,0,4642,0,15813,0
13988,-1316,-8084,782,-42,13,16,32875,0,-1,1001,288,36811,79,25,144,0,0,0,0,0,0,0,0,-32294,0,0,0,4642,0,15833,0
13998,-1346,-8080,810,-41,15,12,32875,0,0,998,288,36811,77,25,144,0,0,0,0,0,0,0,0,-32294,0,0,0,4642,0,15853,0
14008,-1290,-8104,788,-41,15,8,32875,2,1,997,288,36813,73,25,144,0,0,0,0,0,0,0,0,-32295,0,0,0,4641,0,15873,0
14018,-1352,-8106,776,-40,15,17,32876,-1,-3,998,288,36814,66,25,144,0,0,0,0,0,0,0,0,-32296,0,0,0,4642,0,15893,0
14028,-1348,-8078,772,-43,16,10,32875,3,-4,998,288,36817,81,25,144,0,0,0,0,0,0,0,0,-32294,0,0,0,4642,0,15913,0
14038,-1384,-8112,764,-42,11,3,32875,-6,-1,997,288,36819,87,25,144,0,0,0,0,0,0,0,0,-32295,0,0,0,4642,0,15933,0
14048,-1410,-8108,780,-42,8,15,32876,-6,-3,999,288,36814,83,25,144,0,0,0,0,0,0,0,0,-32294,0,0,0,4641,0,15953,0
14058,-1336,-8096,782,-43,12,7,32875,3,-1,998,288,36808,79,25,144,0,0,0,0,0,0,0,0,-32294,0,0,0,4642,0,15973,0
14068,-1304,-8072,788,-44,13,2,32874,-9,3,1001,288,36808,81,25,144,0,0,0,0,0,0,0,0,-32295,0,0,0,4642,0,15993,0
14078,-1310,-8120,784,-43,13,13,32875,-3,-2,999,288,36809,88,25,144,0,0,0,0,0,0,0,0,-32294,0,0,0,4641,0,16013,0
14088,-1284,-8058,784,-46,12,14,32876,5,1,1000,288,36809,84,25,144,0,0,0,0,0,0,0,0,-32294,0,0,0,4642,0,16033,0
14098,-1314,-8100,782,-44,12,9,32877,3,-1,998,296,36808,85,25,144,0,0,0,0,0,0,0,0,-32294,0,0,0,4641,0,16053,0
14108,-1326,-8106,790,-48,14,12,32874,-6,2,998,288,36808,79,25,144,0,0,0,0,0,0,0,0,-32294,0,0,0,4642,0,16073,0
14118,-1374,-8102,798,-42,17,15,32876,1,-10,998,288,36812,77,25,144,0,0,0,0,0,0,0,0,-32294,0,0,0,4642,0,16093,0
14128,-1368,-8090,772,-48,16,10,32875,-1,-4,1000,288,36812,73,25,144,0,0,0,0,0,0,0,0,-32294,0,0,0,4642,0,16113,0
14138,-1420,-8118,754,-48,10,9,32877,-3,-1,993,296,36812,73,25,144,0,0,0,0,0,0,0,0,-32294,0,0,0,4641,0,16133,0
14148,-1396,-8064,798,-52,8,7,32876,5,3,997,288,36805,73,25,144,0,0,0,0,0,0,0,0,-32294,0,0,0,4641,0,16153,0
14158,-1360,-8112,792,-43,17,4,32877,-1,1,998,288,36803,76,25,144,0,0,0,0,0,0,0,0,-32294,0,0,0,4641,0,16173,0
14168,-1322,-8124,796,-45,8,0,32877,5,0,999,296,36802,74,25,144,0,0,0,0,0,0,0,0,-32294,0,0,0,4641,0,16193,0
14178,-1348,-8086,788,-46,11,3,32877,7,-2,997,288,36805,80,25,144,0,0,0,0,0,0,0,0,-32294,0,0,0,4642,0,16213,0
14188,-1244,-8084,784,-54,11,2,32876,11,0,999,288,36806,83,25,144,0,0,0,0,0,0,0,0,-32294,0,0,0,4642,0,16233,0
14198,-1332,-8110,762,-47,12,6,32876,0,-2,995,288,36805,74,25,144,0,0,0,0,0,0,0,0,-32294,0,0,0,4641,0,16253,0
14208,-1364,-8108,778,-50,16,2,32875,-5,-1,996,296,36804,74,25,144,0,0,0,0,0,0,0,0,-32294,0,0,0,4641,0,16273,0
14218,-1364,-8094,788,-48,12,6,32876,-1,-1,997,288,36805,73,25,144,0,0,0,0,0,0,0,0,-32294,0,0,0,4642,0,16293,0
14228,-1340,-8112,770,-54,11,-2,32876,0,0,1002,280,36811,75,25,144,0,0,0,0,0,0,0,0,-32294,0,0,0,4642,0,16313,0
14238,-1418,-8106,794,-51,6,1,32875,1,-2,994,304,36811,69,25,144,0,0,0,0,0,0,0,0,-32294,0,0,0,4642,0,16333,0
14248,-1420,-8084,824,-48,8,0,32875,0,4,997,296,36811,75,25,144,0,0,0,0,0,0,0,0,-32294,0,0,0,4641,0,16353,0
14258,-1304,-8092,784,-50,12,-9,32875,-5,2,997,288,36804,84,25,144,0,0,0,0,0,0,0,0,-32294,0,0,0,4641,0,16373,0
14268,-1334,-8106,796,-55,10,0,32876,-1,-2,996,296,36803,86,25,144,0,0,0,0,0,0,0,0,-32294,0,0,0,4641,0,16393,0
14278,-1316,-8078,796,-51,17,2,32876,3,0,998,296,36802,78,25,144,0,0,0,0,0,0,0,0,-32294,0,0,0,4641,0,16413,0
14288,-1306,-8086,770,-55,13,-4,32873,-9,2,994,296,36804,75,25,144,0,0,0,0,0,0,0,0,-32294,0,0,0,4641,0,16433,0
14298,-1308,-8084,770,-57,9,1,32876,-4,4,995,288,36802,74,25,144,0,0,0,0,0,0,0,0,-32294,0,0,0,4641,0,16453,0
14308,-1308,-8130,768,-52,17,5,32875,-5,2,995,288,36800,67,25,144,0,0,0,0,0,0,0,0,-32294,0,0,0,4642,0,16473,0
14318,-1322,-8110,752,-53,10,8,32875,3,2,995,304,36800,71,25,144,0,0,0,0,0,0,0,0,-32294,0,0,0,4642,0,16493,0
14328,-1362,-8122,772,-56,13,6,32876,-1,-2,998,288,36805,76,25,144,0,0,0,0,0,0,0,0,-32294,0,0,0,4642,0,16513,0
14338,-1398,-8090,790,-49,15,7,32875,-2,0,993,296,36804,75,25,144,0,0,0,0,0,0,0,0,-32294,0,0,0,4641,0,16533,0
14348,-1368,-8100,784,-48,14,-1,32876,8,6,999,288,36801,69,25,144,0,0,0,0,0,0,0,0,-32294,0,0,0,4641,0,16554,0
14358,-1354,-8086,790,-45,14,6,32875,6,2,996,296,36798,68,25,144,0,0,0,0,0,0,0,0,-32294,0,0,0,4641,0,16574,0
14368,-1318,-8090,806,-48,18,7,32875,-6,0,997,296,36799,71,25,144,0,0,0,0,0,0,0,0,-32294,0,0,0,4641,0,16594,0
14378,-1376,-8110,798,-53,13,7,32875,-4,1,997,288,36799,75,25,144,0,0,0,0,0,0,0,0,-32294,0,0,0,4641,0,16614,0
14388,-1288,-8072,788,-48,15,11,32874,-6,-2,995,288,36800,76,25,144,0,0,0,0,0,0,0,0,-32294,0,0,0,4641,0,16634,0
14398,-1324,-8094,818,-50,15,12,32876,-1,2,996,296,36798,80,25,144,0,0,0,0,0,0,0,0,-32294,0,0,0,4642,0,16654,0
14408,-1366,-8098,762,-48,14,14,32876,0,2,996,288,36798,82,25,144,0,0,0,0,0,0,0,0,-32294,0,0,0,4642,0,16674,0
14418,-1368,-8114,770,-48,15,14,32876,-3,-1,996,288,36799,81,25,144,0,0,0,0,0,0,0,0,-32294,0,0,0,4641,0,16694,0
14428,-1348,-8090,768,-44,16,15,32876,6,3,1000,288,36796,90,25,144,0,0,0,0,0,0,0,0,-32294,0,0,0,4642,0,16714,0
14438,-1394,-8114,752,-49,14,15,32875,-2,-2,993,304,36799,84,25,144,0,0,0,0,0,0,0,0,-32294,0,0,0,4642,0,16734,0
14448,-1382,-8096,804,-44,10,6,32875,0,2,998,288,36799,81,25,144,0,0,0,0,0,0,0,0,-32294,0,0,0,4641,0,16754,0
14458,-1326,-8084,790,-46,11,9,32875,-2,1,997,296,36799,80,25,144,0,0,0,0,0,0,0,0,-32294,0,0,0,4642,0,16774,0
14468,-1370,-8104,804,-48,13,4,32877,1,-1,999,288,36797,75,25,144,0,0,0,0,0,0,0,0,-32294,0,0,0,4641,0,16794,0
14478,-1378,-8120,776,-53,11,2,32876,0,3,997,288,36794,81,25,144,0,0,0,0,0,0,0,0,-32294,0,0,0,4642,0,16814,0
14488,-1328,-8064,774,-52,12,3,32875,-4,3,995,296,36794,77,25,144,0,0,0,0,0,0,0,0,-32294,0,0,0,4641,0,16834,0
14498,-1318,-8086,784,-50,15,7,32875,-1,-1,998,288,36794,67,25,144,0,0,0,0,0,0,0,0,-32294,0,0,0,4642,0,16854,0
14508,-1350,-8100,778,-51,13,8,32874,-3,-3,997,288,36796,67,25,144,0,0,0,0,0,0,0,0,-32294,0,0,0,4642,0,16874,0
14518,-1310,-8108,784,-54,13,4,32876,1,1,999,288,36797,76,25,144,0,0,0,0,0,0,0,0,-32294,0,0,0,4642,0,16894,0
14528,-1356,-8112,778,-51,11,9,32875,0,-2,998,288,36797,78,25,144,0,0,0,0,0,0,0,0,-32294,0,0,0,4641,0,16914,0
14538,-1338,-8118,782,-51,14,7,32875,-2,0,995,288,36803,81,25,144,0,0,0,0,0,0,0,0,-32294,0,0,0,4641,0,16934,0
14548,-1384,-8100,794,-49,14,5,32876,-3,-1,997,288,36805,76,25,144,0,0,0,0,0,0,0,0,-32294,0,0,0,4642,0,16953,0
14558,-1318,-8082,792,-48,9,6,32875,0,-3,996,288,36807,78,25,144,0,0,0,0,0,0,0,0,-32294,0,0,0,4641,0,16973,0
14568,-1322,-8112,782,-52,15,3,32875,-2,-1,996,280,36802,80,25,144,0,0,0,0,0,0,0,0,-32294,0,0,0,4642,0,16993,0
14578,-1340,-8088,752,-46,17,10,32877,4,3,997,296,36797,82,25,144,0,0,0,0,0,0,0,0,-32294,0,0,0,4642,0,17013,0
14588,-1316,-8088,770,-48,16,6,32877,1,3,996,288,36801,80,25,144,0,0,0,0,0,0,0,0,-32295,0,0,0,4642,0,17033,0
14598,-1320,-8080,792,-48,18,6,32876,-6,-1,996,288,36813,74,25,144,0,0,0,0,0,0,0,0,-32294,0,0,0,4642,0,17053,0
14608,-1342,-8096,744,-48,15,5,32875,-7,-2,999,288,36814,70,25,144,0,0,0,0,0,0,0,0,-32295,0,0,0,4641,0,17073,0
14618,-1318,-8098,760,-45,11,8,32876,7,2,1000,288,36813,74,25,144,0,0,0,0,0,0,0,0,-32294,0,0,0,4641,0,17093,0
14628,-1336,-8078,772,-47,12,4,32876,0,4,998,296,36801,73,25,144,0,0,0,0,0,0,0,0,-32295,0,0,0,4641,0,17113,0
14638,-1418,-8086,806,-44,13,1,32876,-1,0,993,296,36807,65,25,144,0,0,0,0,0,0,0,0,-32295,0,0,0,4641,0,17133,0
14648,-1376,-8056,774,-51,17,1,32876,1,1,1000,288,36811,61,25,144,0,0,0,0,0,0,0,0,-32294,0,0,0,4641,0,17153,0
14658,-1378,-8088,760,-49,12,1,32876,1,0,998,296,36810,63,25,144,0,0,0,0,0,0,0,0,-32294,0,0,0,4642,0,17173,0
14668,-1350,-8106,784,-45,13,0,32876,5,0,1000,288,36803,72,25,144,0,0,0,0,0,0,0,0,-32294,0,0,0,4642,0,17193,0
14678,-1386,-8100,804,-50,11,2,32876,0,2,998,280,36801,75,25,144,0,0,0,0,0,0,0,0,-32294,0,0,0,4641,0,17213,0
14688,-1340,-8102,762,-46,14,-2,32874,1,-5,997,296,36802,82,25,144,0,0,0,0,0,0,0,0,-32294,0,0,0,4642,0,17233,0
14698,-1290,-8096,778,-52,10,-5,32875,-5,5,999,288,36804,81,25,144,0,0,0,0,0,0,0,0,-32295,0,0,0,4642,0,17253,0
14708,-1298,-8094,784,-46,11,2,32876,8,-2,1001,296,36804,82,25,144,0,0,0,0,0,0,0,0,-32294,0,0,0,4642,0,17273,0
14718,-1346,-8086,764,-43,18,4,32875,-4,1,999,280,36801,76,25,144,0,0,0,0,0,0,0,0,-32294,0,0,0,4642,0,17293,0
14728,-1326,-8076,780,-52,10,8,32875,-2,-2,999,288,36803,75,25,144,0,0,0,0,0,0,0,0,-32294,0,0,0,4642,0,17313,0
14738,-1386,-8070,770,-49,13,6,32876,5,0,993,296,36805,80,25,144,0,0,0,0,0,0,0,0,-32294,0,0,0,4642,0,17333,0
14748,-1392,-8132,784,-46,12,7,32875,-3,0,998,288,36811,76,25,144,0,0,0,0,0,0,0,0,-32294,0,0,0,4642,0,17353,0
14758,-1358,-8064,786,-44,11,4,32875,1,1,1001,288,36811,73,25,144,0,0,0,0,0,0,0,0,-32295,0,0,0,4642,0,17373,0
14768,-1328,-8092,816,-53,11,1,32875,3,3,999,280,36812,72,25,144,0,0,0,0,0,0,0,0,-32294,0,0,0,4642,0,17393,0
14778,-1376,-8096,786,-50,15,2,32875,0,3,996,288,36808,80,25,144,0,0,0,0,0,0,0,0,-32294,0,0,0,4641,0,17413,0
14788,-1330,-8090,804,-48,16,0,32874,4,-2,994,296,36804,75,25,144,0,0,0,0,0,0,0,0,-32294,0,0,0,4642,0,17433,0
14798,-1332,-8094,778,-55,13,7,32875,2,3,997,296,36802,70,25,144,0,0,0,0,0,0,0,0,-32294,0,0,0,4641,0,17455,0
14808,-1334,-8112,778,-55,9,10,32875,7,-1,997,296,36805,69,25,144,0,0,0,0,0,0,0,0,-32294,0,0,0,4642,0,17473,0
14818,-1294,-8100,766,-50,10,3,32876,6,-3,999,296,36810,78,25,144,0,0,0,0,0,0,0,0,-32294,0,0,0,4641,0,17493,0
14828,-1316,-8082,788,-51,8,6,32875,6,-4,995,296,36812,75,25,144,0,0,0,0,0,0,0,0,-32294,0,0,0,4642,0,17513,0
14838,-1358,-8108,796,-56,10,6,32875,1,1,994,304,36812,82,25,144,0,0,0,0,0,0,0,0,-32294,0,0,0,4642,0,17533,0
14848,-1342,-8110,796,-54,17,4,32875,0,-2,997,288,36811,85,25,144,0,0,0,0,0,0,0,0,-32294,0,0,0,4642,0,17553,0
14858,-1374,-8106,764,-56,14,1,32875,-5,-1,1001,288,36811,87,25,144,0,0,0,0,0,0,0,0,-32294,0,0,0,4642,0,17573,0
14868,-1350,-8102,796,-49,11,3,32873,-10,1,997,288,36811,86,25,144,0,0,0,0,0,0,0,0,-32294,0,0,0,4641,0,17593,0
14878,-1324,-8066,768,-54,15,5,32874,-2,1,998,296,36811,85,25,144,0,0,0,0,0,0,0,0,-32294,0,0,0,4641,0,17613,0
14888,-1300,-8088,740,-52,12,3,32873,-1,-4,994,296,36811,82,25,144,0,0,0,0,0,0,0,0,-32295,0,0,0,4642,0,17633,0
14898,-1328,-8126,760,-45,21,5,32874,-3,2,997,296,36812,78,25,144,0,0,0,0,0,0,0,0,-32295,0,0,0,4642,0,17653,0
14908,-1304,-8098,792,-47,10,10,32874,0,2,1000,280,36812,83,25,144,0,0,0,0,0,0,0,0,-32294,0,0,0,4642,0,17673,0
14918,-1280,-8076,778,-49,11,11,32874,-8,-1,997,288,36812,79,25,144,0,0,0,0,0,0,0,0,-32294,0,0,0,4641,0,17693,0
14928,-1308,-8112,776,-47,18,10,32874,0,2,999,304,36811,76,25,144,0,0,0,0,0,0,0,0,-32294,0,0,0,4642,0,17713,0
14938,-1378,-8102,794,-54,15,15,32875,3,-2,996,288,36811,70,25,144,0,0,0,0,0,0,0,0,-32294,0,0,0,4642,0,17733,0
14948,-1366,-8090,798,-50,11,9,32875,7,1,998,296,36812,63,25,144,0,0,0,0,0,0,0,0,-32294,0,0,0,4642,0,17753,0
14958,-1358,-8112,780,-46,14,8,32875,2,-1,999,288,36819,75,25,144,0,0,0,0,0,0,0,0,-32294,0,0,0,4642,0,17773,0
14968,-1356,-8100,764,-45,12,6,32876,3,-4,999,280,36820,78,25,144,0,0,0,0,0,0,0,0,-32295,0,0,0,4642,0,17793,0
14978,-1372,-8096,770,-49,13,4,32875,4,-3,999,288,36820,78,25,144,0,0,0,0,0,0,0,0,-32294,0,0,0,4641,0,17813,0
14988,-1358,-8110,770,-51,12,0,32876,5,-7,995,296,36813,81,25,144,0,0,0,0,0,0,0,0,-32294,0,0,0,4642,0,17833,0
14998,-1328,-8086,790,-52,15,6,32875,-6,3,999,288,36814,81,25,144,0,0,0,0,0,0,0,0,-32294,0,0,0,4641,0,17853,0
15008,-1336,-8094,768,-51,12,3,32874,-5,0,1000,296,36812,78,25,144,0,0,0,0,0,0,0,0,-32294,0,0,0,4642,0,17873,0
15018,-1310,-8094,766,-54,11,3,32875,0,2,998,288,36811,80,25,144,0,0,0,0,0,0,0,0,-32294,0,0,0,4642,0,17893,0
15028,-1342,-8088,770,-50,11,2,32875,0,1,998,288,36812,76,25,144,0,0,0,0,0,0,0,0,-32294,0,0,0,4642,0,17914,0
15038,-1370,-8090,812,-49,16,8,32876,6,4,997,288,36815,80,25,144,0,0,0,0,0,0,0,0,-32294,0,0,0,4642,0,17934,0
15048,-1344,-8122,784,-49,13,2,32875,0,1,998,288,36817,81,25,144,0,0,0,0,0,0,0,0,-32294,0,0,0,4642,0,17954,0
15058,-1330,-8096,808,-55,13,1,32874,-5,5,999,288,36820,80,25,144,0,0,0,0,0,0,0,0,-32294,0,0,0,4642,0,17974,0
15068,-1330,-8100,792,-48,9,4,32875,-3,0,1000,288,36816,90,25,144,0,0,0,0,0,0,0,0,-32294,0,0,0,4642,0,17994,0
15078,-1344,-8110,776,-50,14,0,32875,5,1,998,296,36811,88,25,144,0,0,0,0,0,0,0,0,-32294,0,0,0,4642,0,18014,0
15088,-1290,-8080,764,-49,12,2,32875,2,1,997,288,36807,84,25,144,0,0,0,0,0,0,0,0,-32294,0,0,0,4642,0,18034,0
15098,-1292,-8096,768,-48,12,3,32874,3,2,999,280,36808,75,25,144,0,0,0,0,0,0,0,0,-32295,0,0,0,4641,0,18054,0
15108,-1298,-8106,786,-47,10,9,32873,1,4,999,288,36808,76,25,144,0,0,0,0,0,0,0,0,-32294,0,0,0,4641,0,18074,0
15118,-1280,-8094,786,-50,6,8,32874,2,2,999,296,36808,75,25,144,0,0,0,0,0,0,0,0,-32295,0,0,0,4642,0,18094,0
15128,-1322,-8084,802,-52,14,8,32874,-3,-3,997,288,36805,74,25,144,0,0,0,0,0,0,0,0,-32294,0,0,0,4642,0,18114,0
15138,-1412,-8062,782,-52,10,16,32874,3,-1,998,288,36807,72,25,144,0,0,0,0,0,0,0,0,-32295,0,0,0,4642,0,18134,0
15148,-1408,-8094,748,-48,13,8,32875,0,1,996,288,36808,70,25,144,0,0,0,0,0,0,0,0,-32295,0,0,0,4641,0,18154,0
15158,-1364,-8116,788,-52,18,10,32874,-7,-1,998,288,36812,78,25,144,0,0,0,0,0,0,0,0,-32294,0,0,0,4642,0,18174,0
15168,-1362,-8080,782,-51,13,4,32875,0,3,1001,288,36813,76,25,144,0,0,0,0,0,0,0,0,-32294,0,0,0,4642,0,18194,0
15178,-1378,-8086,772,-51,18,3,32874,-2,-3,999,296,36814,85,25,144,0,0,0,0,0,0,0,0,-32294,0,0,0,4642,0,18214,0
15188,-1310,-8098,766,-48,12,2,32875,3,0,998,288,36815,86,25,144,0,0,0,0,0,0,0,0,-32294,0,0,0,4642,0,18234,0
15198,-1334,-8096,788,-44,19,-2,32875,0,-2,1000,288,36805,78,25,144,0,0,0,0,0,0,0,0,-32294,0,0,0,4642,0,18254,0
15208,-1300,-8108,760,-45,11,3,32873,-5,-6,996,288,36805,83,25,144,0,0,0,0,0,0,0,0,-32294,0,0,0,4641,0,18274,0
15218,-1338,-8092,780,-54,13,0,32875,-3,-1,999,296,36805,89,25,144,0,0,0,0,0,0,0,0,-32294,0,0,0,4642,0,18294,0
15228,-1296,-8106,784,-48,19,0,32874,2,-1,1000,296,36806,83,25,144,0,0,0,0,0,0,0,0,-32294,0,0,0,4642,0,18314,0
15238,-1362,-8110,768,-50,12,1,32874,3,1,996,288,36807,70,25,144,0,0,0,0,0,0,0,0,-32294,0,0,0,4642,0,18334,0
15248,-1374,-8076,788,-47,9,5,32874,1,-3,996,288,36808,62,25,144,0,0,0,0,0,0,0,0,-32294,0,0,0,4642,0,18354,0
15258,-1370,-8098,770,-48,12,3,32874,3,3,1000,288,36808,69,25,144,0,0,0,0,0,0,0,0,-32294,0,0,0,4641,0,18374,0
15268,-1374,-8098,764,-53,11,2,32874,5,0,995,288,36807,76,25,144,0,0,0,0,0,0,0,0,-32294,0,0,0,4642,0,18394,0
15278,-1332,-8098,754,-47,9,-2,32874,-1,1,1001,288,36805,75,25,144,0,0,0,0,0,0,0,0,-32294,0,0,0,4642,0,18414,0
15288,-1326,-8082,770,-48,7,4,32874,0,1,996,296,36804,75,25,144,0,0,0,0,0,0,0,0,-32294,0,0,0,4642,0,18434,0
15298,-1250,-8098,772,-46,13,-2,32874,-1,1,997,280,36801,67,25,144,0,0,0,0,0,0,0,0,-32294,0,0,0,4642,0,18454,0
15308,-1286,-8106,762,-55,14,6,32874,0,1,999,280,36800,66,25,144,0,0,0,0,0,0,0,0,-32294,0,0,0,4642,0,18474,0
15318,-1306,-8080,780,-47,17,-1,32874,0,0,998,288,36801,71,25,144,0,0,0,0,0,0,0,0,-32294,0,0,0,4641,0,18494,0
15328,-1254,-8090,750,-42,13,7,32874,-1,2,1000,296,36804,78,25,144,0,0,0,0,0,0,0,0,-32294,0,0,0,4641,0,18514,0
15338,-1328,-8096,764,-41,15,9,32875,7,3,996,288,36804,78,25,144,0,0,0,0,0,0,0,0,-32294,0,0,0,4642,0,18534,0
15348,-1380,-8076,780,-47,13,13,32874,-3,-6,994,288,36802,77,25,144,0,0,0,0,0,0,0,0,-32294,0,0,0,4642,0,18554,0
15358,-1330,-8088,768,-46,8,13,32874,2,3,1000,296,36799,78,25,144,0,0,0,0,0,0,0,0,-32294,0,0,0,4641,0,18574,0
15368,-1370,-8122,772,-48,17,7,32874,4,2,1001,304,36799,79,25,144,0,0,0,0,0,0,0,0,-32294,0,0,0,4642,0,18594,0
15378,-1360,-8066,764,-46,14,10,32875,6,-4,999,288,36799,81,25,144,0,0,0,0,0,0,0,0,-32294,0,0,0,4642,0,18614,0
15388,-1328,-8106,794,-50,12,11,32875,0,-5,999,288,36797,77,25,144,0,0,0,0,0,0,0,0,-32294,0,0,0,4641,0,18634,0
15398,-1372,-8120,770,-45,13,2,32875,8,0,995,296,36796,73,25,144,0,0,0,0,0,0,0,0,-32294,0,0,0,4641,0,18654,0
15408,-1346,-8112,792,-48,16,3,32874,-3,-3,996,288,36798,78,25,144,0,0,0,0,0,0,0,0,-32294,0,0,0,4641,0,18674,0
15418,-1310,-8130,786,-49,14,2,32873,-4,-4,998,288,36800,74,25,144,0,0,0,0,0,0,0,0,-32294,0,0,0,4642,0,18695,0
15428,-1270,-8122,758,-54,13,6,32874,4,5,1000,304,36799,67,25,144,0,0,0,0,0,0,0,0,-32294,0,0,0,4641,0,18715,0
15438,-1372,-8098,768,-52,14,10,32873,-7,-3,995,288,36798,65,25,144,0,0,0,0,0,0,0,0,-32294,0,0,0,4641,0,18735,0
15448,-1370,-8090,758,-45,11,8,32874,1,3,997,296,36799,64,25,144,0,0,0,0,0,0,0,0,-32294,0,0,0,4642,0,18755,0
15458,-1338,-8122,784,-45,14,13,32873,1,3,996,288,36800,67,25,144,0,0,0,0,0,0,0,0,-32294,0,0,0,4642,0,18775,0
15468,-1396,-8086,806,-45,15,5,32874,0,-5,1001,288,36799,69,25,144,0,0,0,0,0,0,0,0,-32294,0,0,0,4642,0,18795,0
15478,-1372,-8072,792,-47,10,6,32874,2,4,998,304,36801,82,25,144,0,0,0,0,0,0,0,0,-32294,0,0,0,4642,0,18815,0
15488,-1380,-8098,776,-47,17,7,32875,4,2,998,288,36800,86,25,144,0,0,0,0,0,0,0,0,-32294,0,0,0,4641,0,18835,0
15498,-1280,-8106,794,-48,13,-2,32874,-2,-7,999,296,36798,83,25,144,0,0,0,0,0,0,0,0,-32294,0,0,0,4641,0,18855,0
15508,-1332,-8094,800,-46,16,9,32875,3,2,998,288,36796,76,25,144,0,0,0,0,0,0,0,0,-32294,0,0,0,4642,0,18875,0
15518,-1310,-8126,786,-50,13,6,32873,-1,1,995,296,36799,77,25,144,0,0,0,0,0,0,0,0,-32294,0,0,0,4642,0,18895,0
15528,-1328,-8112,800,-46,14,2,32875,1,4,995,296,36801,75,25,144,0,0,0,0,0,0,0,0,-32294,0,0,0,4642,0,18915,0
15538,-1324,-8096,790,-49,17,4,32873,-6,-7,996,288,36797,74,25,144,0,0,0,0,0,0,0,0,-32294,0,0,0,4641,0,18935,0
15548,-1368,-8112,800,-47,16,5,32875,6,-4,996,288,36797,77,25,144,0,0,0,0,0,0,0,0,-32294,0,0,0,4642,0,18955,0
15558,-1350,-8048,774,-46,12,7,32874,1,-5,1004,288,36797,74,25,144,0,0,0,0,0,0,0,0,-32294,0,0,0,4641,0,18975,0
15568,-1352,-8092,782,-48,14,8,32873,2,0,998,288,36799,75,25,144,0,0,0,0,0,0,0,0,-32294,0,0,0,4642,0,18995,0
15578,-1348,-8108,798,-45,10,6,32875,-1,0,998,288,36805,64,25,144,0,0,0,0,0,0,0,0,-32294,0,0,0,4642,0,19015,0
15588,-1342,-8090,794,-50,16,7,32873,-7,-4,997,296,36804,64,25,144,0,0,0,0,0,0,0,0,-32293,0,0,0,4642,0,19035,0
15598,-1336,-8104,786,-47,12,6,32874,6,4,994,288,36804,63,25,144,0,0,0,0,0,0,0,0,-32294,0,0,0,4642,0,19055,0
15608,-1288,-8056,770,-48,13,4,32874,3,2,1000,288,36806,70,25,144,0,0,0,0,0,0,0,0,-32294,0,0,0,4642,0,19075,0
15618,-1362,-8114,792,-49,13,3,32874,-3,2,996,296,36800,72,25,144,0,0,0,0,0,0,0,0,-32294,0,0,0,4642,0,19095,0
15628,-1318,-8098,798,-48,17,4,32874,-1,-1,995,296,36799,72,25,144,0,0,0,0,0,0,0,0,-32294,0,0,0,4641,0,19115,0
15638,-1386,-8106,800,-50,11,12,32874,1,-1,995,280,36801,70,25,144,0,0,0,0,0,0,0,0,-32294,0,0,0,4641,0,19135,0
15648,-1342,-8080,772,-48,13,9,32875,2,2,995,288,36804,64,25,144,0,0,0,0,0,0,0,0,-32294,0,0,0,4642,0,19155,0
15658,-1282,-8080,750,-46,12,10,32874,-3,-4,998,296,36806,72,25,144,0,0,0,0,0,0,0,0,-32294,0,0,0,4641,0,19175,0
15668,-1370,-8108,770,-52,9,15,32875,0,-1,996,296,36804,81,25,144,0,0,0,0,0,0,0,0,-32294,0,0,0,4641,0,19195,0
15678,-1322,-8068,774,-48,12,8,32873,-6,-1,999,280,36800,88,25,144,0,0,0,0,0,0,0,0,-32294,0,0,0,4642,0,19215,0
15688,-1374,-8076,772,-46,12,9,32875,5,6,996,296,36804,87,26,144,0,0,0,0,0,0,0,0,-32294,0,0,0,4642,0,19235,0
15698,-1364,-8102,780,-44,15,1,32875,6,2,996,296,36808,82,25,144,0,0,0,0,0,0,0,0,-32294,0,0,0,4642,0,19255,0
15708,-1326,-8078,792,-46,13,5,32874,-1,2,999,280,36809,80,25,144,0,0,0,0,0,0,0,0,-32294,0,0,0,4642,0,19275,0
15718,-1336,-8096,794,-54,14,-1,32874,0,-1,998,296,36802,76,25,144,0,0,0,0,0,0,0,0,-32294,0,0,0,4642,0,19295,0
15728,-230,-8586,858,-39,41,-96,32859,-87,-35,522,0,36800,75,25,144,0,0,0,0,0,0,0,0,-32294,0,0,0,4641,0,19317,0
15738,-1988,-7726,604,-43,80,-165,32783,-177,-163,292,0,36804,74,25,144,0,0,0,0,0,0,0,0,-32294,0,0,0,4636,0,19337,0
15748,-1744,-8032,760,-42,111,-171,32717,-132,-81,239,0,36808,74,25,144,0,0,0,0,0,0,0,0,-32294,0,0,0,4631,0,19357,0
15758,-892,-8204,760,-51,70,-126,32677,-78,82,145,0,36808,73,25,144,0,0,0,0,0,0,0,0,-32294,0,0,0,4630,0,19377,0
15768,-1056,-8008,732,-53,5,-33,32655,-27,89,70,0,36808,89,25,144,0,0,0,0,0,0,0,0,-32294,0,0,0,4628,0,19397,0
15778,-1064,-8132,692,-50,-11,-2,32656,0,73,-3,0,36811,102,25,144,0,0,0,0,0,0,0,0,-32294,0,0,0,4628,0,19417,0
15788,-1370,-8096,740,-41,0,-8,32655,2,26,6,0,36818,104,25,144,0,0,0,0,0,0,0,0,-32294,0,0,0,4628,0,19437,0
15798,-1306,-8094,896,-45,13,-10,32655,0,-3,7,0,36816,105,25,144,0,0,0,0,0,0,0,0,-32294,0,0,0,4627,0,19457,0
15808,-1162,-8092,926,-61,14,2,32657,5,4,5,0,36812,107,25,144,0,0,0,0,0,0,0,0,-32294,0,0,0,4628,0,19477,0
15818,-1250,-8132,784,-65,12,11,32656,2,0,5,0,36811,109,25,144,0,0,0,0,0,0,0,0,-32294,0,0,0,4628,0,19497,0
15828,-1382,-8062,596,-48,14,11,32654,-5,2,3,0,36814,113,25,144,0,0,0,0,0,0,0,0,-32294,0,0,0,4628,0,19517,0
15838,-1314,-8072,656,-40,16,6,32656,1,0,2,0,36814,113,25,144,0,0,0,0,0,0,0,0,-32294,0,0,0,4628,0,19537,0
15848,-1282,-8098,832,-38,15,7,32655,-2,0,6,0,36814,116,25,144,0,0,0,0,0,0,0,0,-32294,0,0,0,4627,0,19557,0
15858,-1262,-8078,870,-42,14,11,32655,3,-3,4,0,36816,118,26,144,0,0,0,0,0,0,0,0,-32294,0,0,0,4627,0,19577,0
15868,-1322,-8088,774,-50,10,11,32654,3,2,4,0,36822,125,25,144,0,0,0,0,0,0,0,0,-32294,0,0,0,4627,0,19597,0
15878,-1348,-8092,758,-45,15,7,32655,-2,-7,5,0,36830,121,26,144,0,0,0,0,0,0,0,0,-32294,0,0,0,4627,0,19617,0
15888,-1298,-8098,792,-42,14,6,32653,-10,0,3,0,36838,124,25,144,0,0,0,0,0,0,0,0,-32294,0,0,0,4627,0,19637,0
15898,-1278,-8078,794,-42,11,8,32653,0,0,7,0,36839,124,25,144,0,0,0,0,0,0,0,0,-32294,0,0,0,4627,0,19657,0
15908,-1314,-8104,782,-46,12,9,32653,1,2,4,0,36830,117,25,144,0,0,0,0,0,0,0,0,-32294,0,0,0,4628,0,19677,0
15918,-1314,-8094,780,-41,17,9,32655,0,-1,5,0,36820,119,25,144,0,0,0,0,0,0,0,0,-32294,0,0,0,4628,0,19697,0
15928,-1324,-8114,780,-46,18,10,32654,3,-3,6,0,36815,119,25,144,0,0,0,0,0,0,0,0,-32294,0,0,0,4627,0,19717,0
15938,-1298,-8102,792,-45,16,8,32654,-2,-4,2,0,36814,122,25,144,0,0,0,0,0,0,0,0,-32294,0,0,0,4628,0,19737,0
15948,-1284,-8092,796,-49,10,15,32653,-4,-1,5,0,36816,110,25,144,0,0,0,0,0,0,0,0,-32294,0,0,0,4628,0,19757,0
15958,-1312,-8122,778,-50,14,12,32655,8,0,2,0,36818,112,25,144,0,0,0,0,0,0,0,0,-32294,0,0,0,4627,0,19777,0
15968,-1332,-8096,782,-45,12,11,32654,2,0,4,0,36821,116,25,144,0,0,0,0,0,0,0,0,-32294,0,0,0,4627,0,19797,0
15978,-1332,-8124,788,-50,19,9,32654,3,3,7,0,36819,116,25,144,0,0,0,0,0,0,0,0,-32294,0,0,0,4627,0,19817,0
15988,-1344,-8094,770,-50,14,9,32654,3,0,2,0,36817,114,26,144,0,0,0,0,0,0,0,0,-32294,0,0,0,4628,0,19837,0
15998,-1336,-8072,758,-49,15,6,32654,1,-3,6,0,36821,123,25,144,0,0,0,0,0,0,0,0,-32294,0,0,0,4628,0,19857,0
16008,-1332,-8108,788,-44,12,4,32653,-3,11,4,0,36822,128,25,144,0,0,0,0,0,0,0,0,-32294,0,0,0,4628,0,19877,0
16018,-1300,-8082,782,-48,15,1,32654,3,-1,4,0,36819,134,25,144,0,0,0,0,0,0,0,0,-32294,0,0,0,4628,0,19897,0
16028,-1306,-8090,782,-48,15,2,32653,0,2,4,0,36815,126,25,144,0,0,0,0,0,0,0,0,-32294,0,0,0,4628,0,19917,0
16038,-1284,-8116,762,-49,15,1,32653,-7,1,3,0,36813,118,25,144,0,0,0,0,0,0,0,0,-32294,0,0,0,4628,0,19937,0
16048,-1296,-8104,772,-44,11,6,32653,-8,-1,5,0,36817,110,25,144,0,0,0,0,0,0,0,0,-32294,0,0,0,4628,0,19957,0
16058,-1282,-8112,754,-43,11,8,32654,0,3,5,0,36817,106,25,144,0,0,0,0,0,0,0,0,-32294,0,0,0,4628,0,19977,0
16068,-1294,-8124,806,-45,10,11,32653,4,3,4,0,36816,110,25,144,0,0,0,0,0,0,0,0,-32295,0,0,0,4627,0,19997,0
16078,-1302,-8060,780,-47,15,7,32654,-2,-6,5,0,36816,115,25,144,0,0,0,0,0,0,0,0,-32294,0,0,0,4628,0,20017,0
16088,-1338,-8100,790,-49,9,6,32653,-6,-3,4,0,36813,116,25,144,0,0,0,0,0,0,0,0,-32294,0,0,0,4628,0,20037,0
16098,-1344,-8110,812,-46,11,10,32652,-8,2,3,0,36816,110,25,144,0,0,0,0,0,0,0,0,-32294,0,0,0,4627,0,20057,0
16108,-1330,-8118,812,-51,14,5,32654,5,1,3,0,36815,110,25,144,0,0,0,0,0,0,0,0,-32294,0,0,0,4627,0,20077,0
16118,-1334,-8086,788,-55,17,8,32652,-2,1,4,0,36816,114,25,144,0,0,0,0,0,0,0,0,-32294,0,0,0,4627,0,20097,0
16128,-1312,-8096,784,-49,13,3,32652,-6,0,4,0,36812,118,25,144,0,0,0,0,0,0,0,0,-32294,0,0,0,4628,0,20117,0
16138,-1296,-8074,792,-49,17,-1,32652,1,0,4,0,36813,115,25,144,0,0,0,0,0,0,0,0,-32294,0,0,0,4628,0,20137,0
16148,-1270,-8100,790,-46,12,4,32652,-2,-4,5,0,36814,113,25,144,0,0,0,0,0,0,0,0,-32294,0,0,0,4628,0,20157,0
16158,-1280,-8110,778,-50,13,4,32651,3,-1,4,0,36813,116,25,144,0,0,0,0,0,0,0,0,-32294,0,0,0,4628,0,20177,0
16168,-1330,-8082,780,-49,14,8,32651,-4,-3,6,0,36811,114,25,144,0,0,0,0,0,0,0,0,-32294,0,0,0,4628,0,20197,0
16178,-1320,-8102,806,-50,14,5,32653,3,4,3,0,36811,119,25,144,0,0,0,0,0,0,0,0,-32294,0,0,0,4628,0,20217,0
16188,-1340,-8116,802,-54,12,8,32652,2,0,4,0,36811,122,25,144,0,0,0,0,0,0,0,0,-32294,0,0,0,4627,0,20237,0
16198,-1330,-8094,772,-46,12,6,32652,6,1,5,0,36813,118,25,144,0,0,0,0,0,0,0,0,-32294,0,0,0,4627,0,20257,0
16208,-1328,-8060,774,-48,12,7,32651,-6,-2,5,0,36816,108,25,144,0,0,0,0,0,0,0,0,-32294,0,0,0,4628,0,20277,0
16218,-1332,-8110,790,-55,13,3,32651,0,-2,7,0,36813,108,25,144,0,0,0,0,0,0,0,0,-32295,0,0,0,4628,0,20297,0
16228,-1302,-8086,784,-52,14,1,32649,-9,-1,6,0,36812,115,25,144,0,0,0,0,0,0,0,0,-32294,0,0,0,4628,0,20318,0
16238,-1342,-8114,762,-51,11,-1,32650,7,-3,9,0,36806,127,25,144,0,0,0,0,0,0,0,0,-32294,0,0,0,4627,0,20338,0
16248,-1330,-8094,812,-52,16,-4,32649,0,0,10,0,36808,123,25,144,0,0,0,0,0,0,0,0,-32294,0,0,0,4627,0,20358,0
16258,-1350,-8104,786,-50,16,-11,32647,0,-2,11,0,36809,113,25,144,0,0,0,0,0,0,0,0,-32294,0,0,0,4627,0,20378,0
16268,-1326,-8068,778,-48,17,-11,32644,-6,0,13,0,36810,111,25,144,0,0,0,0,0,0,0,0,-32294,0,0,0,4627,0,20398,0
16278,-1308,-8106,766,-52,12,-13,32642,-7,-5,18,0,36809,111,25,144,0,0,0,0,0,0,0,0,-32294,0,0,0,4627,0,20423,0
16288,-1288,-8130,768,-52,16,-15,32640,-3,2,18,0,36807,115,25,144,0,0,0,0,0,0,0,0,-32294,0,0,0,4627,0,20443,0
16298,-1288,-8100,796,-51,17,-12,32634,-19,0,24,0,36805,116,25,144,0,0,0,0,0,0,0,0,-32294,0,0,0,4627,0,20463,0
16308,-1320,-8106,794,-55,21,-16,32630,-12,-8,33,0,36808,116,25,144,0,0,0,0,0,0,0,0,-32294,0,0,0,4626,0,20483,0
16318,-1316,-8132,776,-47,18,-16,32623,-8,-14,47,0,36807,123,25,144,0,0,0,0,0,0,0,0,-32294,0,0,0,4625,0,20503,0
16328,-1324,-8100,768,-50,22,-26,32612,-20,-8,54,0,36807,121,26,144,0,0,0,0,0,0,0,0,-32294,0,0,0,4625,0,20523,0
16338,-1306,-8080,754,-53,20,-18,32605,-3,3,34,0,36805,119,25,144,0,0,0,0,0,0,0,0,-32294,0,0,0,4624,0,20543,0
16348,-1182,-8096,768,-50,12,3,32604,-3,16,14,0,36802,109,25,144,0,0,0,0,0,0,0,0,-32294,0,0,0,4624,0,20564,0
16358,-1266,-8090,762,-47,8,6,32603,1,11,6,0,36801,108,25,144,0,0,0,0,0,0,0,0,-32294,0,0,0,4624,0,20584,0
16368,-1314,-8086,752,-45,17,7,32604,1,2,3,0,36799,101,25,144,0,0,0,0,0,0,0,0,-32294,0,0,0,4624,0,20604,0
16378,-1280,-8112,774,-51,15,9,32603,-2,0,6,0,36802,103,25,144,0,0,0,0,0,0,0,0,-32294,0,0,0,4624,0,20624,0
16388,-1276,-8090,802,-53,15,9,32602,1,3,3,0,36803,97,25,144,0,0,0,0,0,0,0,0,-32294,0,0,0,4624,0,20644,0
16398,-1274,-8092,798,-49,15,12,32602,-2,-7,6,0,36802,93,25,144,0,0,0,0,0,0,0,0,-32294,0,0,0,4625,0,20664,0
16408,-1328,-8098,784,-50,18,8,32601,-2,-1,4,0,36800,94,25,144,0,0,0,0,0,0,0,0,-32294,0,0,0,4624,0,20684,0
16418,-1314,-8122,784,-52,13,8,32602,-1,-2,5,0,36803,101,25,144,0,0,0,0,0,0,0,0,-32294,0,0,0,4625,0,20704,0
16428,-1306,-8104,812,-44,10,4,32602,3,5,5,0,36804,95,25,144,0,0,0,0,0,0,0,0,-32294,0,0,0,4624,0,20724,0
16438,-1320,-8132,808,-52,15,5,32603,1,2,1,0,36805,100,25,144,0,0,0,0,0,0,0,0,-32294,0,0,0,4624,0,20744,0
16448,-1322,-8090,782,-53,11,5,32601,-9,4,5,0,36801,104,25,144,0,0,0,0,0,0,0,0,-32294,0,0,0,4624,0,20764,0
16458,-1324,-8092,746,-52,13,1,32603,-3,1,3,0,36799,101,25,144,0,0,0,0,0,0,0,0,-32294,0,0,0,4625,0,20784,0
16468,-1274,-8118,760,-48,10,3,32601,-1,0,3,0,36802,89,25,144,0,0,0,0,0,0,0,0,-32294,0,0,0,4624,0,20804,0
16478,-1298,-8092,742,-49,13,5,32600,-6,0,5,0,36805,88,25,144,0,0,0,0,0,0,0,0,-32294,0,0,0,4624,0,20824,0
16488,-1298,-8108,768,-55,17,4,32602,7,-2,4,0,36804,101,25,144,0,0,0,0,0,0,0,0,-32294,0,0,0,4625,0,20844,0
16498,-1296,-8114,774,-43,8,4,32602,-3,4,4,0,36802,108,25,144,0,0,0,0,0,0,0,0,-32294,0,0,0,4624,0,20864,0
16508,-1306,-8102,780,-48,16,6,32602,-5,-2,3,0,36801,106,25,144,0,0,0,0,0,0,0,0,-32294,0,0,0,4624,0,20884,0
16518,-1290,-8086,790,-48,15,6,32599,-4,-11,3,0,36802,103,25,144,0,0,0,0,0,0,0,0,-32294,0,0,0,4624,0,20904,0
16528,-1324,-8108,798,-50,14,8,32601,3,0,5,0,36804,101,25,144,0,0,0,0,0,0,0,0,-32294,0,0,0,4624,0,20924,0
16538,-1316,-8096,800,-48,13,4,32600,-4,0,1,0,36802,99,25,144,0,0,0,0,0,0,0,0,-32294,0,0,0,4625,0,20944,0
16548,-1300,-8112,816,-54,12,6,32600,0,1,5,0,36802,93,25,144,0,0,0,0,0,0,0,0,-32294,0,0,0,4625,0,20964,0
16558,-1310,-8100,786,-57,11,9,32602,-2,10,4,0,36802,95,25,144,0,0,0,0,0,0,0,0,-32294,0,0,0,4624,0,20984,0
16568,-1264,-8102,790,-57,15,5,32599,0,-1,4,0,36805,89,25,144,0,0,0,0,0,0,0,0,-32294,0,0,0,4625,0,21004,0
16578,-1310,-8086,760,-54,15,7,32600,2,-1,5,0,36805,91,25,144,0,0,0,0,0,0,0,0,-32294,0,0,0,4625,0,21024,0
16588,-1312,-8132,772,-50,16,6,32600,4,1,3,0,36803,91,25,144,0,0,0,0,0,0,0,0,-32294,0,0,0,4624,0,21044,0
16598,-1314,-8092,764,-51,12,2,32599,0,0,4,0,36804,91,25,144,0,0,0,0,0,0,0,0,-32294,0,0,0,4624,0,21064,0
16608,-1312,-8104,756,-54,18,11,32600,-1,0,4,0,36808,91,25,144,0,0,0,0,0,0,0,0,-32294,0,0,0,4624,0,21084,0
16618,-1316,-8100,798,-48,15,-1,32599,-2,-1,3,0,36808,90,25,144,0,0,0,0,0,0,0,0,-32294,0,0,0,4624,0,21104,0
16628,-1286,-8086,756,-49,15,4,32599,1,-2,2,0,36812,90,25,144,0,0,0,0,0,0,0,0,-32294,0,0,0,4624,0,21124,0
16638,-1298,-8114,780,-51,15,2,32599,-3,3,6,0,36810,97,25,144,0,0,0,0,0,0,0,0,-32294,0,0,0,4624,0,21144,0
16648,-1272,-8096,762,-45,10,2,32598,-2,-1,5,0,36810,94,25,144,0,0,0,0,0,0,0,0,-32294,0,0,0,4625,0,21164,0
16658,-1250,-8110,762,-48,15,7,32598,-1,2,2,0,36808,101,25,144,0,0,0,0,0,0,0,0,-32294,0,0,0,4624,0,21184,0
16668,-1246,-8090,776,-48,16,9,32598,9,1,3,0,36808,103,26,144,0,0,0,0,0,0,0,0,-32294,0,0,0,4624,0,21204,0
16678,-1262,-8102,792,-49,12,17,32598,-1,1,4,0,36811,99,25,144,0,0,0,0,0,0,0,0,-32294,0,0,0,4624,0,21225,0
16688,-1300,-8106,786,-55,14,17,32598,0,-4,1,0,36811,96,25,144,0,0,0,0,0,0,0,0,-32294,0,0,0,4624,0,21245,0
16698,-1314,-8084,780,-50,12,12,32598,-6,-2,2,0,36810,92,25,144,0,0,0,0,0,0,0,0,-32294,0,0,0,4624,0,21265,0
16708,-1354,-8106,782,-52,12,9,32598,-1,-7,4,0,36808,97,25,144,0,0,0,0,0,0,0,0,-32294,0,0,0,4624,0,21284,0
16718,-1340,-8104,790,-51,16,10,32598,-1,0,1,0,36808,98,25,144,0,0,0,0,0,0,0,0,-32294,0,0,0,4624,0,21305,0
16728,-1316,-8102,754,-50,17,0,32599,9,-5,4,0,36806,99,25,144,0,0,0,0,0,0,0,0,-32294,0,0,0,4624,0,21325,0
16738,-1316,-8088,770,-45,11,2,32598,-4,5,2,0,36813,89,25,144,0,0,0,0,0,0,0,0,-32294,0,0,0,4624,0,21345,0
16748,-1280,-8108,776,-56,17,2,32598,-3,-3,1,0,36817,95,25,144,0,0,0,0,0,0,0,0,-32294,0,0,0,4624,0,21365,0
16758,-1318,-8078,772,-49,17,2,32597,-5,1,4,0,36815,94,25,144,0,0,0,0,0,0,0,0,-32294,0,0,0,4624,0,21385,0
16768,-1278,-8126,770,-53,17,2,32599,5,2,3,0,36808,101,25,144,0,0,0,0,0,0,0,0,-32294,0,0,0,4624,0,21405,0
16778,-1318,-8118,780,-54,12,7,32598,-2,2,4,0,36808,101,26,144,0,0,0,0,0,0,0,0,-32294,0,0,0,4624,0,21425,0
16788,-1294,-8100,784,-50,8,4,32597,-3,-2,3,0,36810,98,25,144,0,0,0,0,0,0,0,0,-32294,0,0,0,4624,0,21445,0
16798,-1306,-8086,794,-51,14,7,32597,-1,-2,3,0,36812,92,26,144,0,0,0,0,0,0,0,0,-32294,0,0,0,4624,0,21465,0
16808,-1314,-8088,770,-51,13,-1,32598,-2,-3,4,0,36812,96,25,144,0,0,0,0,0,0,0,0,-32294,0,0,0,4623,0,21485,0
16818,-1320,-8080,780,-51,13,1,32596,-4,-3,4,0,36813,104,25,144,0,0,0,0,0,0,0,0,-32294,0,0,0,4625,0,21505,0
16828,-1282,-8100,772,-48,17,-1,32597,-2,0,6,0,36812,110,25,144,0,0,0,0,0,0,0,0,-32294,0,0,0,4624,0,21525,0
16838,-1266,-8118,758,-49,16,-1,32595,-5,-4,6,0,36815,105,25,144,0,0,0,0,0,0,0,0,-32294,0,0,0,4624,0,21545,0
16848,-1268,-8102,782,-46,9,6,32596,3,1,10,0,36818,98,25,144,0,0,0,0,0,0,0,0,-32294,0,0,0,4624,0,21565,0
16858,-1266,-8098,790,-48,16,5,32595,11,-4,8,0,36818,97,25,144,0,0,0,0,0,0,0,0,-32294,0,0,0,4624,0,21585,0
16868,-1278,-8120,790,-51,14,7,32595,1,5,1,0,36820,85,25,144,0,0,0,0,0,0,0,0,-32294,0,0,0,4624,0,21605,0
16878,-1276,-8106,786,-54,18,9,32594,-2,0,4,0,36814,90,25,144,0,0,0,0,0,0,0,0,-32294,0,0,0,4623,0,21625,0
16888,-1302,-8094,770,-52,19,12,32593,-7,8,2,0,36817,96,25,144,0,0,0,0,0,0,0,0,-32294,0,0,0,4624,0,21645,0
16898,-1302,-8094,776,-50,19,9,32594,-5,-2,2,0,36815,104,25,144,0,0,0,0,0,0,0,0,-32294,0,0,0,4624,0,21665,0
16908,-1330,-8092,762,-46,13,11,32596,0,0,3,0,36812,98,25,144,0,0,0,0,0,0,0,0,-32293,0,0,0,4624,0,21685,0
16918,-1310,-8100,732,-49,14,2,32595,0,5,1,0,36812,91,25,144,0,0,0,0,0,0,0,0,-32294,0,0,0,4624,0,21705,0
16928,-1296,-8114,770,-48,16,4,32596,1,6,2,0,36813,97,25,144,0,0,0,0,0,0,0,0,-32294,0,0,0,4624,0,21725,0
16938,-1280,-8090,770,-46,15,8,32594,0,-2,2,0,36812,101,25,144,0,0,0,0,0,0,0,0,-32293,0,0,0,4624,0,21745,0
16948,-1296,-8126,796,-44,14,7,32596,13,3,1,0,36822,97,25,144,0,0,0,0,0,0,0,0,-32294,0,0,0,4624,0,21765,0
16958,-1306,-7998,826,-47,14,11,32596,6,0,4,0,36824,94,25,144,0,0,0,0,0,0,0,0,-32294,0,0,0,4624,0,21785,0
16968,-1292,-7962,816,-49,16,11,32595,0,-1,1,0,36825,104,26,144,0,0,0,0,0,0,0,0,-32294,0,0,0,4624,0,21805,0
16978,-1250,-8202,766,-63,21,12,32595,2,-1,3,0,36820,113,25,144,0,0,0,0,0,0,0,0,-32294,0,0,0,4624,0,21825,0
16988,-1276,-8304,708,-49,12,27,32595,0,-4,0,0,36813,107,25,144,0,0,0,0,0,0,0,0,-32294,0,0,0,4624,0,21845,0
16998,-1314,-7974,664,-37,6,11,32596,5,1,2,0,36813,95,26,144,0,0,0,0,0,0,0,0,-32294,0,0,0,4624,0,21865,0
17008,-1438,-8294,752,-35,9,2,32596,2,1,5,0,36814,92,25,144,0,0,0,0,0,0,0,0,-32294,0,0,0,4624,0,21885,0
17018,-1396,-8104,574,-36,11,-1,32596,9,-1,2,0,36814,91,25,144,0,0,0,0,0,0,0,0,-32294,0,0,0,4623,0,21905,0
17028,-1230,-8004,546,-28,10,-6,32595,4,-6,3,0,36812,95,25,144,0,0,0,0,0,0,0,0,-32295,0,0,0,4624,0,21925,0
17038,-1136,-8094,838,0,23,-3,32595,0,-2,2,0,36813,93,25,144,0,0,0,0,0,0,0,0,-32294,0,0,0,4624,0,21945,0
17048,-1278,-8162,1034,-24,8,22,32595,-5,2,5,0,36812,91,26,144,0,0,0,0,0,0,0,0,-32294,0,0,0,4624,0,21965,0
17058,-1302,-8078,1072,-42,18,15,32594,-3,6,1,0,36817,97,25,144,0,0,0,0,0,0,0,0,-32294,0,0,0,4624,0,21985,0
17068,-1274,-7870,908,-54,26,16,32595,7,0,2,0,36816,91,25,144,0,0,0,0,0,0,0,0,-32293,0,0,0,4624,0,22005,0
17078,-1258,-8300,796,-56,12,22,32594,4,3,3,0,36817,96,26,144,0,0,0,0,0,0,0,0,-32294,0,0,0,4624,0,22025,0
17088,-1300,-8268,670,-48,6,21,32596,7,-4,2,0,36814,90,25,144,0,0,0,0,0,0,0,0,-32294,0,0,0,4624,0,22045,0
17098,-1360,-8084,562,-39,4,12,32596,1,-5,2,0,36814,85,26,144,0,0,0,0,0,0,0,0,-32294,0,0,0,4624,0,22065,0
17108,-1364,-8082,614,-30,5,7,32595,1,-1,4,0,36813,90,26,144,0,0,0,0,0,0,0,0,-32294,0,0,0,4623,0,22085,0
17118,-1352,-8094,694,-18,18,11,32595,4,0,3,0,36812,98,26,144,0,0,0,0,0,0,0,0,-32294,0,0,0,4624,0,22105,0
17128,-1294,-8000,856,-16,20,4,32595,-3,1,4,0,36809,100,25,144,0,0,0,0,0,0,0,0,-32294,0,0,0,4624,0,22125,0
17138,-1278,-8124,1024,-26,11,4,32595,4,4,2,0,36809,97,25,144,0,0,0,0,0,0,0,0,-32294,0,0,0,4624,0,22145,0
17148,-1330,-8154,990,-44,13,15,32595,2,-5,1,0,36814,104,25,144,0,0,0,0,0,0,0,0,-32294,0,0,0,4624,0,22165,0
17158,-1298,-8142,826,-56,5,1,32594,0,4,0,0,36826,104,25,144,0,0,0,0,0,0,0,0,-32294,0,0,0,4623,0,22185,0
17168,-1276,-8062,834,-45,9,3,32593,-10,-2,2,0,36830,107,26,144,0,0,0,0,0,0,0,0,-32294,0,0,0,4623,0,22205,0
17178,-1286,-8136,770,-52,3,13,32594,-11,2,2,0,36828,99,25,144,0,0,0,0,0,0,0,0,-32294,0,0,0,4624,0,22225,0
17188,-1318,-8090,694,-59,12,10,32595,0,-2,2,0,36816,100,25,144,0,0,0,0,0,0,0,0,-32294,0,0,0,4624,0,22245,0
17198,-1258,-8072,652,-47,20,1,32596,3,2,1,0,36810,97,26,144,0,0,0,0,0,0,0,0,-32295,0,0,0,4624,0,22265,0
17208,-1234,-8070,716,-32,13,14,32595,-3,-7,4,0,36809,89,25,144,0,0,0,0,0,0,0,0,-32294,0,0,0,4624,0,22285,0
17218,-1258,-8106,820,-25,15,21,32595,-6,3,1,0,36806,90,25,144,0,0,0,0,0,0,0,0,-32294,0,0,0,4624,0,22305,0
17228,-1296,-8076,836,-36,15,18,32597,13,4,2,0,36805,93,25,144,0,0,0,0,0,0,0,0,-32294,0,0,0,4624,0,22325,0
17238,-1302,-8120,846,-42,17,23,32595,1,4,2,0,36807,95,25,144,0,0,0,0,0,0,0,0,-32294,0,0,0,4624,0,22345,0
17248,-1344,-8100,830,-43,12,22,32594,-9,3,1,0,36808,91,25,144,0,0,0,0,0,0,0,0,-32294,0,0,0,4624,0,22365,0
17258,-1346,-8086,832,-38,9,19,32596,4,0,3,0,36808,89,25,144,0,0,0,0,0,0,0,0,-32294,0,0,0,4624,0,22385,0
17268,-1392,-8142,812,-48,8,17,32595,-4,0,5,0,36810,92,25,144,0,0,0,0,0,0,0,0,-32294,0,0,0,4624,0,22405,0
17278,-1428,-8068,760,-53,13,11,32595,-7,-4,3,0,36811,96,26,144,0,0,0,0,0,0,0,0,-32294,0,0,0,4625,0,22425,0
17288,-1340,-8002,746,-44,12,-6,32595,-11,1,3,0,36813,90,26,144,0,0,0,0,0,0,0,0,-32294,0,0,0,4624,0,22445,0
17298,-1338,-8144,764,-45,8,-5,32596,0,-4,4,0,36813,94,26,144,0,0,0,0,0,0,0,0,-32294,0,0,0,4623,0,22465,0
17308,-1324,-8116,798,-47,10,-5,32594,6,7,3,0,36810,98,25,144,0,0,0,0,0,0,0,0,-32294,0,0,0,4624,0,22485,0
17318,-1340,-8080,800,-49,13,-6,32594,-5,2,2,0,36805,101,25,144,0,0,0,0,0,0,0,0,-32294,0,0,0,4624,0,22505,0
17328,-1310,-8098,798,-45,7,-9,32597,6,-3,2,0,36804,100,25,144,0,0,0,0,0,0,0,0,-32294,0,0,0,4624,0,22525,0
17338,-1304,-8144,818,-42,10,0,32593,-8,2,3,0,36802,97,26,144,0,0,0,0,0,0,0,0,-32294,0,0,0,4623,0,22545,0
17348,-1304,-8064,860,-50,14,-2,32595,0,-5,1,0,36803,95,25,144,0,0,0,0,0,0,0,0,-32294,0,0,0,4624,0,22566,0
17358,-1296,-8094,842,-56,11,-4,32594,-5,-3,5,0,36802,88,25,144,0,0,0,0,0,0,0,0,-32294,0,0,0,4624,0,22586,0
17368,-1290,-8158,806,-56,14,3,32594,0,4,4,0,36799,94,26,144,0,0,0,0,0,0,0,0,-32294,0,0,0,4624,0,22606,0
17378,-1282,-8056,772,-60,10,-1,32594,3,1,2,0,36805,101,25,144,0,0,0,0,0,0,0,0,-32294,0,0,0,4623,0,22626,0
17388,-1248,-8106,780,-52,15,3,32594,0,2,3,0,36805,102,25,144,0,0,0,0,0,0,0,0,-32294,0,0,0,4624,0,22646,0
17398,-1250,-8082,754,-57,9,10,32593,-2,-1,4,0,36806,88,25,144,0,0,0,0,0,0,0,0,-32294,0,0,0,4624,0,22666,0
17408,-1280,-8116,710,-50,14,12,32593,-6,3,2,0,36803,84,25,144,0,0,0,0,0,0,0,0,-32295,0,0,0,4624,0,22686,0
17418,-1266,-8086,712,-46,17,7,32594,6,5,3,0,36802,93,25,144,0,0,0,0,0,0,0,0,-32294,0,0,0,4624,0,22706,0
17428,-1298,-8122,822,-38,14,18,32593,-4,2,2,0,36800,92,25,144,0,0,0,0,0,0,0,0,-32294,0,0,0,4624,0,22726,0
17438,-1314,-8098,836,-47,14,20,32594,-5,1,1,0,36800,93,26,144,0,0,0,0,0,0,0,0,-32294,0,0,0,4624,0,22746,0
17448,-1324,-8080,788,-51,14,14,32595,-2,-1,1,0,36802,93,25,144,0,0,0,0,0,0,0,0,-32294,0,0,0,4624,0,22767,0
17458,-1328,-8104,818,-50,14,14,32595,4,0,1,0,36802,94,25,144,0,0,0,0,0,0,0,0,-32294,0,0,0,4624,0,22786,0
17468,-1350,-8164,830,-45,11,18,32593,-2,5,0,0,36801,96,26,144,0,0,0,0,0,0,0,0,-32294,0,0,0,4624,0,22806,0
17478,-1312,-8054,832,-55,19,10,32593,-13,1,3,0,36805,98,25,144,0,0,0,0,0,0,0,0,-32294,0,0,0,4624,0,22827,0
17488,-1320,-8134,780,-59,12,10,32594,5,0,2,0,36805,92,25,144,0,0,0,0,0,0,0,0,-32294,0,0,0,4624,0,22847,0
17498,-1340,-8116,768,-59,12,14,32595,6,7,1,0,36807,88,26,144,0,0,0,0,0,0,0,0,-32294,0,0,0,4624,0,22867,0
17508,-1292,-8084,740,-53,14,5,32594,-7,4,4,0,36802,88,26,144,0,0,0,0,0,0,0,0,-32294,0,0,0,4624,0,22887,0
17518,-1260,-8092,786,-52,19,12,32595,-8,-6,1,0,36801,96,26,144,0,0,0,0,0,0,0,0,-32294,0,0,0,4624,0,22907,0
17528,-1314,-8108,742,-55,15,12,32595,4,-4,0,0,36800,103,25,144,0,0,0,0,0,0,0,0,-32294,0,0,0,4624,0,22927,0
17538,-1292,-8072,750,-46,16,13,32596,4,2,2,0,36800,100,25,144,0,0,0,0,0,0,0,0,-32294,0,0,0,4625,0,22947,0
17548,-1270,-8098,786,-47,15,13,32596,2,-2,3,0,36798,95,25,144,0,0,0,0,0,0,0,0,-32294,0,0,0,4624,0,22967,0
17558,-1302,-8118,840,-49,14,18,32597,10,2,3,0,36800,94,25,144,0,0,0,0,0,0,0,0,-32294,0,0,0,4624,0,22987,0
17568,-1324,-8102,806,-51,18,17,32595,-1,3,1,0,36802,98,25,144,0,0,0,0,0,0,0,0,-32294,0,0,0,4625,0,23007,0
17578,-1284,-8088,798,-55,18,12,32596,-1,0,4,0,36805,94,25,144,0,0,0,0,0,0,0,0,-32294,0,0,0,4624,0,23027,0
17588,-1316,-8130,814,-48,15,22,32597,2,3,2,0,36805,91,26,144,0,0,0,0,0,0,0,0,-32294,0,0,0,4624,0,23047,0
17598,-1300,-8100,836,-55,11,20,32595,-10,-1,1,0,36805,90,25,144,0,0,0,0,0,0,0,0,-32294,0,0,0,4624,0,23067,0
17608,-1328,-8092,774,-55,14,11,32596,-6,-4,2,0,36805,98,26,144,0,0,0,0,0,0,0,0,-32294,0,0,0,4624,0,23087,0
17618,-1328,-8072,740,-56,19,18,32597,10,-1,1,0,36805,99,25,144,0,0,0,0,0,0,0,0,-32294,0,0,0,4624,0,23107,0
17628,-1364,-8110,762,-46,14,16,32597,1,4,1,0,36804,103,25,144,0,0,0,0,0,0,0,0,-32294,0,0,0,4624,0,23127,0
17638,-1318,-8104,764,-44,16,9,32596,5,-2,2,0,36802,106,26,144,0,0,0,0,0,0,0,0,-32294,0,0,0,4624,0,23147,0
17648,-1326,-8086,804,-43,13,17,32595,0,-4,3,0,36803,97,25,144,0,0,0,0,0,0,0,0,-32294,0,0,0,4624,0,23167,0
17658,-1308,-8128,796,-44,12,12,32596,-3,0,3,0,36805,84,25,144,0,0,0,0,0,0,0,0,-32294,0,0,0,4624,0,23187,0
17668,-1332,-8090,798,-45,14,8,32596,-2,-10,2,0,36806,85,26,144,0,0,0,0,0,0,0,0,-32294,0,0,0,4624,0,23207,0
17678,-1330,-8108,788,-45,12,9,32597,0,0,1,0,36805,94,25,144,0,0,0,0,0,0,0,0,-32294,0,0,0,4624,0,23227,0
17688,-1336,-8122,814,-49,12,7,32596,-7,0,4,0,36803,92,25,144,0,0,0,0,0,0,0,0,-32294,0,0,0,4625,0,23247,0
17698,-1316,-8084,804,-49,15,8,32596,-3,4,0,0,36806,85,26,144,0,0,0,0,0,0,0,0,-32294,0,0,0,4624,0,23267,0
17708,-1316,-8114,790,-48,16,2,32596,-6,0,2,0,36812,83,26,144,0,0,0,0,0,0,0,0,-32294,0,0,0,4624,0,23287,0
17718,-1308,-8092,766,-44,16,9,32596,0,2,3,0,36811,99,25,144,0,0,0,0,0,0,0,0,-32294,0,0,0,4625,0,23307,0
17728,-1280,-8108,778,-49,13,4,32596,-5,-1,2,0,36807,100,26,144,0,0,0,0,0,0,0,0,-32294,0,0,0,4625,0,23327,0
17738,-1288,-8092,776,-47,19,7,32596,0,-3,3,0,36805,105,26,144,0,0,0,0,0,0,0,0,-32294,0,0,0,4624,0,23347,0
17748,-1284,-8126,804,-44,17,13,32597,4,1,2,0,36807,97,26,144,0,0,0,0,0,0,0,0,-32294,0,0,0,4624,0,23367,0
17758,-1290,-8086,806,-46,15,14,32596,1,-3,2,0,36809,102,26,144,0,0,0,0,0,0,0,0,-32294,0,0,0,4624,0,23387,0
17768,-1312,-8092,774,-38,16,12,32594,-14,2,3,0,36808,104,25,144,0,0,0,0,0,0,0,0,-32294,0,0,0,4624,0,23407,0
17778,-1342,-8112,788,-47,6,15,32597,-7,-2,3,0,36807,102,26,144,0,0,0,0,0,0,0,0,-32294,0,0,0,4624,0,23427,0
17788,-1316,-8092,782,-44,16,11,32597,7,-5,3,0,36809,102,25,144,0,0,0,0,0,0,0,0,-32294,0,0,0,4624,0,23447,0
17798,-1306,-8082,756,-40,9,15,32595,-9,2,2,0,36814,97,25,144,0,0,0,0,0,0,0,0,-32294,0,0,0,4625,0,23467,0
17808,-1322,-8108,818,-44,10,15,32597,5,-3,2,0,36811,102,26,144,0,0,0,0,0,0,0,0,-32294,0,0,0,4624,0,23487,0
17818,-1330,-8108,800,-44,13,16,32597,-1,3,2,0,36811,102,25,144,0,0,0,0,0,0,0,0,-32294,0,0,0,4625,0,23507,0
17828,-1312,-8104,778,-46,15,10,32597,-3,2,2,0,36811,99,25,144,0,0,0,0,0,0,0,0,-32294,0,0,0,4624,0,23527,0
17838,-1326,-8080,768,-43,14,13,32597,-8,-4,4,0,36813,93,26,144,0,0,0,0,0,0,0,0,-32294,0,0,0,4624,0,23547,0
17848,-1338,-8104,794,-45,8,12,32596,2,2,2,0,36813,88,25,144,0,0,0,0,0,0,0,0,-32294,0,0,0,4624,0,23567,0
17858,-1322,-8084,808,-50,13,9,32597,1,1,3,0,36810,90,25,144,0,0,0,0,0,0,0,0,-32294,0,0,0,4624,0,23587,0
17868,-1310,-8068,800,-46,11,11,32596,-3,1,3,0,36810,95,25,144,0,0,0,0,0,0,0,0,-32294,0,0,0,4624,0,23607,0
17878,-1344,-8090,770,-46,11,8,32597,2,-3,3,0,36809,92,25,144,0,0,0,0,0,0,0,0,-32294,0,0,0,4624,0,23627,0
17888,-1298,-8066,784,-47,9,2,32597,-3,-1,2,0,36812,94,26,144,0,0,0,0,0,0,0,0,-32294,0,0,0,4624,0,23647,0
17898,-1300,-8088,814,-51,14,0,32598,0,-1,3,0,36817,102,26,144,0,0,0,0,0,0,0,0,-32294,0,0,0,4624,0,23667,0
17908,-1330,-8098,804,-52,15,8,32597,7,-6,2,0,36820,100,25,144,0,0,0,0,0,0,0,0,-32294,0,0,0,4624,0,23687,0
17918,-1324,-8084,766,-47,17,8,32597,0,5,3,0,36820,101,25,144,0,0,0,0,0,0,0,0,-32293,0,0,0,4624,0,23707,0
17928,-1274,-8110,790,-48,19,3,32596,2,-2,2,0,36816,99,26,144,0,0,0,0,0,0,0,0,-32294,0,0,0,4625,0,23727,0
17938,-1286,-8104,784,-48,17,9,32596,0,0,2,0,36814,104,26,144,0,0,0,0,0,0,0,0,-32294,0,0,0,4625,0,23747,0
17948,-1264,-8118,804,-51,14,13,32597,1,7,1,0,36813,103,26,144,0,0,0,0,0,0,0,0,-32294,0,0,0,4624,0,23767,0
17958,-1236,-8082,770,-44,16,13,32595,-13,-1,1,0,36814,100,25,144,0,0,0,0,0,0,0,0,-32293,0,0,0,4624,0,23787,0
17968,-1274,-8096,814,-50,11,22,32597,0,4,3,0,36817,99,25,144,0,0,0,0,0,0,0,0,-32294,0,0,0,4624,0,23807,0
17978,-1318,-8098,768,-43,15,22,32597,-5,3,2,0,36816,103,26,144,0,0,0,0,0,0,0,0,-32294,0,0,0,4624,0,23827,0
17988,-1310,-8088,782,-42,15,23,32597,-2,4,1,0,36812,96,25,144,0,0,0,0,0,0,0,0,-32294,0,0,0,4625,0,23847,0
17998,-1358,-8080,770,-45,8,24,32596,0,0,0,0,36816,89,25,144,0,0,0,0,0,0,0,0,-32294,0,0,0,4625,0,23867,0
18008,-1366,-8086,798,-40,18,20,32599,5,-4,2,0,36817,96,26,144,0,0,0,0,0,0,0,0,-32294,0,0,0,4625,0,23887,0
18018,-1346,-8116,800,-45,15,13,32597,6,2,4,0,36820,96,25,144,0,0,0,0,0,0,0,0,-32294,0,0,0,4624,0,23907,0
18028,-1324,-8124,798,-44,7,12,32596,0,0,0,0,36817,98,26,144,0,0,0,0,0,0,0,0,-32295,0,0,0,4625,0,23927,0
18038,-1344,-8084,802,-41,11,10,32599,-1,0,2,0,36814,91,25,144,0,0,0,0,0,0,0,0,-32294,0,0,0,4625,0,23947,0
18048,-1310,-8082,816,-50,15,7,32596,-6,-7,3,0,36814,88,25,144,0,0,0,0,0,0,0,0,-32294,0,0,0,4625,0,23967,0
18058,-1334,-8104,836,-49,15,8,32598,1,-3,1,0,36815,91,26,144,0,0,0,0,0,0,0,0,-32294,0,0,0,4624,0,23987,0
18068,-1328,-8108,810,-51,12,10,32598,-1,4,3,0,36814,94,25,144,0,0,0,0,0,0,0,0,-32294,0,0,0,4624,0,24007,0
18078,-1330,-8102,804,-51,15,10,32598,2,3,4,0,36812,101,26,144,0,0,0,0,0,0,0,0,-32294,0,0,0,4625,0,24027,0
18088,-1286,-8108,752,-50,12,12,32598,0,3,3,0,36811,102,25,144,0,0,0,0,0,0,0,0,-32294,0,0,0,4624,0,24047,0
18098,-1306,-8128,792,-53,11,12,32596,1,0,4,0,36811,96,25,144,0,0,0,0,0,0,0,0,-32294,0,0,0,4625,0,24067,0
18108,-1328,-8086,768,-46,16,10,32598,9,2,3,0,36817,92,26,144,0,0,0,0,0,0,0,0,-32294,0,0,0,4625,0,24087,0
18118,-1320,-8092,758,-45,16,6,32597,-5,-5,4,0,36818,97,25,144,0,0,0,0,0,0,0,0,-32294,0,0,0,4625,0,24107,0
18128,-1318,-8116,780,-42,15,13,32597,0,-2,2,0,36816,90,26,144,0,0,0,0,0,0,0,0,-32294,0,0,0,4625,0,24127,0
18138,-1308,-8098,792,-41,13,13,32599,2,-4,0,0,36808,88,26,144,0,0,0,0,0,0,0,0,-32294,0,0,0,4625,0,24147,0
18148,-1316,-8076,830,-47,14,10,32596,-3,3,2,0,36808,88,26,144,0,0,0,0,0,0,0,0,-32294,0,0,0,4624,0,24167,0
18158,-1338,-8126,822,-46,15,8,32598,-6,0,2,0,36810,89,25,144,0,0,0,0,0,0,0,0,-32294,0,0,0,4625,0,24187,0
18168,-1314,-8064,824,-53,16,9,32598,0,-2,4,0,36809,93,25,144,0,0,0,0,0,0,0,0,-32294,0,0,0,4624,0,24207,0
18178,-1304,-8086,812,-53,14,6,32598,3,5,3,0,36807,94,26,144,0,0,0,0,0,0,0,0,-32294,0,0,0,4624,0,24227,0
18188,-1322,-8098,778,-52,13,9,32599,1,4,1,0,36805,97,25,144,0,0,0,0,0,0,0,0,-32294,0,0,0,4625,0,24247,0
18198,-1336,-8090,784,-52,12,5,32598,-3,0,3,0,36807,94,26,144,0,0,0,0,0,0,0,0,-32294,0,0,0,4624,0,24267,0
18208,-1308,-8100,760,-47,14,6,32597,-1,2,3,0,36809,91,25,144,0,0,0,0,0,0,0,0,-32294,0,0,0,4624,0,24287,0
18218,-1330,-8116,768,-52,7,9,32598,3,4,4,0,36815,93,25,144,0,0,0,0,0,0,0,0,-32294,0,0,0,4625,0,24307,0
18228,-1340,-8078,802,-52,14,5,32597,-5,2,2,0,36813,99,25,144,0,0,0,0,0,0,0,0,-32294,0,0,0,4624,0,24327,0
18238,-1356,-8098,788,-43,15,2,32598,0,1,2,0,36812,94,25,144,0,0,0,0,0,0,0,0,-32294,0,0,0,4625,0,24347,0
18248,-1320,-8116,808,-49,15,6,32597,-6,-1,3,0,36805,97,26,144,0,0,0,0,0,0,0,0,-32294,0,0,0,4625,0,24367,0
18258,-1338,-8100,812,-52,10,7,32598,-1,1,2,0,36806,101,25,144,0,0,0,0,0,0,0,0,-32294,0,0,0,4624,0,24387,0
18268,-1288,-8108,794,-57,16,8,32597,-6,2,3,0,36806,103,25,144,0,0,0,0,0,0,0,0,-32294,0,0,0,4625,0,24407,0
18278,-1290,-8106,804,-47,12,12,32596,3,3,2,0,36802,102,26,144,0,0,0,0,0,0,0,0,-32294,0,0,0,4625,0,24427,0
18288,-1324,-8086,802,-47,11,17,32597,-1,0,1,0,36802,93,25,144,0,0,0,0,0,0,0,0,-32294,0,0,0,4624,0,24447,0
18298,-1310,-8070,806,-50,15,16,32598,-4,-2,2,0,36803,90,25,144,0,0,0,0,0,0,0,0,-32294,0,0,0,4625,0,24467,0
18308,-1326,-8126,764,-48,11,17,32599,5,3,2,0,36806,96,26,144,0,0,0,0,0,0,0,0,-32294,0,0,0,4625,0,24487,0
18318,-1304,-8090,780,-50,16,19,32598,-1,-2,3,0,36809,103,26,144,0,0,0,0,0,0,0,0,-32294,0,0,0,4624,0,24507,0
18328,-1344,-8088,806,-43,10,25,32598,-4,-1,0,0,36807,102,26,144,0,0,0,0,0,0,0,0,-32294,0,0,0,4625,0,24527,0
18338,-1326,-8094,802,-44,13,16,32599,1,8,0,0,36808,101,26,144,0,0,0,0,0,0,0,0,-32294,0,0,0,4625,0,24547,0
18348,-1358,-8116,840,-46,11,15,32599,0,-4,3,0,36804,94,25,144,0,0,0,0,0,0,0,0,-32294,0,0,0,4625,0,24568,0
18358,-1364,-8080,800,-51,13,16,32599,-6,-3,2,0,36805,91,25,144,0,0,0,0,0,0,0,0,-32294,0,0,0,4625,0,24588,0
18368,-1350,-8096,800,-55,17,10,32598,-6,-4,3,0,36801,88,25,144,0,0,0,0,0,0,0,0,-32294,0,0,0,4626,0,24608,0
18378,-1352,-8082,784,-52,11,8,32598,-9,-3,2,0,36800,96,25,144,0,0,0,0,0,0,0,0,-32294,0,0,0,4625,0,24628,0
18388,-1376,-8108,772,-55,14,2,32600,3,3,1,0,36802,99,25,144,0,0,0,0,0,0,0,0,-32294,0,0,0,4625,0,24648,0
18398,-1360,-8092,768,-52,17,1,32599,3,6,3,0,36801,96,26,144,0,0,0,0,0,0,0,0,-32294,0,0,0,4626,0,24668,0
18408,-1306,-8090,756,-46,14,-1,32598,-5,1,3,0,36802,95,25,144,0,0,0,0,0,0,0,0,-32294,0,0,0,4625,0,24688,0
18418,-1336,-8082,818,-49,13,0,32599,5,-5,3,0,36801,99,26,144,0,0,0,0,0,0,0,0,-32294,0,0,0,4626,0,24708,0
18428,-1314,-8114,818,-49,11,1,32599,-1,3,2,0,36809,101,25,144,0,0,0,0,0,0,0,0,-32294,0,0,0,4625,0,24729,0
18438,-1334,-8100,802,-44,14,-5,32600,0,3,3,0,36818,95,25,144,0,0,0,0,0,0,0,0,-32294,0,0,0,4625,0,24749,0
18448,-1300,-8114,784,-51,16,6,32598,2,4,4,0,36830,90,26,144,0,0,0,0,0,0,0,0,-32294,0,0,0,4625,0,24769,0
18458,-1330,-8090,798,-46,14,5,32600,10,-2,3,0,36826,92,25,144,0,0,0,0,0,0,0,0,-32294,0,0,0,4625,0,24789,0
18468,-1316,-8092,772,-48,16,10,32599,0,-6,3,0,36814,97,25,144,0,0,0,0,0,0,0,0,-32294,0,0,0,4624,0,24809,0
18478,-1312,-8104,760,-44,12,9,32600,-1,4,2,0,36802,96,26,144,0,0,0,0,0,0,0,0,-32294,0,0,0,4625,0,24829,0
18488,-1306,-8080,788,-46,15,12,32599,0,1,1,0,36797,93,25,144,0,0,0,0,0,0,0,0,-32294,0,0,0,4625,0,24849,0
18498,-1324,-8080,810,-42,13,9,32600,5,1,3,0,36798,87,25,144,0,0,0,0,0,0,0,0,-32294,0,0,0,4625,0,24869,0
18508,-1336,-8084,790,-41,11,9,32597,-2,-4,2,0,36799,91,25,144,0,0,0,0,0,0,0,0,-32294,0,0,0,4625,0,24889,0
18518,-1358,-8104,820,-40,15,8,32597,-3,-1,2,0,36800,91,25,144,0,0,0,0,0,0,0,0,-32294,0,0,0,4625,0,24909,0
18528,-1356,-8098,804,-42,18,5,32598,-12,-5,0,0,36804,94,26,144,0,0,0,0,0,0,0,0,-32293,0,0,0,4625,0,24929,0
18538,-1326,-8096,790,-43,12,11,32599,-2,-2,2,0,36808,74,26,144,0,0,0,0,0,0,0,0,-32294,0,0,0,4625,0,24949,0
18548,-1266,-8078,772,-46,8,3,32600,6,0,3,0,36809,78,26,144,0,0,0,0,0,0,0,0,-32294,0,0,0,4626,0,24969,0
18558,-1266,-8098,798,-41,15,8,32599,-4,2,4,0,36807,89,26,144,0,0,0,0,0,0,0,0,-32294,0,0,0,4624,0,24989,0
18568,-1348,-8108,812,-43,13,15,32598,-2,3,3,0,36804,109,26,144,0,0,0,0,0,0,0,0,-32294,0,0,0,4626,0,25009,0
18578,-1342,-8094,816,-42,11,13,32597,-9,-1,3,0,36802,102,25,144,0,0,0,0,0,0,0,0,-32294,0,0,0,4625,0,25029,0
18588,-1332,-8102,794,-44,20,16,32598,-7,-6,2,0,36803,99,26,144,0,0,0,0,0,0,0,0,-32293,0,0,0,4625,0,25049,0
18598,-1336,-8110,812,-45,14,9,32599,-2,1,3,0,36803,102,25,144,0,0,0,0,0,0,0,0,-32293,0,0,0,4625,0,25069,0
18608,-1340,-8096,792,-40,12,13,32599,5,-4,1,0,36805,99,25,144,0,0,0,0,0,0,0,0,-32294,0,0,0,4625,0,25089,0
18618,-1350,-8102,794,-46,15,11,32600,2,1,3,0,36804,98,25,144,0,0,0,0,0,0,0,0,-32294,0,0,0,4625,0,25109,0
18628,-1316,-8084,794,-49,8,8,32599,1,-4,3,0,36804,86,26,144,0,0,0,0,0,0,0,0,-32294,0,0,0,4625,0,25129,0
18638,-1308,-8092,780,-42,12,9,32599,8,2,0,0,36807,97,26,144,0,0,0,0,0,0,0,0,-32294,0,0,0,4626,0,25149,0
18648,-1302,-8096,800,-41,9,14,32599,-1,3,4,0,36807,101,25,144,0,0,0,0,0,0,0,0,-32294,0,0,0,4625,0,25169,0
18658,-1304,-8086,798,-43,14,11,32599,2,-5,1,0,36808,101,25,144,0,0,0,0,0,0,0,0,-32294,0,0,0,4625,0,25189,0
18668,-1346,-8090,798,-50,14,14,32599,5,0,2,0,36807,104,26,144,0,0,0,0,0,0,0,0,-32294,0,0,0,4625,0,25209,0
18678,-1344,-8094,824,-43,13,11,32599,-2,-2,2,0,36806,100,25,144,0,0,0,0,0,0,0,0,-32294,0,0,0,4625,0,25229,0
18688,-1348,-8104,830,-47,13,7,32598,-2,-2,0,0,36803,106,25,144,0,0,0,0,0,0,0,0,-32294,0,0,0,4625,0,25249,0
18698,-1356,-8088,792,-47,14,5,32600,7,2,6,0,36802,104,26,144,0,0,0,0,0,0,0,0,-32294,0,0,0,4625,0,25269,0
18708,-1346,-8072,786,-45,9,7,32597,-8,2,3,0,36805,102,25,144,0,0,0,0,0,0,0,0,-32294,0,0,0,4625,0,25289,0
18718,-1320,-8096,792,-54,14,4,32599,3,-2,2,0,36808,101,26,144,0,0,0,0,0,0,0,0,-32294,0,0,0,4625,0,25309,0
18728,-1334,-8098,780,-48,14,6,32600,6,4,3,0,36807,105,26,144,0,0,0,0,0,0,0,0,-32293,0,0,0,4625,0,25329,0
18738,-1326,-8086,810,-41,11,3,32599,1,0,0,0,36807,96,26,144,0,0,0,0,0,0,0,0,-32294,0,0,0,4626,0,25349,0
18748,-1326,-8108,780,-55,11,6,32599,0,-2,4,0,36816,95,26,144,0,0,0,0,0,0,0,0,-32294,0,0,0,4625,0,25369,0
18758,-1316,-8090,774,-51,13,6,32598,-8,-4,2,0,36820,101,26,144,0,0,0,0,0,0,0,0,-32294,0,0,0,4624,0,25389,0
18768,-1344,-8106,788,-48,15,10,32600,0,0,3,0,36817,103,26,144,0,0,0,0,0,0,0,0,-32294,0,0,0,4626,0,25409,0
18778,-1334,-8122,800,-49,14,2,32599,1,4,4,0,36806,100,26,144,0,0,0,0,0,0,0,0,-32294,0,0,0,4625,0,25429,0
18788,-1330,-8114,826,-46,13,7,32598,-3,4,3,0,36806,99,26,144,0,0,0,0,0,0,0,0,-32294,0,0,0,4625,0,25449,0
18798,-1314,-8096,782,-50,14,7,32600,4,2,4,0,36810,96,25,144,0,0,0,0,0,0,0,0,-32294,0,0,0,4625,0,25469,0
18808,-1320,-8106,794,-50,18,7,32598,-1,-2,3,0,36810,94,25,144,0,0,0,0,0,0,0,0,-32294,0,0,0,4625,0,25489,0
18818,-1314,-8088,784,-45,15,7,32599,-1,-2,3,0,36808,91,26,144,0,0,0,0,0,0,0,0,-32294,0,0,0,4625,0,25509,0
18828,-1334,-8092,792,-48,11,7,32599,-4,-3,4,0,36806,88,26,144,0,0,0,0,0,0,0,0,-32294,0,0,0,4624,0,25529,0
18838,-1344,-8104,804,-51,14,10,32598,-2,0,1,0,36808,94,26,144,0,0,0,0,0,0,0,0,-32294,0,0,0,4625,0,25549,0
18848,-1342,-8088,768,-51,10,12,32598,-2,-5,3,0,36813,88,25,144,0,0,0,0,0,0,0,0,-32294,0,0,0,4625,0,25569,0
18858,-1352,-8112,790,-46,12,6,32598,-1,0,1,0,36817,99,25,144,0,0,0,0,0,0,0,0,-32294,0,0,0,4625,0,25589,0
18868,-1348,-8080,796,-50,11,-1,32599,1,1,2,0,36816,106,26,144,0,0,0,0,0,0,0,0,-32294,0,0,0,4625,0,25609,0
18878,-1326,-8102,792,-46,11,8,32599,-4,2,4,0,36815,106,25,144,0,0,0,0,0,0,0,0,-32294,0,0,0,4624,0,25629,0
18888,-1332,-8106,808,-46,16,4,32598,-2,4,3,0,36811,100,26,144,0,0,0,0,0,0,0,0,-32294,0,0,0,4625,0,25649,0
18898,-1360,-8100,828,-48,10,3,32599,1,1,3,0,36811,106,25,144,0,0,0,0,0,0,0,0,-32294,0,0,0,4625,0,25669,0
18908,-1354,-8098,808,-47,12,8,32599,1,-2,5,0,36811,106,25,144,0,0,0,0,0,0,0,0,-32294,0,0,0,4625,0,25689,0
18918,-1342,-8114,840,-52,15,2,32599,0,1,6,0,36810,108,26,144,0,0,0,0,0,0,0,0,-32294,0,0,0,4625,0,25709,0
18928,-1350,-8098,790,-48,13,4,32598,0,2,5,0,36811,98,26,144,0,0,0,0,0,0,0,0,-32294,0,0,0,4626,0,25729,0
18938,-1328,-8094,808,-55,14,2,32600,1,0,2,0,36814,93,26,144,0,0,0,0,0,0,0,0,-32294,0,0,0,4626,0,25749,0
18948,-1322,-8100,790,-46,10,3,32599,2,1,1,0,36817,94,26,144,0,0,0,0,0,0,0,0,-32294,0,0,0,4625,0,25769,0
18958,-1346,-8108,796,-51,14,2,32599,-1,-1,3,0,36820,93,26,144,0,0,0,0,0,0,0,0,-32294,0,0,0,4625,0,25789,0
18968,-1320,-8080,790,-46,10,-1,32598,2,1,0,0,36821,98,26,144,0,0,0,0,0,0,0,0,-32294,0,0,0,4625,0,25809,0
18978,-1326,-8096,806,-47,12,-1,32598,-4,0,2,0,36819,96,26,144,0,0,0,0,0,0,0,0,-32294,0,0,0,4626,0,25829,0
18988,-1292,-8088,806,-50,16,-2,32598,4,2,0,0,36819,94,26,144,0,0,0,0,0,0,0,0,-32294,0,0,0,4625,0,25849,0
18998,-1302,-8122,824,-49,11,4,32599,0,1,2,0,36812,91,26,144,0,0,0,0,0,0,0,0,-32294,0,0,0,4626,0,25869,0
19008,-1300,-8124,814,-51,14,4,32598,-6,2,3,0,36812,98,26,144,0,0,0,0,0,0,0,0,-32294,0,0,0,4625,0,25889,0
19018,-1276,-8120,804,-52,15,9,32598,-5,0,3,0,36813,100,26,144,0,0,0,0,0,0,0,0,-32294,0,0,0,4625,0,25909,0
19028,-1260,-8090,802,-44,17,7,32600,-2,0,3,0,36813,108,26,144,0,0,0,0,0,0,0,0,-32296,0,0,0,4625,0,25929,0
19038,-1292,-8082,796,-47,13,12,32600,10,4,1,0,36812,106,26,144,0,0,0,0,0,0,0,0,-32294,0,0,0,4625,0,25949,0
19048,-1340,-8074,792,-47,18,15,32599,-1,2,3,0,36812,104,25,144,0,0,0,0,0,0,0,0,-32294,0,0,0,4625,0,25969,0
19058,-1348,-8088,798,-47,19,11,32599,-5,1,0,0,36813,104,26,144,0,0,0,0,0,0,0,0,-32294,0,0,0,4626,0,25989,0
19068,-1340,-8096,778,-48,20,5,32599,7,-2,3,0,36816,98,25,144,0,0,0,0,0,0,0,0,-32294,0,0,0,4625,0,26009,0
19078,-1324,-8122,770,-51,15,10,32599,3,1,3,0,36817,99,25,144,0,0,0,0,0,0,0,0,-32294,0,0,0,4625,0,26029,0
19088,-1340,-8080,816,-52,13,10,32600,3,2,1,0,36814,105,26,144,0,0,0,0,0,0,0,0,-32294,0,0,0,4625,0,26049,0
19098,-1330,-8098,800,-49,16,7,32599,1,-1,4,0,36811,107,25,144,0,0,0,0,0,0,0,0,-32294,0,0,0,4626,0,26069,0
19108,-1336,-8094,824,-52,21,10,32598,-9,-4,2,0,36811,103,25,144,0,0,0,0,0,0,0,0,-32294,0,0,0,4625,0,26089,0
19118,-1314,-8090,794,-49,17,10,32599,2,-5,5,0,36811,99,26,144,0,0,0,0,0,0,0,0,-32294,0,0,0,4625,0,26109,0
19128,-1298,-8102,780,-47,10,11,32599,3,-1,2,0,36810,97,25,144,0,0,0,0,0,0,0,0,-32294,0,0,0,4625,0,26129,0
19138,-1332,-8098,778,-51,11,15,32599,4,2,1,0,36806,95,26,144,0,0,0,0,0,0,0,0,-32294,0,0,0,4625,0,26149,0
19148,-1336,-8098,806,-49,11,14,32599,-1,-6,4,0,36807,94,26,144,0,0,0,0,0,0,0,0,-32294,0,0,0,4625,0,26169,0
19158,-1338,-8096,802,-48,13,15,32599,7,0,2,0,36811,95,26,144,0,0,0,0,0,0,0,0,-32294,0,0,0,4626,0,26189,0
19168,-1328,-8108,826,-49,14,6,32600,3,1,0,0,36819,105,26,144,0,0,0,0,0,0,0,0,-32294,0,0,0,4625,0,26209,0
19178,-1376,-8110,802,-51,14,5,32599,-3,-5,2,0,36814,104,26,144,0,0,0,0,0,0,0,0,-32294,0,0,0,4625,0,26229,0
19188,-1362,-8060,786,-48,14,6,32599,-6,0,2,0,36809,104,26,144,0,0,0,0,0,0,0,0,-32294,0,0,0,4625,0,26249,0
19198,-1334,-8112,818,-47,10,-2,32598,1,-3,5,0,36804,100,26,144,0,0,0,0,0,0,0,0,-32294,0,0,0,4625,0,26269,0
19208,-1346,-8130,790,-53,9,2,32599,-5,-1,2,0,36806,107,26,144,0,0,0,0,0,0,0,0,-32294,0,0,0,4626,0,26289,0
19218,-1352,-8094,798,-49,17,1,32598,-2,2,1,0,36807,109,25,144,0,0,0,0,0,0,0,0,-32294,0,0,0,4625,0,26309,0
19228,-1302,-8140,784,-49,6,2,32598,0,5,2,0,36805,106,26,144,0,0,0,0,0,0,0,0,-32294,0,0,0,4626,0,26329,0
19238,-1300,-8104,796,-47,11,2,32598,-7,-1,2,0,36802,100,25,144,0,0,0,0,0,0,0,0,-32294,0,0,0,4625,0,26349,0
19248,-1296,-8112,786,-47,16,5,32599,1,3,3,0,36804,96,25,144,0,0,0,0,0,0,0,0,-32294,0,0,0,4626,0,26369,0
19258,-1302,-8090,770,-48,10,3,32600,5,-2,3,0,36803,101,26,144,0,0,0,0,0,0,0,0,-32294,0,0,0,4625,0,26389,0
19268,-1328,-8116,802,-50,11,8,32599,1,-6,3,0,36803,99,25,144,0,0,0,0,0,0,0,0,-32294,0,0,0,4625,0,26409,0
19278,-1352,-8078,778,-44,10,6,32599,1,0,3,0,36809,95,25,144,0,0,0,0,0,0,0,0,-32294,0,0,0,4625,0,26429,0
19288,-1338,-8118,796,-52,11,6,32599,3,0,0,0,36808,93,26,144,0,0,0,0,0,0,0,0,-32294,0,0,0,4625,0,26449,0
19298,-1356,-8086,798,-43,15,8,32598,-2,-7,4,0,36810,90,25,144,0,0,0,0,0,0,0,0,-32294,0,0,0,4625,0,26469,0
19308,-1332,-8082,812,-51,12,1,32600,2,4,2,0,36803,95,26,144,0,0,0,0,0,0,0,0,-32294,0,0,0,4626,0,26489,0
19318,-1342,-8112,784,-45,13,1,32599,3,3,2,0,36803,101,25,144,0,0,0,0,0,0,0,0,-32294,0,0,0,4625,0,26509,0
19328,-1346,-8088,812,-50,12,4,32598,-4,0,4,0,36800,96,25,144,0,0,0,0,0,0,0,0,-32294,0,0,0,4625,0,26529,0
