state_time,accelx,accely,accelz,gyrox,gyroy,gyroz,mot_ang,mot_vel,mot_acc,mot_cur,mot_volt,batt_volt,batt_curr,temperature,status_mn,status_ex,status_re,genvar_0,genvar_1,genvar_2,genvar_3,genvar_4,genvar_5,genvar_6,genvar_7,genvar_8,genvar_9,ank_ang,ank_vel,sys_time,event flags
16541,-112,-8288,596,-52,45,17,9788,-5,-2,-2,0,37113,297,27,79,0,0,0,0,0,0,0,0,-32315,0,0,0,4054,0,6664,0
16551,-124,-8290,572,-52,36,11,9789,0,-4,0,0,37112,297,27,79,0,0,0,0,0,0,0,0,-32315,0,0,0,4054,0,16562,0
16561,-116,-8278,586,-48,43,16,9789,0,-4,-1,0,37110,297,27,79,0,0,0,0,0,0,0,0,-32316,0,0,0,4052,0,16582,0
16571,-142,-8270,604,-47,38,20,9788,1,4,0,0,37110,287,27,79,0,0,0,0,0,0,0,0,-32315,0,0,0,4053,0,16602,0
16581,-118,-8274,604,-49,41,20,9789,1,-3,0,0,37112,286,27,79,0,0,0,0,0,0,0,0,-32315,0,0,0,4053,0,16622,0
16591,-132,-8280,616,-56,40,20,9790,6,-2,0,0,37115,297,27,79,0,0,0,0,0,0,0,0,-32315,0,0,0,4053,0,16642,0
16601,-130,-8252,610,-51,37,15,9789,3,3,0,0,37120,300,27,79,0,0,0,0,0,0,0,0,-32315,0,0,0,4053,0,16662,0
16611,-120,-8290,594,-55,43,21,9789,0,-2,0,0,37121,308,27,79,0,0,0,0,0,0,0,0,-32315,0,0,0,4054,0,16683,0
16621,-142,-8286,570,-52,40,21,9789,1,-3,0,0,37118,303,27,79,0,0,0,0,0,0,0,0,-32315,0,0,0,4054,0,16703,0
16631,-140,-8240,580,-54,43,21,9788,0,-3,0,0,37121,314,27,79,0,0,0,0,0,0,0,0,-32316,0,0,0,4053,0,16723,0
16641,-116,-8302,568,-49,40,15,9790,0,5,-1,0,37123,311,27,79,0,0,0,0,0,0,0,0,-32315,0,0,0,4054,0,16743,0
16651,-126,-8272,568,-52,40,20,9789,0,3,-2,0,37121,311,26,79,0,0,0,0,0,0,0,0,-32315,0,0,0,4054,0,16766,0
16661,-134,-8268,580,-53,37,21,9788,-2,3,0,0,37112,304,27,79,0,0,0,0,0,0,0,0,-32315,0,0,0,4052,0,16786,0
16671,-162,-8272,594,-51,42,19,9788,-1,-3,-1,0,37111,307,27,79,0,0,0,0,0,0,0,0,-32315,0,0,0,4053,0,16806,0
16681,-154,-8258,590,-47,38,18,9789,-4,3,-1,0,37112,304,27,79,0,0,0,0,0,0,0,0,-32315,0,0,0,4053,0,16826,0
16691,-150,-8238,574,-51,40,10,9789,-2,1,0,0,37113,299,27,79,0,0,0,0,0,0,0,0,-32315,0,0,0,4053,0,16846,0
16701,-122,-8282,582,-52,38,12,9790,6,1,-1,0,37113,293,27,79,0,0,0,0,0,0,0,0,-32315,0,0,0,4054,0,16866,0
16711,-118,-8308,590,-54,39,14,9789,-1,-2,0,0,37112,296,27,79,0,0,0,0,0,0,0,0,-32315,0,0,0,4054,0,16886,0
16721,-132,-8258,568,-50,44,12,9789,-3,-1,-2,0,37113,297,27,79,0,0,0,0,0,0,0,0,-32315,0,0,0,4053,0,16906,0
16731,-130,-8274,588,-52,38,10,9790,3,1,0,0,37118,300,27,79,0,0,0,0,0,0,0,0,-32315,0,0,0,4055,0,16926,0
16741,-142,-8268,594,-45,37,11,9789,1,4,0,0,37122,299,27,79,0,0,0,0,0,0,0,0,-32315,0,0,0,4054,0,16946,0
16751,-150,-8236,596,-46,40,15,9788,1,-2,0,0,37122,301,27,79,0,0,0,0,0,0,0,0,-32315,0,0,0,4053,0,16966,0
16761,-128,-8306,588,-46,38,15,9789,-4,-1,-1,0,37122,295,27,79,0,0,0,0,0,0,0,0,-32315,0,0,0,4052,0,16986,0
16771,-140,-8306,594,-46,42,10,9788,-1,2,-2,0,37114,299,27,79,0,0,0,0,0,0,0,0,-32315,0,0,0,4054,0,17006,0
16781,-124,-8274,586,-46,41,11,9788,-5,-2,0,0,37116,304,27,79,0,0,0,0,0,0,0,0,-32315,0,0,0,4054,0,17026,0
16791,-102,-8314,586,-47,41,14,9788,-5,3,0,0,37117,307,27,79,0,0,0,0,0,0,0,0,-32315,0,0,0,4055,0,17046,0
16801,-130,-8290,598,-46,39,12,9789,6,0,0,0,37115,302,27,79,0,0,0,0,0,0,0,0,-32315,0,0,0,4054,0,17066,0
16811,-146,-8276,604,-49,43,15,9788,-3,0,-1,0,37116,300,27,79,0,0,0,0,0,0,0,0,-32315,0,0,0,4052,0,17086,0
16821,-114,-8270,604,-50,43,12,9790,8,4,0,0,37118,290,27,79,0,0,0,0,0,0,0,0,-32315,0,0,0,4053,0,17106,0
16831,-90,-8282,590,-45,44,17,9789,3,1,0,0,37119,290,27,79,0,0,0,0,0,0,0,0,-32315,0,0,0,4054,0,17126,0
16841,-120,-8266,574,-49,45,20,9789,0,-5,-1,0,37124,287,27,79,0,0,0,0,0,0,0,0,-32315,0,0,0,4054,0,17146,0
16851,-126,-8300,588,-47,42,21,9788,-3,0,0,0,37124,299,27,79,0,0,0,0,0,0,0,0,-32315,0,0,0,4054,0,17166,0
16861,-130,-8308,572,-51,45,21,9789,1,3,-1,0,37123,297,27,79,0,0,0,0,0,0,0,0,-32315,0,0,0,4054,0,17186,0
16871,-132,-8282,584,-50,43,23,9789,0,-1,0,0,37118,298,27,79,0,0,0,0,0,0,0,0,-32315,0,0,0,4054,0,17206,0
16881,-148,-8274,596,-49,41,21,9789,1,2,0,0,37117,303,27,79,0,0,0,0,0,0,0,0,-32315,0,0,0,4054,0,17226,0
16891,-150,-8286,576,-52,42,18,9788,-7,-3,1,0,37118,313,27,79,0,0,0,0,0,0,0,0,-32315,0,0,0,4054,0,17246,0
16901,-150,-8266,584,-46,39,19,9789,-2,1,0,0,37119,305,27,79,0,0,0,0,0,0,0,0,-32315,0,0,0,4054,0,17267,0
16911,-134,-8288,602,-45,39,17,9788,-4,0,-1,0,37118,304,27,79,0,0,0,0,0,0,0,0,-32315,0,0,0,4053,0,17287,0
16921,-132,-8286,600,-50,43,15,9788,0,2,0,0,37119,302,27,79,0,0,0,0,0,0,0,0,-32315,0,0,0,4055,0,17307,0
16931,-136,-8284,600,-47,37,18,9788,-1,0,-1,0,37120,308,27,79,0,0,0,0,0,0,0,0,-32315,0,0,0,4053,0,17327,0
16941,-156,-8282,590,-49,40,11,9789,0,4,0,0,37120,303,27,79,0,0,0,0,0,0,0,0,-32315,0,0,0,4053,0,17346,0
16951,-126,-8280,572,-50,40,13,9788,0,-2,0,0,37123,300,27,79,0,0,0,0,0,0,0,0,-32315,0,0,0,4053,0,17367,0
16961,-140,-8280,590,-43,44,13,9788,1,-1,-1,0,37122,296,27,79,0,0,0,0,0,0,0,0,-32316,0,0,0,4055,0,17386,0
16971,-138,-8290,596,-47,41,16,9789,7,-3,0,0,37123,296,27,79,0,0,0,0,0,0,0,0,-32315,0,0,0,4054,0,17406,0
16981,-138,-8284,600,-44,44,10,9788,1,-1,-1,0,37116,299,27,79,0,0,0,0,0,0,0,0,-32316,0,0,0,4054,0,17426,0
16991,-118,-8266,612,-47,38,14,9790,11,2,1,0,37113,296,27,79,0,0,0,0,0,0,0,0,-32316,0,0,0,4054,0,17446,0
17001,-152,-8286,590,-44,37,12,9788,-4,3,0,0,37111,299,27,79,0,0,0,0,0,0,0,0,-32315,0,0,0,4054,0,17467,0
17011,-132,-8290,586,-41,35,9,9789,0,-1,0,0,37114,299,27,79,0,0,0,0,0,0,0,0,-32315,0,0,0,4054,0,17487,0
17021,-136,-8280,592,-46,32,9,9789,-2,2,0,0,37114,305,27,79,0,0,0,0,0,0,0,0,-32315,0,0,0,4055,0,17507,0
17031,-122,-8256,576,-45,37,10,9788,-4,-4,0,0,37113,308,27,79,0,0,0,0,0,0,0,0,-32315,0,0,0,4054,0,17526,0
17041,-136,-8272,590,-48,41,11,9789,1,0,0,0,37113,307,27,79,0,0,0,0,0,0,0,0,-32315,0,0,0,4054,0,17546,0
17051,-134,-8278,586,-46,38,13,9788,-1,-1,-2,0,37114,301,27,79,0,0,0,0,0,0,0,0,-32315,0,0,0,4055,0,17566,0
17061,-144,-8256,578,-47,41,15,9789,1,-1,-1,0,37125,295,27,79,0,0,0,0,0,0,0,0,-32315,0,0,0,4054,0,17586,0
17071,-152,-8306,592,-45,42,12,9788,-3,1,0,0,37129,306,27,79,0,0,0,0,0,0,0,0,-32315,0,0,0,4055,0,17606,0
17081,-122,-8292,604,-44,41,17,9790,3,2,0,0,37125,310,27,79,0,0,0,0,0,0,0,0,-32315,0,0,0,4054,0,17626,0
17091,-136,-8248,592,-45,40,15,9788,-9,-4,0,0,37118,310,27,79,0,0,0,0,0,0,0,0,-32315,0,0,0,4053,0,17646,0
17101,-112,-8298,594,-48,43,16,9788,-1,-5,0,0,37110,299,27,79,0,0,0,0,0,0,0,0,-32315,0,0,0,4054,0,17664,0
17111,-98,-8282,572,-51,36,18,9790,1,2,-1,0,37112,298,27,79,0,0,0,0,0,0,0,0,-32315,0,0,0,4054,0,17683,0
17121,-140,-8292,580,-51,41,13,9790,4,-1,-1,0,37111,297,27,79,0,0,0,0,0,0,0,0,-32315,0,0,0,4054,0,17703,0
17131,-130,-8268,592,-48,37,15,9789,3,-1,0,0,37109,296,27,79,0,0,0,0,0,0,0,0,-32315,0,0,0,4054,0,17723,0
17141,-118,-8270,612,-52,44,16,9789,4,1,-1,0,37109,300,27,79,0,0,0,0,0,0,0,0,-32315,0,0,0,4053,0,17743,0
17151,-138,-8262,608,-55,38,16,9790,8,-3,-1,0,37110,301,27,79,0,0,0,0,0,0,0,0,-32315,0,0,0,4054,0,17763,0
17161,-94,-8294,592,-52,36,18,9790,3,4,0,0,37112,294,27,79,0,0,0,0,0,0,0,0,-32316,0,0,0,4053,0,17783,0
17171,-134,-8268,584,-54,42,19,9790,0,2,-2,0,37112,289,27,79,0,0,0,0,0,0,0,0,-32315,0,0,0,4054,0,17803,0
17181,-132,-8258,582,-52,40,19,9789,-1,-2,0,0,37111,289,27,79,0,0,0,0,0,0,0,0,-32315,0,0,0,4054,0,17823,0
17191,-142,-8288,590,-47,39,16,9788,-1,2,0,0,37110,297,27,79,0,0,0,0,0,0,0,0,-32315,0,0,0,4053,0,17843,0
17201,-110,-8270,576,-54,41,14,9788,-3,0,-1,0,37109,299,27,79,0,0,0,0,0,0,0,0,-32315,0,0,0,4053,0,17863,0
17211,-126,-8278,596,-49,40,13,9789,1,1,-1,0,37107,294,27,79,0,0,0,0,0,0,0,0,-32315,0,0,0,4054,0,17884,0
17221,-126,-8282,592,-55,39,12,9788,-4,-3,-1,0,37104,292,27,79,0,0,0,0,0,0,0,0,-32315,0,0,0,4053,0,17903,0
17231,-144,-8278,590,-49,41,11,9789,-1,-1,0,0,37105,296,27,79,0,0,0,0,0,0,0,0,-32315,0,0,0,4054,0,17923,0
17241,-128,-8280,592,-54,40,14,9789,0,8,0,0,37107,305,27,79,0,0,0,0,0,0,0,0,-32315,0,0,0,4054,0,17943,0
17251,-138,-8252,582,-55,42,17,9789,-1,-2,1,0,37107,304,27,79,0,0,0,0,0,0,0,0,-32315,0,0,0,4054,0,17963,0
17261,-114,-8300,594,-55,39,20,9790,8,1,-1,0,37113,299,27,79,0,0,0,0,0,0,0,0,-32315,0,0,0,4053,0,17983,0
17271,-134,-8208,612,-56,39,11,9789,2,-1,-1,0,37114,290,27,79,0,0,0,0,0,0,0,0,-32315,0,0,0,4054,0,18003,0
17281,-72,-8582,694,-57,40,11,9788,-1,-2,0,0,37113,286,27,79,0,0,0,0,0,0,0,0,-32315,0,0,0,4054,0,18023,0
17291,-164,-7944,690,-63,45,27,9789,-3,-1,1,0,37105,282,27,79,0,0,0,0,0,0,0,0,-32315,0,0,0,4052,0,18043,0
17301,-146,-8414,206,-51,55,3,9789,2,3,0,0,37104,286,27,79,0,0,0,0,0,0,0,0,-32315,0,0,0,4053,0,18063,0
17311,-128,-8340,124,-26,41,10,9788,1,3,-1,0,37107,282,27,79,0,0,0,0,0,0,0,0,-32315,0,0,0,4052,0,18083,0
17321,-230,-8178,482,6,19,16,9788,-10,-1,-1,0,37108,283,27,79,0,0,0,0,0,0,0,0,-32315,0,0,0,4054,0,18103,0
17331,-308,-8278,602,6,20,-4,9788,-3,1,0,0,37108,294,27,79,0,0,0,0,0,0,0,0,-32315,0,0,0,4054,0,18123,0
17341,-252,-8236,742,7,26,-33,9788,-3,1,0,0,37109,296,27,79,0,0,0,0,0,0,0,0,-32315,0,0,0,4054,0,18143,0
17351,-266,-8370,790,-7,21,-36,9788,-2,4,-1,0,37108,300,27,79,0,0,0,0,0,0,0,0,-32316,0,0,0,4053,0,18163,0
17361,-126,-8352,880,-29,27,-55,9788,0,3,-2,0,37110,295,27,79,0,0,0,0,0,0,0,0,-32315,0,0,0,4052,0,18183,0
17371,-122,-8310,836,-42,39,-76,9788,-4,0,0,0,37112,305,27,79,0,0,0,0,0,0,0,0,-32315,0,0,0,4051,0,18203,0
17381,-122,-8382,738,-69,52,-66,9788,0,2,0,0,37112,313,27,79,0,0,0,0,0,0,0,0,-32315,0,0,0,4050,0,18223,0
17391,18,-8158,632,-74,46,-56,9789,0,6,0,0,37109,307,27,79,0,0,0,0,0,0,0,0,-32315,0,0,0,4050,0,18243,0
17401,172,-8246,532,-75,38,-27,9789,-1,4,0,0,37103,298,27,79,0,0,0,0,0,0,0,0,-32315,0,0,0,4048,0,18263,0
17411,104,-8242,582,-66,36,7,9789,2,-2,-1,0,37101,291,27,79,0,0,0,0,0,0,0,0,-32315,0,0,0,4049,0,18283,0
17421,42,-8280,618,-75,45,42,9788,-1,-3,-2,0,37100,293,27,79,0,0,0,0,0,0,0,0,-32315,0,0,0,4047,0,18303,0
17431,50,-8326,710,-85,52,46,9788,-1,-1,0,0,37102,293,27,79,0,0,0,0,0,0,0,0,-32315,0,0,0,4048,0,18323,0
17441,118,-8204,672,-90,59,73,9789,-1,-3,0,0,37103,298,27,79,0,0,0,0,0,0,0,0,-32315,0,0,0,4050,0,18343,0
17451,100,-8310,588,-96,67,98,9789,2,3,0,0,37103,299,27,79,0,0,0,0,0,0,0,0,-32315,0,0,0,4050,0,18363,0
17461,150,-8314,540,-98,63,128,9789,-1,-3,-2,0,37104,300,27,79,0,0,0,0,0,0,0,0,-32315,0,0,0,4050,0,18383,0
17471,92,-8290,554,-95,52,158,9787,-5,0,-1,0,37106,298,27,79,0,0,0,0,0,0,0,0,-32315,0,0,0,4052,0,18403,0
17481,38,-8314,582,-89,39,216,9789,3,-3,0,0,37108,297,27,79,0,0,0,0,0,0,0,0,-32315,0,0,0,4054,0,18423,0
17491,-76,-8260,606,-73,36,219,9789,-1,0,0,0,37109,295,27,79,0,0,0,0,0,0,0,0,-32315,0,0,0,4057,0,18443,0
17501,-344,-8248,538,-83,24,209,9788,2,3,-1,0,37105,293,27,79,0,0,0,0,0,0,0,0,-32315,0,0,0,4060,0,18463,0
17511,-430,-8288,558,-78,36,183,9790,5,-1,-2,0,37105,294,27,79,0,0,0,0,0,0,0,0,-32315,0,0,0,4063,0,18483,0
17521,-574,-8232,610,-76,44,121,9788,-1,-1,-1,0,37109,299,27,79,0,0,0,0,0,0,0,0,-32315,0,0,0,4065,0,18503,0
17531,-582,-8270,616,-82,49,53,9788,-7,0,0,0,37113,301,27,79,0,0,0,0,0,0,0,0,-32315,0,0,0,4065,0,18523,0
17541,-486,-8224,550,-79,55,16,9789,0,1,0,0,37113,304,27,79,0,0,0,0,0,0,0,0,-32315,0,0,0,4065,0,18543,0
17551,-278,-8220,466,-88,50,-5,9789,-3,-3,0,0,37109,303,27,79,0,0,0,0,0,0,0,0,-32316,0,0,0,4065,0,18563,0
17561,-116,-8450,618,-66,37,-25,9788,-7,-2,0,0,37109,299,27,79,0,0,0,0,0,0,0,0,-32315,0,0,0,4065,0,18583,0
17571,-86,-8224,354,-52,31,-10,9789,0,-5,0,0,37111,299,27,79,0,0,0,0,0,0,0,0,-32315,0,0,0,4065,0,18603,0
17581,-86,-8280,328,-28,28,0,9789,0,-1,0,0,37116,304,27,79,0,0,0,0,0,0,0,0,-32315,0,0,0,4065,0,18623,0
17591,-108,-8342,404,-12,34,6,9789,0,2,0,0,37114,307,27,79,0,0,0,0,0,0,0,0,-32316,0,0,0,4065,0,18643,0
17601,-184,-8228,546,-3,26,4,9789,-1,-1,-1,0,37115,308,27,79,0,0,0,0,0,0,0,0,-32315,0,0,0,4064,0,18663,0
17611,-220,-8212,674,-2,34,8,9788,3,-1,0,0,37113,299,27,79,0,0,0,0,0,0,0,0,-32315,0,0,0,4065,0,18683,0
17621,-250,-8332,800,-21,41,-8,9789,-1,-1,-1,0,37113,289,27,79,0,0,0,0,0,0,0,0,-32316,0,0,0,4064,0,18703,0
17631,-234,-8302,800,-40,41,-15,9788,0,-1,0,0,37111,292,27,79,0,0,0,0,0,0,0,0,-32315,0,0,0,4064,0,18723,0
17641,-172,-8254,726,-54,37,-26,9789,0,2,-1,0,37111,290,27,79,0,0,0,0,0,0,0,0,-32315,0,0,0,4064,0,18743,0
17651,-116,-8306,650,-62,37,-24,9789,5,1,0,0,37113,284,27,79,0,0,0,0,0,0,0,0,-32315,0,0,0,4062,0,18763,0
17661,-114,-8292,522,-56,39,-22,9789,2,0,-1,0,37114,284,27,79,0,0,0,0,0,0,0,0,-32315,0,0,0,4063,0,18783,0
17671,-122,-8248,480,-49,38,-5,9789,0,2,-1,0,37115,291,27,79,0,0,0,0,0,0,0,0,-32315,0,0,0,4062,0,18803,0
17681,-114,-8314,492,-38,36,-6,9788,-2,0,-1,0,37120,300,27,79,0,0,0,0,0,0,0,0,-32315,0,0,0,4062,0,18823,0
17691,-118,-8280,508,-39,41,1,9788,-7,2,0,0,37124,292,27,79,0,0,0,0,0,0,0,0,-32315,0,0,0,4062,0,18843,0
17701,-174,-8242,576,-32,30,1,9789,6,1,1,0,37123,293,27,79,0,0,0,0,0,0,0,0,-32315,0,0,0,4061,0,18863,0
17711,-148,-8296,588,-37,30,6,9789,4,6,-1,0,37114,295,27,79,0,0,0,0,0,0,0,0,-32315,0,0,0,4061,0,18883,0
17721,-192,-8240,648,-44,35,-9,9789,1,-2,-1,0,37110,302,27,79,0,0,0,0,0,0,0,0,-32315,0,0,0,4061,0,18903,0
17731,-204,-8252,674,-40,43,-4,9789,4,1,0,0,37111,297,27,79,0,0,0,0,0,0,0,0,-32315,0,0,0,4061,0,18923,0
17741,-158,-8314,634,-48,41,-11,9789,-4,-4,0,0,37114,293,27,79,0,0,0,0,0,0,0,0,-32315,0,0,0,4061,0,18944,0
17751,-156,-8316,582,-47,40,-21,9789,-2,-5,0,0,37114,297,27,79,0,0,0,0,0,0,0,0,-32315,0,0,0,4060,0,18964,0
17761,-184,-8254,560,-47,42,-23,9788,-1,0,-1,0,37113,299,27,79,0,0,0,0,0,0,0,0,-32315,0,0,0,4060,0,18984,0
17771,-180,-8278,546,-46,44,-22,9789,-1,-4,-1,0,37113,302,27,79,0,0,0,0,0,0,0,0,-32315,0,0,0,4058,0,19004,0
17781,-142,-8312,566,-46,37,-33,9789,1,3,-3,0,37116,296,27,79,0,0,0,0,0,0,0,0,-32315,0,0,0,4058,0,19024,0
17791,-194,-8300,580,-47,45,-33,9788,-4,-4,1,0,37118,294,27,79,0,0,0,0,0,0,0,0,-32315,0,0,0,4057,0,19044,0
17801,-130,-8234,602,-45,41,-29,9790,7,4,-1,0,37116,289,27,79,0,0,0,0,0,0,0,0,-32315,0,0,0,4056,0,19064,0
17811,-94,-8274,600,-48,40,-36,9789,0,-2,-1,0,37116,296,27,79,0,0,0,0,0,0,0,0,-32315,0,0,0,4057,0,19084,0
17821,-144,-8282,590,-42,44,-29,9789,3,0,0,0,37115,299,27,79,0,0,0,0,0,0,0,0,-32315,0,0,0,4056,0,19104,0
17831,-110,-8268,584,-44,37,-18,9788,-3,-1,0,0,37118,303,27,79,0,0,0,0,0,0,0,0,-32315,0,0,0,4054,0,19124,0
17841,-30,-8312,570,-44,39,-19,9790,0,1,0,0,37118,302,27,79,0,0,0,0,0,0,0,0,-32315,0,0,0,4055,0,19144,0
17851,-44,-8250,524,-50,38,-19,9789,0,2,0,0,37118,297,27,79,0,0,0,0,0,0,0,0,-32315,0,0,0,4054,0,19164,0
17861,-88,-8260,628,-40,41,-2,9788,2,-5,0,0,37119,295,27,79,0,0,0,0,0,0,0,0,-32315,0,0,0,4054,0,19184,0
17871,-64,-8284,638,-46,35,4,9788,-3,-4,0,0,37121,306,27,79,0,0,0,0,0,0,0,0,-32315,0,0,0,4054,0,19204,0
17881,-70,-8258,616,-46,39,-1,9788,-2,-2,-1,0,37120,308,27,79,0,0,0,0,0,0,0,0,-32315,0,0,0,4055,0,19224,0
17891,-146,-8268,598,-45,39,8,9790,8,3,-1,0,37123,305,27,79,0,0,0,0,0,0,0,0,-32315,0,0,0,4054,0,19244,0
17901,-116,-8316,606,-53,41,5,9789,-1,1,0,0,37123,305,27,79,0,0,0,0,0,0,0,0,-32315,0,0,0,4054,0,19264,0
17911,-110,-8290,594,-53,42,4,9788,-2,-6,-1,0,37125,303,27,79,0,0,0,0,0,0,0,0,-32315,0,0,0,4054,0,19284,0
17921,-128,-8240,576,-48,39,9,9788,-7,0,0,0,37124,307,27,79,0,0,0,0,0,0,0,0,-32315,0,0,0,4052,0,19304,0
17931,-144,-8270,550,-53,36,12,9788,-8,-2,0,0,37117,297,27,79,0,0,0,0,0,0,0,0,-32315,0,0,0,4053,0,19324,0
17941,-142,-8306,570,-50,42,3,9789,-2,-1,1,0,37115,292,27,79,0,0,0,0,0,0,0,0,-32315,0,0,0,4052,0,19344,0
17951,-134,-8280,554,-41,38,2,9789,0,-2,-2,0,37115,288,27,79,0,0,0,0,0,0,0,0,-32316,0,0,0,4052,0,19364,0
17961,-124,-8370,550,-48,43,-5,9788,-5,-4,0,0,37116,290,27,79,0,0,0,0,0,0,0,0,-32315,0,0,0,4052,0,19384,0
17971,-90,-8356,544,-44,42,-15,9788,0,-4,0,0,37115,294,27,79,0,0,0,0,0,0,0,0,-32315,0,0,0,4052,0,19404,0
17981,-82,-8278,574,-44,36,-13,9788,-7,1,0,0,37114,295,27,79,0,0,0,0,0,0,0,0,-32315,0,0,0,4050,0,19424,0
17991,-124,-8320,612,-41,40,-8,9788,-1,-7,0,0,37113,298,27,79,0,0,0,0,0,0,0,0,-32315,0,0,0,4051,0,19444,0
18001,-92,-8294,606,-39,42,-7,9790,5,3,0,0,37118,297,27,79,0,0,0,0,0,0,0,0,-32315,0,0,0,4051,0,19464,0
18011,-126,-8212,594,-51,43,-6,9788,-1,-1,0,0,37119,307,27,79,0,0,0,0,0,0,0,0,-32315,0,0,0,4050,0,19484,0
18021,-106,-8260,584,-45,44,1,9788,1,1,-1,0,37119,302,27,79,0,0,0,0,0,0,0,0,-32315,0,0,0,4050,0,19504,0
18031,-56,-8296,598,-47,40,-3,9789,1,0,-1,0,37118,296,27,79,0,0,0,0,0,0,0,0,-32315,0,0,0,4050,0,19524,0
18041,-86,-8258,580,-49,38,8,9789,0,2,-1,0,37113,291,27,79,0,0,0,0,0,0,0,0,-32315,0,0,0,4051,0,19544,0
18051,-118,-8280,572,-42,39,10,9789,-2,1,0,0,37116,288,27,79,0,0,0,0,0,0,0,0,-32315,0,0,0,4050,0,19564,0
18061,-110,-8312,614,-48,37,11,9790,10,0,0,0,37116,289,27,79,0,0,0,0,0,0,0,0,-32315,0,0,0,4050,0,19584,0
18071,-112,-8268,618,-46,39,8,9789,-1,2,-2,0,37119,289,27,79,0,0,0,0,0,0,0,0,-32315,0,0,0,4049,0,19604,0
18081,-102,-8270,612,-47,47,17,9789,1,-3,0,0,37115,295,27,79,0,0,0,0,0,0,0,0,-32315,0,0,0,4050,0,19624,0
18091,-82,-8296,600,-50,43,13,9788,0,-3,0,0,37113,293,27,79,0,0,0,0,0,0,0,0,-32315,0,0,0,4050,0,19644,0
18101,-102,-8278,614,-50,38,18,9788,-1,0,-1,0,37119,300,27,79,0,0,0,0,0,0,0,0,-32315,0,0,0,4049,0,19664,0
18111,-106,-8278,606,-51,45,20,9788,-2,-1,-1,0,37118,299,27,79,0,0,0,0,0,0,0,0,-32315,0,0,0,4049,0,19684,0
18121,-80,-8260,614,-60,41,21,9789,-3,-1,0,0,37119,309,27,79,0,0,0,0,0,0,0,0,-32315,0,0,0,4049,0,19704,0
18131,-102,-8278,594,-55,40,16,9789,0,-3,0,0,37116,311,27,79,0,0,0,0,0,0,0,0,-32315,0,0,0,4051,0,19724,0
18141,-96,-8316,582,-55,42,18,9789,2,-1,0,0,37110,303,27,79,0,0,0,0,0,0,0,0,-32315,0,0,0,4050,0,19744,0
18151,-102,-8284,614,-56,41,23,9788,1,2,0,0,37106,294,27,79,0,0,0,0,0,0,0,0,-32315,0,0,0,4049,0,19764,0
18161,-110,-8264,592,-56,39,16,9789,1,0,-1,0,37108,292,27,79,0,0,0,0,0,0,0,0,-32315,0,0,0,4050,0,19784,0
18171,-108,-8278,568,-56,42,28,9789,1,3,0,0,37109,296,27,79,0,0,0,0,0,0,0,0,-32315,0,0,0,4050,0,19804,0
18181,-106,-8310,572,-48,42,23,9789,2,2,0,0,37107,298,27,79,0,0,0,0,0,0,0,0,-32315,0,0,0,4050,0,19824,0
18191,-104,-8292,614,-52,42,19,9789,0,-1,0,0,37106,304,27,79,0,0,0,0,0,0,0,0,-32315,0,0,0,4050,0,19844,0
18201,-128,-8278,582,-54,44,22,9787,-1,1,0,0,37108,299,27,79,0,0,0,0,0,0,0,0,-32315,0,0,0,4050,0,19864,0
18211,-116,-8274,582,-50,45,18,9790,0,-5,-2,0,37112,302,27,79,0,0,0,0,0,0,0,0,-32315,0,0,0,4051,0,19884,0
18221,-122,-8260,602,-44,40,16,9788,0,0,-1,0,37110,295,27,79,0,0,0,0,0,0,0,0,-32315,0,0,0,4050,0,19904,0
18231,-134,-8270,578,-55,39,14,9788,-2,1,0,0,37105,300,27,79,0,0,0,0,0,0,0,0,-32315,0,0,0,4049,0,19924,0
18241,-134,-8258,616,-52,39,21,9788,-2,1,0,0,37107,300,27,79,0,0,0,0,0,0,0,0,-32315,0,0,0,4050,0,19944,0
18251,-118,-8272,602,-50,40,17,9789,2,4,-1,0,37103,301,27,79,0,0,0,0,0,0,0,0,-32315,0,0,0,4050,0,19964,0
18261,-100,-8262,588,-48,42,11,9790,3,1,-1,0,37105,301,27,79,0,0,0,0,0,0,0,0,-32315,0,0,0,4050,0,19984,0
18271,-86,-8294,592,-52,40,17,9788,0,0,-1,0,37104,296,27,79,0,0,0,0,0,0,0,0,-32315,0,0,0,4050,0,20004,0
18281,-78,-8294,582,-53,41,15,9788,0,1,0,0,37103,290,27,79,0,0,0,0,0,0,0,0,-32315,0,0,0,4049,0,20024,0
18291,-112,-8248,590,-49,35,12,9788,-1,0,0,0,37102,288,27,79,0,0,0,0,0,0,0,0,-32315,0,0,0,4049,0,20044,0
18301,-98,-8264,572,-50,45,22,9788,-1,1,0,0,37103,284,27,79,0,0,0,0,0,0,0,0,-32315,0,0,0,4050,0,20064,0
18311,-96,-8280,578,-50,41,23,9789,0,-2,0,0,37103,287,27,79,0,0,0,0,0,0,0,0,-32315,0,0,0,4051,0,20084,0
18321,-102,-8252,596,-47,42,18,9789,-2,-3,0,0,37106,288,27,79,0,0,0,0,0,0,0,0,-32316,0,0,0,4050,0,20104,0
18331,-132,-8258,590,-50,40,21,9789,1,2,0,0,37107,294,27,79,0,0,0,0,0,0,0,0,-32315,0,0,0,4050,0,20124,0
18341,-116,-8292,610,-57,46,22,9789,3,4,-1,0,37118,297,27,79,0,0,0,0,0,0,0,0,-32315,0,0,0,4050,0,20144,0
18351,-132,-8304,596,-53,38,19,9789,-3,-7,0,0,37124,297,27,79,0,0,0,0,0,0,0,0,-32315,0,0,0,4050,0,20164,0
18361,-146,-8278,574,-53,49,22,9789,1,0,-2,0,37130,297,27,79,0,0,0,0,0,0,0,0,-32316,0,0,0,4050,0,20184,0
18371,-128,-8292,592,-53,37,22,9789,0,-2,-1,0,37121,294,27,79,0,0,0,0,0,0,0,0,-32315,0,0,0,4050,0,20204,0
18381,-112,-8284,570,-54,38,18,9789,0,3,0,0,37111,297,27,79,0,0,0,0,0,0,0,0,-32315,0,0,0,4051,0,20224,0
18391,-136,-8294,586,-51,38,16,9788,2,0,0,0,37103,295,27,79,0,0,0,0,0,0,0,0,-32315,0,0,0,4051,0,20244,0
18401,-118,-8270,594,-55,42,18,9789,1,-1,0,0,37102,295,27,79,0,0,0,0,0,0,0,0,-32315,0,0,0,4051,0,20264,0
18411,-108,-8276,586,-53,39,14,9789,0,1,0,0,37101,295,27,79,0,0,0,0,0,0,0,0,-32315,0,0,0,4051,0,20284,0
18421,-148,-8276,584,-52,38,11,9789,0,0,-4,0,37102,296,27,79,0,0,0,0,0,0,0,0,-32315,0,0,0,4051,0,20304,0
18431,-118,-8250,592,-51,45,16,9790,3,1,0,0,37109,288,27,79,0,0,0,0,0,0,0,0,-32315,0,0,0,4051,0,20324,0
18441,-136,-8278,582,-50,45,10,9789,5,0,0,0,37109,283,27,79,0,0,0,0,0,0,0,0,-32315,0,0,0,4051,0,20345,0
18451,-108,-8304,586,-57,35,9,9788,-5,4,0,0,37109,283,27,79,0,0,0,0,0,0,0,0,-32315,0,0,0,4050,0,20364,0
18461,-124,-8302,596,-50,40,14,9790,7,4,-1,0,37103,289,27,79,0,0,0,0,0,0,0,0,-32315,0,0,0,4051,0,20384,0
18471,-136,-8272,600,-49,38,13,9788,0,-3,0,0,37105,295,27,79,0,0,0,0,0,0,0,0,-32315,0,0,0,4050,0,20404,0
18481,-120,-8298,596,-52,40,10,9788,3,3,1,0,37106,295,27,79,0,0,0,0,0,0,0,0,-32315,0,0,0,4051,0,20424,0
18491,-86,-8294,584,-57,44,12,9789,1,3,0,0,37106,300,27,79,0,0,0,0,0,0,0,0,-32315,0,0,0,4051,0,20444,0
18501,-102,-8258,602,-50,33,10,9789,-1,1,0,0,37105,299,27,79,0,0,0,0,0,0,0,0,-32315,0,0,0,4050,0,20465,0
18511,-114,-8304,588,-52,39,13,9789,-1,-1,0,0,37106,305,27,79,0,0,0,0,0,0,0,0,-32315,0,0,0,4050,0,20484,0
18521,-104,-8250,596,-54,41,10,9789,0,-3,0,0,37107,303,27,79,0,0,0,0,0,0,0,0,-32315,0,0,0,4050,0,20504,0
18531,-110,-8270,590,-52,37,13,9790,0,-4,0,0,37113,291,27,79,0,0,0,0,0,0,0,0,-32316,0,0,0,4050,0,20524,0
18541,-96,-8288,608,-52,42,10,9789,5,3,-1,0,37113,291,27,79,0,0,0,0,0,0,0,0,-32315,0,0,0,4050,0,20544,0
18551,-108,-8286,576,-53,38,15,9788,-3,-1,-2,0,37113,287,27,79,0,0,0,0,0,0,0,0,-32316,0,0,0,4049,0,20564,0
18561,-116,-8260,608,-49,37,18,9789,6,-2,-1,0,37111,292,27,79,0,0,0,0,0,0,0,0,-32315,0,0,0,4050,0,20584,0
18571,-108,-8274,594,-57,45,12,9788,0,-1,-2,0,37109,287,27,79,0,0,0,0,0,0,0,0,-32315,0,0,0,4051,0,20604,0
18581,-112,-8298,592,-51,36,11,9789,1,2,-1,0,37108,282,27,79,0,0,0,0,0,0,0,0,-32315,0,0,0,4050,0,20624,0
18591,-110,-8280,600,-53,37,14,9788,-1,-3,0,0,37107,282,27,79,0,0,0,0,0,0,0,0,-32315,0,0,0,4050,0,20644,0
18601,-120,-8282,596,-48,38,14,9789,3,1,0,0,37107,283,27,79,0,0,0,0,0,0,0,0,-32315,0,0,0,4050,0,20664,0
18611,-122,-8276,558,-54,43,10,9789,-3,-1,-1,0,37109,284,27,79,0,0,0,0,0,0,0,0,-32315,0,0,0,4050,0,20684,0
18621,-126,-8270,582,-48,40,14,9789,-6,2,-1,0,37112,288,27,79,0,0,0,0,0,0,0,0,-32315,0,0,0,4050,0,20704,0
18631,-106,-8272,582,-51,37,10,9789,5,3,0,0,37116,291,27,79,0,0,0,0,0,0,0,0,-32315,0,0,0,4050,0,20724,0
18641,-122,-8268,584,-48,38,13,9789,-6,-2,-1,0,37117,295,27,79,0,0,0,0,0,0,0,0,-32315,0,0,0,4050,0,20744,0
18651,-118,-8270,596,-49,41,14,9789,6,1,0,0,37118,300,27,79,0,0,0,0,0,0,0,0,-32315,0,0,0,4049,0,20764,0
18661,-116,-8306,598,-51,39,11,9788,-1,0,0,0,37120,299,27,79,0,0,0,0,0,0,0,0,-32315,0,0,0,4048,0,20784,0
18671,-118,-8292,574,-51,41,12,9789,6,2,0,0,37113,300,27,79,0,0,0,0,0,0,0,0,-32315,0,0,0,4050,0,20804,0
18681,-122,-8282,586,-46,42,13,9789,3,0,0,0,37113,299,27,79,0,0,0,0,0,0,0,0,-32315,0,0,0,4050,0,20824,0
18691,-112,-8274,592,-48,45,12,9789,1,-2,0,0,37114,302,27,79,0,0,0,0,0,0,0,0,-32315,0,0,0,4049,0,20844,0
18701,-116,-8276,580,-48,42,13,9788,2,-5,-1,0,37116,302,27,79,0,0,0,0,0,0,0,0,-32315,0,0,0,4050,0,20864,0
18711,-112,-8256,586,-52,36,15,9788,-2,-2,-2,0,37115,292,27,79,0,0,0,0,0,0,0,0,-32315,0,0,0,4050,0,20884,0
18721,-102,-8298,578,-49,42,10,9788,0,2,-1,0,37113,288,27,79,0,0,0,0,0,0,0,0,-32315,0,0,0,4050,0,20904,0
18731,-94,-8288,600,-46,44,16,9790,6,0,-3,0,37111,286,27,79,0,0,0,0,0,0,0,0,-32315,0,0,0,4050,0,20924,0
18741,-106,-8266,590,-49,36,13,9790,5,-4,0,0,37118,282,27,79,0,0,0,0,0,0,0,0,-32315,0,0,0,4050,0,20945,0
18751,-122,-8282,588,-51,39,15,9789,-3,0,0,0,37120,279,27,79,0,0,0,0,0,0,0,0,-32315,0,0,0,4050,0,20965,0
18761,-102,-8292,586,-41,43,12,9789,6,2,0,0,37123,285,27,79,0,0,0,0,0,0,0,0,-32315,0,0,0,4049,0,20985,0
18771,-134,-8278,586,-49,40,14,9788,-3,1,-1,0,37120,290,27,79,0,0,0,0,0,0,0,0,-32315,0,0,0,4050,0,21005,0
18781,-130,-8290,576,-46,42,15,9790,4,-4,0,0,37120,294,27,79,0,0,0,0,0,0,0,0,-32315,0,0,0,4049,0,21025,0
18791,-104,-8282,592,-48,39,15,9788,-2,-2,0,0,37122,297,27,79,0,0,0,0,0,0,0,0,-32315,0,0,0,4050,0,21045,0
18801,-122,-8272,570,-45,40,13,9789,-4,1,-1,0,37120,295,27,79,0,0,0,0,0,0,0,0,-32315,0,0,0,4049,0,21065,0
18811,-136,-8264,590,-44,37,16,9789,8,4,0,0,37120,300,27,79,0,0,0,0,0,0,0,0,-32315,0,0,0,4050,0,21085,0
18821,-116,-8284,614,-40,38,9,9788,-2,-5,0,0,37121,306,27,79,0,0,0,0,0,0,0,0,-32315,0,0,0,4050,0,21105,0
18831,-108,-8272,606,-42,45,13,9789,0,1,-2,0,37121,298,27,79,0,0,0,0,0,0,0,0,-32315,0,0,0,4051,0,21125,0
18841,-102,-8258,612,-42,41,17,9790,7,2,-1,0,37126,313,27,79,0,0,0,0,0,0,0,0,-32315,0,0,0,4050,0,21145,0
18851,-96,-8276,574,-44,44,14,9788,2,-3,0,0,37125,309,27,79,0,0,0,0,0,0,0,0,-32315,0,0,0,4049,0,21165,0
18861,-126,-8270,616,-42,36,16,9787,-2,-4,0,0,37124,307,27,79,0,0,0,0,0,0,0,0,-32315,0,0,0,4049,0,21185,0
18871,-112,-8288,594,-43,40,17,9790,4,0,0,0,37119,296,27,79,0,0,0,0,0,0,0,0,-32315,0,0,0,4051,0,21205,0
18881,-118,-8292,598,-43,42,15,9789,-1,0,-1,0,37115,296,27,79,0,0,0,0,0,0,0,0,-32315,0,0,0,4049,0,21225,0
18891,-112,-8266,608,-44,43,14,9789,8,-1,0,0,37116,296,27,79,0,0,0,0,0,0,0,0,-32315,0,0,0,4050,0,21245,0
18901,-86,-8296,608,-45,44,15,9790,6,5,0,0,37116,297,27,79,0,0,0,0,0,0,0,0,-32315,0,0,0,4048,0,21266,0
18911,-116,-8310,612,-45,39,16,9789,3,2,-2,0,37115,295,27,79,0,0,0,0,0,0,0,0,-32315,0,0,0,4049,0,21286,0
18921,-118,-8290,604,-43,43,15,9789,3,1,-1,0,37116,298,27,79,0,0,0,0,0,0,0,0,-32315,0,0,0,4049,0,21306,0
18931,-128,-8266,602,-48,41,15,9789,2,0,0,0,37114,301,27,79,0,0,0,0,0,0,0,0,-32316,0,0,0,4050,0,21326,0
18941,-112,-8288,590,-43,39,13,9789,1,-3,2,0,37117,299,27,79,0,0,0,0,0,0,0,0,-32315,0,0,0,4049,0,21346,0
18951,-110,-8308,602,-45,40,9,9789,0,3,-1,0,37121,303,27,79,0,0,0,0,0,0,0,0,-32315,0,0,0,4048,0,21366,0
18961,-86,-8264,626,-46,44,11,9789,0,0,0,0,37122,296,27,79,0,0,0,0,0,0,0,0,-32315,0,0,0,4049,0,21386,0
18971,-118,-8276,574,-43,44,10,9787,-7,-6,-1,0,37121,295,27,79,0,0,0,0,0,0,0,0,-32315,0,0,0,4049,0,21406,0
18981,-104,-8296,592,-50,41,9,9789,-3,-1,-1,0,37115,299,27,79,0,0,0,0,0,0,0,0,-32315,0,0,0,4050,0,21426,0
18991,-110,-8270,604,-45,41,8,9789,5,-2,-1,0,37113,297,27,79,0,0,0,0,0,0,0,0,-32315,0,0,0,4050,0,21446,0
19001,-108,-8292,608,-48,41,8,9790,0,3,0,0,37112,297,27,79,0,0,0,0,0,0,0,0,-32315,0,0,0,4047,0,21466,0
19011,-108,-8296,590,-48,41,11,9789,3,-1,-2,0,37112,293,27,79,0,0,0,0,0,0,0,0,-32315,0,0,0,4048,0,21486,0
19021,-100,-8254,604,-51,38,7,9788,0,0,0,0,37114,299,27,79,0,0,0,0,0,0,0,0,-32315,0,0,0,4048,0,21506,0
19031,-74,-8302,606,-48,40,13,9788,-2,4,0,0,37112,301,27,79,0,0,0,0,0,0,0,0,-32315,0,0,0,4048,0,21526,0
19041,-98,-8300,604,-46,41,17,9789,-2,0,0,0,37109,305,27,79,0,0,0,0,0,0,0,0,-32315,0,0,0,4048,0,21546,0
19051,-102,-8260,596,-50,43,13,9788,-2,-3,-1,0,37113,302,27,79,0,0,0,0,0,0,0,0,-32315,0,0,0,4047,0,21566,0
19061,-120,-8290,600,-49,40,17,9789,-4,2,0,0,37117,301,27,79,0,0,0,0,0,0,0,0,-32315,0,0,0,4050,0,21586,0
19071,-108,-8274,590,-49,41,18,9789,1,0,-1,0,37119,298,27,79,0,0,0,0,0,0,0,0,-32315,0,0,0,4047,0,21606,0
19081,-102,-8274,590,-53,42,15,9789,1,-1,0,0,37113,299,27,79,0,0,0,0,0,0,0,0,-32315,0,0,0,4048,0,21626,0
19091,-146,-8274,594,-50,43,19,9788,0,-1,0,0,37106,297,27,79,0,0,0,0,0,0,0,0,-32315,0,0,0,4048,0,21646,0
19101,-126,-8270,578,-45,40,17,9789,1,-1,0,0,37107,289,27,79,0,0,0,0,0,0,0,0,-32315,0,0,0,4047,0,21666,0
19111,-144,-8268,586,-46,44,14,9789,-2,1,0,0,37110,291,27,79,0,0,0,0,0,0,0,0,-32315,0,0,0,4048,0,21686,0
19121,-126,-8270,594,-45,40,15,9789,-2,-3,-1,0,37111,292,27,79,0,0,0,0,0,0,0,0,-32315,0,0,0,4048,0,21706,0
19131,-108,-8274,574,-45,41,8,9789,1,1,0,0,37107,300,27,79,0,0,0,0,0,0,0,0,-32315,0,0,0,4049,0,21726,0
19141,-138,-8246,590,-44,44,13,9790,2,5,0,0,37106,298,27,79,0,0,0,0,0,0,0,0,-32315,0,0,0,4048,0,21746,0
19151,-126,-8266,588,-42,43,12,9788,-4,2,-2,0,37110,303,27,79,0,0,0,0,0,0,0,0,-32315,0,0,0,4049,0,21766,0
19161,-110,-8266,598,-46,40,5,9788,0,1,-1,0,37113,303,27,79,0,0,0,0,0,0,0,0,-32315,0,0,0,4049,0,21786,0
19171,-150,-8272,644,-48,39,3,9789,5,1,-1,0,37113,305,27,79,0,0,0,0,0,0,0,0,-32315,0,0,0,4047,0,21806,0
19181,52,-8318,368,-57,30,-12,9789,1,-1,-1,0,37110,297,27,79,0,0,0,0,0,0,0,0,-32315,0,0,0,4047,0,21826,0
19191,-74,-8380,542,-52,48,-7,9789,-1,0,0,0,37104,292,27,79,0,0,0,0,0,0,0,0,-32315,0,0,0,4047,0,21846,0
19201,-82,-8220,636,-47,39,-1,9789,0,3,0,0,37104,294,27,79,0,0,0,0,0,0,0,0,-32315,0,0,0,4047,0,21866,0
19211,-88,-8256,626,-44,45,-3,9790,1,1,-1,0,37106,301,27,79,0,0,0,0,0,0,0,0,-32314,0,0,0,4047,0,21886,0
19221,-96,-8270,596,-51,44,0,9789,1,2,0,0,37106,296,27,79,0,0,0,0,0,0,0,0,-32315,0,0,0,4046,0,21906,0
19231,-114,-8278,620,-48,35,7,9789,-6,1,0,0,37104,291,27,79,0,0,0,0,0,0,0,0,-32315,0,0,0,4046,0,21926,0
19241,-72,-8266,634,-48,41,8,9789,-2,-1,1,0,37102,289,27,79,0,0,0,0,0,0,0,0,-32315,0,0,0,4047,0,21946,0
19251,-164,-8302,756,-49,45,14,9789,3,2,-1,0,37105,287,27,79,0,0,0,0,0,0,0,0,-32315,0,0,0,4046,0,21966,0
19261,-74,-8308,578,-60,45,8,9789,-3,1,0,0,37108,287,27,79,0,0,0,0,0,0,0,0,-32315,0,0,0,4047,0,21986,0
19271,-66,-8280,590,-56,42,16,9788,0,4,0,0,37110,286,27,79,0,0,0,0,0,0,0,0,-32315,0,0,0,4045,0,22006,0
19281,-68,-8276,604,-54,39,19,9789,4,-4,0,0,37111,289,27,79,0,0,0,0,0,0,0,0,-32315,0,0,0,4045,0,22026,0
19291,-106,-8300,608,-54,43,20,9788,-1,-1,0,0,37103,301,27,79,0,0,0,0,0,0,0,0,-32315,0,0,0,4046,0,22046,0
19301,-70,-8266,600,-56,44,21,9789,-3,1,0,0,37103,298,27,79,0,0,0,0,0,0,0,0,-32315,0,0,0,4045,0,22066,0
19311,-96,-8270,620,-60,46,24,9789,2,-1,0,0,37102,296,27,79,0,0,0,0,0,0,0,0,-32315,0,0,0,4045,0,22086,0
19321,-76,-8274,628,-66,46,25,9789,-1,0,0,0,37102,289,27,79,0,0,0,0,0,0,0,0,-32315,0,0,0,4046,0,22106,0
19331,-100,-8282,618,-65,43,27,9789,-1,2,0,0,37101,289,27,79,0,0,0,0,0,0,0,0,-32315,0,0,0,4045,0,22126,0
19341,-98,-8320,602,-65,45,29,9789,7,0,0,0,37099,294,27,79,0,0,0,0,0,0,0,0,-32315,0,0,0,4046,0,22146,0
19351,-74,-8292,578,-64,48,33,9789,1,4,-1,0,37100,300,27,79,0,0,0,0,0,0,0,0,-32314,0,0,0,4048,0,22166,0
19361,-114,-8272,552,-65,52,34,9789,-3,0,-1,0,37101,294,27,79,0,0,0,0,0,0,0,0,-32315,0,0,0,4047,0,22186,0
19371,-88,-8292,570,-61,46,35,9788,1,3,0,0,37101,286,27,79,0,0,0,0,0,0,0,0,-32315,0,0,0,4048,0,22206,0
19381,-122,-8298,548,-61,46,37,9789,4,3,0,0,37100,285,27,79,0,0,0,0,0,0,0,0,-32315,0,0,0,4047,0,22226,0
19391,-134,-8264,536,-56,45,31,9791,11,-4,0,0,37099,290,27,79,0,0,0,0,0,0,0,0,-32315,0,0,0,4047,0,22246,0
19401,-168,-8276,550,-44,46,28,9789,-4,2,0,0,37099,294,27,79,0,0,0,0,0,0,0,0,-32315,0,0,0,4047,0,22266,0
19411,-182,-8306,544,-47,43,25,9790,0,-2,0,0,37101,296,27,79,0,0,0,0,0,0,0,0,-32315,0,0,0,4047,0,22286,0
19421,-216,-8278,566,-43,36,16,9789,1,2,-1,0,37101,302,27,79,0,0,0,0,0,0,0,0,-32315,0,0,0,4048,0,22306,0
19431,-214,-8296,570,-35,37,4,9789,1,-3,0,0,37101,301,27,79,0,0,0,0,0,0,0,0,-32315,0,0,0,4047,0,22326,0
19441,-226,-8298,548,-34,31,-14,9788,0,1,0,0,37101,301,27,79,0,0,0,0,0,0,0,0,-32315,0,0,0,4047,0,22346,0
19451,-224,-8276,568,-25,33,-24,9788,-5,4,-1,0,37102,290,27,79,0,0,0,0,0,0,0,0,-32315,0,0,0,4047,0,22366,0
19461,-178,-8308,568,-24,27,-35,9789,-1,-2,0,0,37102,293,27,79,0,0,0,0,0,0,0,0,-32315,0,0,0,4046,0,22386,0
19471,-164,-8252,576,-23,31,-41,9789,3,8,0,0,37106,292,27,79,0,0,0,0,0,0,0,0,-32315,0,0,0,4046,0,22406,0
19481,-38,-8338,542,-44,26,-67,9788,1,3,0,0,37109,289,27,79,0,0,0,0,0,0,0,0,-32315,0,0,0,4045,0,22426,0
19491,-104,-8384,692,-36,48,-56,9789,-5,1,0,0,37112,287,27,79,0,0,0,0,0,0,0,0,-32315,0,0,0,4044,0,22446,0
19501,0,-8352,612,-44,37,-50,9789,-3,-1,0,0,37109,295,27,79,0,0,0,0,0,0,0,0,-32315,0,0,0,4043,0,22467,0
19511,-22,-8280,586,-47,39,-34,9789,2,-2,0,0,37110,295,27,79,0,0,0,0,0,0,0,0,-32315,0,0,0,4042,0,22487,0
19521,-14,-8220,602,-41,37,-20,9789,7,-1,0,0,37111,294,27,79,0,0,0,0,0,0,0,0,-32315,0,0,0,4041,0,22507,0
19531,-18,-8234,626,-47,39,-12,9789,-2,-1,-1,0,37114,287,27,79,0,0,0,0,0,0,0,0,-32315,0,0,0,4041,0,22527,0
19541,42,-8280,672,-47,42,7,9789,5,5,-1,0,37112,291,27,79,0,0,0,0,0,0,0,0,-32315,0,0,0,4041,0,22547,0
19551,60,-8318,662,-52,40,24,9788,-4,0,-1,0,37108,294,27,79,0,0,0,0,0,0,0,0,-32315,0,0,0,4042,0,22567,0
19561,36,-8310,654,-67,45,37,9789,0,-3,0,0,37108,299,27,79,0,0,0,0,0,0,0,0,-32314,0,0,0,4041,0,22587,0
19571,-4,-8286,626,-71,46,47,9789,2,5,-1,0,37114,300,27,79,0,0,0,0,0,0,0,0,-32315,0,0,0,4042,0,22607,0
19581,-36,-8258,622,-67,41,52,9788,-11,-1,1,0,37117,307,27,79,0,0,0,0,0,0,0,0,-32315,0,0,0,4042,0,22627,0
19591,-38,-8280,582,-68,54,62,9789,4,-1,0,0,37113,303,27,79,0,0,0,0,0,0,0,0,-32315,0,0,0,4042,0,22647,0
19601,-76,-8258,564,-70,48,70,9789,3,2,-1,0,37110,301,27,79,0,0,0,0,0,0,0,0,-32314,0,0,0,4043,0,22667,0
19611,-104,-8302,558,-65,47,68,9789,0,-1,-1,0,37107,292,27,79,0,0,0,0,0,0,0,0,-32315,0,0,0,4043,0,22687,0
19621,-152,-8272,524,-60,44,62,9788,0,2,0,0,37122,295,27,79,0,0,0,0,0,0,0,0,-32314,0,0,0,4043,0,22707,0
19631,-204,-8278,506,-51,41,54,9789,2,-3,0,0,37123,298,27,79,0,0,0,0,0,0,0,0,-32315,0,0,0,4044,0,22728,0
19641,-210,-8256,536,-50,43,34,9788,-2,2,0,0,37119,297,27,79,0,0,0,0,0,0,0,0,-32315,0,0,0,4044,0,22748,0
19651,-250,-8282,524,-42,37,19,9788,0,0,0,0,37109,297,27,79,0,0,0,0,0,0,0,0,-32315,0,0,0,4044,0,22768,0
19661,-250,-8256,558,-30,35,-3,9788,0,-2,-2,0,37108,293,27,79,0,0,0,0,0,0,0,0,-32315,0,0,0,4044,0,22788,0
19671,-270,-8254,552,-26,33,-20,9789,4,-4,0,0,37110,293,27,79,0,0,0,0,0,0,0,0,-32315,0,0,0,4045,0,22808,0
19681,-170,-8270,582,-30,29,-33,9788,-4,-4,-1,0,37114,301,27,79,0,0,0,0,0,0,0,0,-32315,0,0,0,4045,0,22828,0
19691,-120,-8274,594,-28,27,-38,9790,3,0,0,0,37115,303,27,79,0,0,0,0,0,0,0,0,-32315,0,0,0,4043,0,22848,0
19701,-118,-8276,632,-23,37,-47,9788,-5,-1,0,0,37117,299,27,79,0,0,0,0,0,0,0,0,-32315,0,0,0,4043,0,22868,0
19711,-72,-8254,632,-24,38,-51,9789,5,-2,0,0,37113,293,27,79,0,0,0,0,0,0,0,0,-32315,0,0,0,4043,0,22888,0
19721,-42,-8258,638,-31,36,-44,9788,-1,-3,-2,0,37113,298,27,79,0,0,0,0,0,0,0,0,-32315,0,0,0,4042,0,22908,0
19731,-48,-8258,670,-32,40,-38,9789,7,1,0,0,37111,300,27,79,0,0,0,0,0,0,0,0,-32315,0,0,0,4042,0,22928,0
19741,-118,-8380,618,-39,45,-32,9789,0,-1,-1,0,37111,303,27,79,0,0,0,0,0,0,0,0,-32315,0,0,0,4041,0,22949,0
19751,36,-8264,618,-45,47,-26,9789,-3,-3,1,0,37113,299,27,79,0,0,0,0,0,0,0,0,-32315,0,0,0,4040,0,22969,0
19761,68,-8296,650,-51,47,2,9790,6,-3,0,0,37112,303,27,79,0,0,0,0,0,0,0,0,-32315,0,0,0,4038,0,22989,0
19771,60,-8322,662,-58,43,16,9789,5,2,0,0,37111,300,27,79,0,0,0,0,0,0,0,0,-32315,0,0,0,4037,0,23009,0
19781,-4,-8286,640,-64,42,31,9788,-8,0,-2,0,37112,308,27,79,0,0,0,0,0,0,0,0,-32315,0,0,0,4038,0,23029,0
19791,-22,-8266,626,-59,47,39,9789,-3,-1,-2,0,37122,307,27,79,0,0,0,0,0,0,0,0,-32315,0,0,0,4040,0,23049,0
19801,-76,-8280,634,-70,50,42,9788,-1,2,0,0,37122,304,27,79,0,0,0,0,0,0,0,0,-32315,0,0,0,4038,0,23069,0
19811,-64,-8296,598,-69,49,40,9789,4,-3,-1,0,37120,296,27,79,0,0,0,0,0,0,0,0,-32315,0,0,0,4038,0,23089,0
19821,-100,-8264,602,-68,45,44,9790,7,0,0,0,37114,294,27,79,0,0,0,0,0,0,0,0,-32315,0,0,0,4040,0,23109,0
19831,-112,-8310,570,-72,46,43,9789,2,0,0,0,37114,299,27,79,0,0,0,0,0,0,0,0,-32315,0,0,0,4040,0,23129,0
19841,-114,-8304,572,-68,51,43,9788,6,-3,-2,0,37115,296,27,79,0,0,0,0,0,0,0,0,-32315,0,0,0,4040,0,23149,0
19851,-122,-8258,560,-59,45,37,9790,5,3,0,0,37116,294,27,79,0,0,0,0,0,0,0,0,-32315,0,0,0,4040,0,23169,0
19861,-146,-8308,572,-61,43,31,9789,1,-2,0,0,37115,293,27,79,0,0,0,0,0,0,0,0,-32314,0,0,0,4041,0,23189,0
19871,-150,-8284,548,-57,40,24,9788,-1,-3,0,0,37118,299,27,79,0,0,0,0,0,0,0,0,-32315,0,0,0,4041,0,23209,0
19881,-174,-8250,554,-51,38,17,9789,-1,2,0,0,37119,303,27,79,0,0,0,0,0,0,0,0,-32315,0,0,0,4041,0,23229,0
19891,-182,-8272,554,-46,39,10,9789,1,-1,0,0,37125,302,27,79,0,0,0,0,0,0,0,0,-32315,0,0,0,4040,0,23250,0
19901,-146,-8310,576,-43,37,-3,9789,1,2,1,0,37124,301,27,79,0,0,0,0,0,0,0,0,-32315,0,0,0,4041,0,23270,0
19911,-136,-8254,578,-41,41,-7,9789,7,0,-1,0,37123,294,27,79,0,0,0,0,0,0,0,0,-32315,0,0,0,4041,0,23290,0
19921,-108,-8286,576,-35,37,-14,9788,0,1,0,0,37120,301,27,79,0,0,0,0,0,0,0,0,-32315,0,0,0,4041,0,23310,0
19931,-102,-8272,610,-36,38,-16,9789,2,3,0,0,37115,300,27,79,0,0,0,0,0,0,0,0,-32316,0,0,0,4041,0,23330,0
19941,-56,-8262,616,-34,36,-12,9789,0,2,0,0,37116,302,27,79,0,0,0,0,0,0,0,0,-32315,0,0,0,4040,0,23350,0
19951,-50,-8282,646,-38,36,-17,9790,10,0,-2,0,37115,296,27,79,0,0,0,0,0,0,0,0,-32315,0,0,0,4038,0,23370,0
19961,-10,-8280,628,-42,35,-7,9787,-3,0,-2,0,37115,292,27,79,0,0,0,0,0,0,0,0,-32315,0,0,0,4040,0,23390,0
19971,-28,-8260,642,-46,40,-3,9789,1,-1,-1,0,37112,292,27,79,0,0,0,0,0,0,0,0,-32315,0,0,0,4039,0,23410,0
19981,-8,-8300,646,-46,42,7,9789,2,-3,0,0,37112,299,27,79,0,0,0,0,0,0,0,0,-32315,0,0,0,4038,0,23430,0
19991,-22,-8276,628,-56,44,15,9789,1,-2,-1,0,37115,302,27,79,0,0,0,0,0,0,0,0,-32315,0,0,0,4038,0,23450,0
20001,-26,-8258,640,-55,41,21,9789,0,0,-1,0,37117,304,27,79,0,0,0,0,0,0,0,0,-32315,0,0,0,4038,0,23470,0
20011,-22,-8284,630,-62,45,26,9789,1,0,0,0,37117,297,27,79,0,0,0,0,0,0,0,0,-32315,0,0,0,4040,0,23490,0
20021,-56,-8284,646,-61,40,32,9788,-5,-2,-2,0,37119,295,27,79,0,0,0,0,0,0,0,0,-32314,0,0,0,4039,0,23510,0
20031,-58,-8292,622,-63,46,38,9788,0,-1,0,0,37114,294,27,79,0,0,0,0,0,0,0,0,-32315,0,0,0,4038,0,23530,0
20041,-102,-8276,598,-69,47,40,9788,-3,-1,0,0,37113,287,27,79,0,0,0,0,0,0,0,0,-32315,0,0,0,4040,0,23550,0
20051,-92,-8282,594,-66,44,41,9789,2,-4,0,0,37111,287,27,79,0,0,0,0,0,0,0,0,-32315,0,0,0,4039,0,23571,0
20061,-100,-8282,590,-59,48,45,9788,0,-2,-1,0,37108,289,27,79,0,0,0,0,0,0,0,0,-32315,0,0,0,4039,0,23591,0
20071,-102,-8282,564,-64,46,38,9788,4,-3,0,0,37109,297,27,79,0,0,0,0,0,0,0,0,-32315,0,0,0,4040,0,23611,0
20081,-124,-8278,564,-57,48,35,9789,2,1,0,0,37111,299,27,79,0,0,0,0,0,0,0,0,-32315,0,0,0,4041,0,23631,0
20091,-130,-8248,566,-53,53,27,9788,-4,1,1,0,37112,302,27,79,0,0,0,0,0,0,0,0,-32314,0,0,0,4041,0,23651,0
20101,-152,-8252,574,-54,40,21,9788,-4,-3,0,0,37116,302,27,79,0,0,0,0,0,0,0,0,-32315,0,0,0,4042,0,23671,0
20111,-132,-8272,568,-51,44,19,9789,0,2,0,0,37115,301,27,79,0,0,0,0,0,0,0,0,-32315,0,0,0,4042,0,23692,0
20121,-150,-8262,562,-48,36,12,9789,-4,0,0,0,37116,296,27,79,0,0,0,0,0,0,0,0,-32315,0,0,0,4042,0,23712,0
20131,-128,-8286,574,-48,40,5,9789,-5,0,0,0,37108,296,27,79,0,0,0,0,0,0,0,0,-32315,0,0,0,4040,0,23732,0
20141,-84,-8288,578,-44,41,3,9789,2,-2,0,0,37104,297,27,79,0,0,0,0,0,0,0,0,-32315,0,0,0,4040,0,23752,0
20151,-88,-8276,602,-47,43,5,9789,8,-1,0,0,37101,299,27,79,0,0,0,0,0,0,0,0,-32315,0,0,0,4040,0,23773,0
20161,-74,-8276,600,-46,32,3,9789,0,0,0,0,37106,294,27,79,0,0,0,0,0,0,0,0,-32315,0,0,0,4041,0,23793,0
20171,-52,-8302,614,-50,36,8,9789,-6,2,-1,0,37109,291,27,79,0,0,0,0,0,0,0,0,-32315,0,0,0,4041,0,23813,0
20181,-50,-8302,616,-49,42,10,9789,1,-2,0,0,37109,288,27,79,0,0,0,0,0,0,0,0,-32315,0,0,0,4041,0,23833,0
20191,-40,-8280,612,-49,42,19,9790,0,0,0,0,37104,281,27,79,0,0,0,0,0,0,0,0,-32315,0,0,0,4040,0,23854,0
20201,-34,-8274,624,-55,47,25,9789,1,2,0,0,37103,286,27,79,0,0,0,0,0,0,0,0,-32315,0,0,0,4040,0,23874,0
20211,-36,-8254,596,-59,43,29,9790,6,-2,0,0,37117,294,27,79,0,0,0,0,0,0,0,0,-32315,0,0,0,4040,0,23894,0
20221,-94,-8246,586,-53,50,33,9789,1,-1,-1,0,37120,296,27,79,0,0,0,0,0,0,0,0,-32315,0,0,0,4040,0,23914,0
20231,-96,-8284,578,-48,44,37,9789,1,1,-1,0,37119,295,27,79,0,0,0,0,0,0,0,0,-32314,0,0,0,4040,0,23934,0
20241,-92,-8270,594,-53,43,32,9788,-7,-2,0,0,37109,297,27,79,0,0,0,0,0,0,0,0,-32315,0,0,0,4041,0,23954,0
20251,-90,-8282,578,-55,49,36,9789,0,2,0,0,37109,304,27,79,0,0,0,0,0,0,0,0,-32315,0,0,0,4041,0,23974,0
20261,-104,-8286,600,-50,44,36,9789,4,-1,0,0,37109,303,27,79,0,0,0,0,0,0,0,0,-32314,0,0,0,4042,0,23994,0
20271,-126,-8278,590,-55,47,38,9789,4,-1,0,0,37108,307,27,79,0,0,0,0,0,0,0,0,-32314,0,0,0,4042,0,24014,0
20281,-166,-8264,600,-55,39,35,9788,-3,1,2,0,37105,297,27,79,0,0,0,0,0,0,0,0,-32315,0,0,0,4042,0,24034,0
20291,-144,-8260,596,-52,41,25,9789,3,-4,0,0,37102,297,27,79,0,0,0,0,0,0,0,0,-32315,0,0,0,4042,0,24054,0
20301,-134,-8266,590,-53,40,18,9789,4,3,0,0,37099,288,27,79,0,0,0,0,0,0,0,0,-32315,0,0,0,4042,0,24074,0
20311,-140,-8272,610,-46,41,13,9789,0,-3,0,0,37100,292,27,79,0,0,0,0,0,0,0,0,-32315,0,0,0,4042,0,24094,0
20321,-120,-8278,604,-55,41,11,9789,4,1,0,0,37106,295,27,79,0,0,0,0,0,0,0,0,-32315,0,0,0,4042,0,24114,0
20331,-90,-8272,592,-49,39,11,9790,2,-5,0,0,37107,293,27,79,0,0,0,0,0,0,0,0,-32315,0,0,0,4042,0,24134,0
20341,-110,-8274,606,-51,45,8,9789,4,1,0,0,37106,290,27,79,0,0,0,0,0,0,0,0,-32315,0,0,0,4042,0,24154,0
20351,-62,-8282,582,-49,46,13,9789,0,5,0,0,37096,289,27,79,0,0,0,0,0,0,0,0,-32315,0,0,0,4042,0,24174,0
20361,-38,-8282,592,-54,39,24,9789,2,3,0,0,37098,287,27,79,0,0,0,0,0,0,0,0,-32315,0,0,0,4042,0,24194,0
20371,-56,-8276,580,-50,42,28,9790,1,2,0,0,37098,286,27,79,0,0,0,0,0,0,0,0,-32315,0,0,0,4042,0,24214,0
20381,-80,-8296,608,-52,47,32,9789,1,-2,0,0,37101,290,27,79,0,0,0,0,0,0,0,0,-32315,0,0,0,4042,0,24234,0
20391,-114,-8288,602,-52,47,29,9788,-5,3,0,0,37101,298,27,79,0,0,0,0,0,0,0,0,-32315,0,0,0,4042,0,24254,0
20401,-72,-8260,626,-53,44,32,9789,-7,-2,-2,0,37100,309,27,79,0,0,0,0,0,0,0,0,-32315,0,0,0,4042,0,24274,0
20411,-104,-8290,578,-50,39,31,9789,0,1,-1,0,37098,300,27,79,0,0,0,0,0,0,0,0,-32315,0,0,0,4043,0,24294,0
20421,-132,-8268,580,-54,43,27,9789,1,-4,1,0,37099,299,27,79,0,0,0,0,0,0,0,0,-32315,0,0,0,4042,0,24314,0
20431,-136,-8284,606,-49,40,21,9789,7,3,0,0,37111,298,27,79,0,0,0,0,0,0,0,0,-32315,0,0,0,4043,0,24334,0
20441,-152,-8280,600,-54,43,17,9789,3,1,0,0,37112,302,27,79,0,0,0,0,0,0,0,0,-32315,0,0,0,4042,0,24354,0
20451,-98,-8260,598,-53,39,20,9789,1,1,-1,0,37113,286,27,79,0,0,0,0,0,0,0,0,-32315,0,0,0,4043,0,24374,0
20461,-104,-8282,600,-52,40,12,9789,0,0,-1,0,37103,288,27,79,0,0,0,0,0,0,0,0,-32315,0,0,0,4043,0,24394,0
20471,-100,-8276,588,-49,40,16,9789,2,-3,-1,0,37104,297,27,79,0,0,0,0,0,0,0,0,-32315,0,0,0,4042,0,24414,0
20481,-86,-8294,582,-53,42,16,9788,-2,-2,1,0,37103,297,27,79,0,0,0,0,0,0,0,0,-32315,0,0,0,4043,0,24434,0
20491,-80,-8288,598,-51,37,23,9789,1,1,0,0,37103,290,27,79,0,0,0,0,0,0,0,0,-32315,0,0,0,4042,0,24454,0
20501,-112,-8288,598,-47,44,18,9790,0,-1,0,0,37104,283,27,79,0,0,0,0,0,0,0,0,-32315,0,0,0,4043,0,24474,0
20511,-118,-8264,612,-51,39,23,9788,-3,-1,-1,0,37106,287,27,79,0,0,0,0,0,0,0,0,-32315,0,0,0,4043,0,24494,0
20521,-98,-8284,604,-47,36,16,9789,-2,1,0,0,37105,297,27,79,0,0,0,0,0,0,0,0,-32314,0,0,0,4043,0,24514,0
20531,-118,-8250,588,-54,39,18,9790,5,3,0,0,37111,303,27,79,0,0,0,0,0,0,0,0,-32315,0,0,0,4043,0,24534,0
20541,-136,-8284,572,-51,44,22,9789,-2,-2,0,0,37113,297,27,79,0,0,0,0,0,0,0,0,-32314,0,0,0,4043,0,24554,0
20551,-128,-8262,610,-52,44,18,9789,0,-3,-1,0,37113,288,27,79,0,0,0,0,0,0,0,0,-32315,0,0,0,4043,0,24574,0
20561,-102,-8266,574,-49,38,17,9790,0,2,-2,0,37105,291,27,79,0,0,0,0,0,0,0,0,-32315,0,0,0,4043,0,24594,0
20571,-110,-8290,600,-47,45,16,9789,2,-2,-2,0,37106,294,27,79,0,0,0,0,0,0,0,0,-32315,0,0,0,4043,0,24614,0
20581,-98,-8266,582,-48,43,18,9789,0,-3,0,0,37107,303,27,79,0,0,0,0,0,0,0,0,-32315,0,0,0,4043,0,24634,0
20591,-102,-8266,608,-50,39,14,9790,6,1,0,0,37109,300,27,79,0,0,0,0,0,0,0,0,-32314,0,0,0,4043,0,24654,0
20601,-118,-8296,596,-50,41,15,9789,-1,0,-1,0,37107,293,27,79,0,0,0,0,0,0,0,0,-32315,0,0,0,4043,0,24674,0
20611,-120,-8306,604,-50,43,14,9789,1,1,0,0,37107,292,27,79,0,0,0,0,0,0,0,0,-32314,0,0,0,4043,0,24694,0
20621,-108,-8266,576,-47,41,14,9789,1,3,-1,0,37108,296,27,79,0,0,0,0,0,0,0,0,-32315,0,0,0,4044,0,24715,0
20631,-128,-8284,586,-49,39,12,9789,0,-1,0,0,37110,300,27,79,0,0,0,0,0,0,0,0,-32315,0,0,0,4043,0,24735,0
20641,-134,-8276,574,-46,36,8,9788,-8,-3,-2,0,37117,300,27,79,0,0,0,0,0,0,0,0,-32315,0,0,0,4043,0,24755,0
20651,-100,-8270,606,-47,34,13,9789,3,-4,0,0,37115,297,27,79,0,0,0,0,0,0,0,0,-32315,0,0,0,4043,0,24779,0
20661,-116,-8306,580,-48,44,11,9789,0,4,0,0,37118,295,27,79,0,0,0,0,0,0,0,0,-32315,0,0,0,4043,0,24800,0
20671,-90,-8290,580,-41,41,9,9788,0,-1,-2,0,37112,292,27,79,0,0,0,0,0,0,0,0,-32315,0,0,0,4044,0,24820,0
20681,-114,-8258,608,-48,35,6,9788,-6,1,0,0,37113,292,27,79,0,0,0,0,0,0,0,0,-32315,0,0,0,4043,0,24840,0
20691,-104,-8314,596,-46,33,9,9790,1,0,-1,0,37113,292,27,79,0,0,0,0,0,0,0,0,-32314,0,0,0,4043,0,24860,0
20701,-102,-8280,588,-44,45,7,9789,1,0,0,0,37111,291,27,79,0,0,0,0,0,0,0,0,-32315,0,0,0,4042,0,24880,0
20711,-116,-8252,602,-44,38,8,9789,-4,-2,1,0,37111,290,27,79,0,0,0,0,0,0,0,0,-32315,0,0,0,4043,0,24900,0
20721,-90,-8300,618,-41,43,8,9789,-3,-4,0,0,37113,296,27,79,0,0,0,0,0,0,0,0,-32315,0,0,0,4043,0,24920,0
20731,-58,-8276,598,-47,42,14,9788,-5,-5,-1,0,37113,305,27,79,0,0,0,0,0,0,0,0,-32315,0,0,0,4043,0,24940,0
20741,-94,-8270,614,-44,41,10,9788,-10,0,0,0,37115,307,27,79,0,0,0,0,0,0,0,0,-32315,0,0,0,4043,0,24961,0
20751,-74,-8306,590,-49,42,12,9789,1,1,1,0,37118,297,27,79,0,0,0,0,0,0,0,0,-32315,0,0,0,4043,0,24981,0
20761,-88,-8286,578,-51,46,16,9789,5,1,-2,0,37119,291,27,79,0,0,0,0,0,0,0,0,-32315,0,0,0,4042,0,25001,0
20771,-82,-8236,592,-51,36,11,9789,4,2,-1,0,37119,292,27,79,0,0,0,0,0,0,0,0,-32315,0,0,0,4043,0,25021,0
20781,-106,-8282,586,-46,38,15,9788,-1,2,0,0,37114,295,27,79,0,0,0,0,0,0,0,0,-32315,0,0,0,4043,0,25041,0
20791,-96,-8300,568,-48,44,11,9790,1,-1,-1,0,37111,295,27,79,0,0,0,0,0,0,0,0,-32315,0,0,0,4044,0,25061,0
20801,-122,-8248,588,-47,42,15,9788,0,-2,0,0,37113,287,27,79,0,0,0,0,0,0,0,0,-32315,0,0,0,4043,0,25081,0
20811,-116,-8260,592,-45,40,10,9789,0,0,0,0,37116,290,27,79,0,0,0,0,0,0,0,0,-32315,0,0,0,4043,0,25101,0
20821,-108,-8296,612,-45,34,10,9789,-2,-2,-1,0,37118,295,27,79,0,0,0,0,0,0,0,0,-32315,0,0,0,4042,0,25121,0
20831,-114,-8242,594,-45,40,11,9789,-3,-2,0,0,37116,305,27,79,0,0,0,0,0,0,0,0,-32315,0,0,0,4042,0,25141,0
20841,-84,-8298,596,-45,36,7,9789,0,-1,0,0,37117,307,27,79,0,0,0,0,0,0,0,0,-32315,0,0,0,4042,0,25161,0
20851,-92,-8298,612,-48,41,15,9789,0,-2,0,0,37121,295,27,79,0,0,0,0,0,0,0,0,-32315,0,0,0,4043,0,25182,0
20861,-106,-8254,602,-48,43,10,9789,0,0,0,0,37122,294,27,79,0,0,0,0,0,0,0,0,-32315,0,0,0,4042,0,25202,0
20871,-86,-8282,592,-45,40,8,9789,0,1,0,0,37122,297,27,79,0,0,0,0,0,0,0,0,-32315,0,0,0,4042,0,25222,0
20881,-80,-8264,592,-46,42,10,9789,1,0,0,0,37115,304,27,79,0,0,0,0,0,0,0,0,-32315,0,0,0,4043,0,25241,0
20891,-98,-8274,606,-48,37,11,9789,-4,-1,0,0,37114,290,27,79,0,0,0,0,0,0,0,0,-32315,0,0,0,4042,0,25261,0
20901,-100,-8280,624,-45,41,9,9790,5,1,0,0,37125,286,27,79,0,0,0,0,0,0,0,0,-32315,0,0,0,4042,0,25282,0
20911,-88,-8290,610,-48,40,8,9789,1,0,-2,0,37135,294,27,79,0,0,0,0,0,0,0,0,-32315,0,0,0,4042,0,25302,0
20921,-96,-8264,608,-48,33,9,9788,-5,-3,0,0,37144,307,27,79,0,0,0,0,0,0,0,0,-32315,0,0,0,4043,0,25322,0
20931,-86,-8264,614,-39,42,9,9789,-1,0,0,0,37138,305,27,79,0,0,0,0,0,0,0,0,-32316,0,0,0,4042,0,25342,0
20941,-108,-8280,606,-47,41,10,9789,0,0,0,0,37129,296,27,79,0,0,0,0,0,0,0,0,-32315,0,0,0,4043,0,25362,0
20951,-78,-8280,614,-49,36,13,9790,6,2,0,0,37119,293,27,79,0,0,0,0,0,0,0,0,-32315,0,0,0,4043,0,25382,0
20961,-94,-8300,600,-49,44,12,9788,-3,1,1,0,37124,300,27,79,0,0,0,0,0,0,0,0,-32315,0,0,0,4042,0,25402,0
20971,-88,-8284,600,-45,37,8,9789,-2,2,0,0,37122,307,27,79,0,0,0,0,0,0,0,0,-32316,0,0,0,4042,0,25422,0
20981,-114,-8276,612,-51,41,13,9788,0,-2,0,0,37121,302,27,79,0,0,0,0,0,0,0,0,-32315,0,0,0,4043,0,25442,0
20991,-74,-8274,630,-50,37,13,9789,0,1,0,0,37113,306,27,79,0,0,0,0,0,0,0,0,-32315,0,0,0,4041,0,25462,0
21001,-98,-8274,586,-57,34,10,9789,-1,-3,-1,0,37112,305,27,79,0,0,0,0,0,0,0,0,-32315,0,0,0,4042,0,25482,0
21011,-76,-8276,630,-50,43,16,9789,-3,1,0,0,37107,303,27,79,0,0,0,0,0,0,0,0,-32315,0,0,0,4042,0,25502,0
21021,-84,-8266,582,-53,40,12,9788,-5,-2,-1,0,37109,301,27,79,0,0,0,0,0,0,0,0,-32315,0,0,0,4042,0,25522,0
21031,-80,-8286,598,-50,40,14,9790,7,0,-1,0,37110,303,27,79,0,0,0,0,0,0,0,0,-32315,0,0,0,4041,0,25542,0
21041,-70,-8292,592,-50,39,13,9789,1,3,-2,0,37108,300,27,79,0,0,0,0,0,0,0,0,-32315,0,0,0,4041,0,25562,0
21051,-108,-8248,584,-51,36,19,9789,3,0,0,0,37105,302,27,79,0,0,0,0,0,0,0,0,-32315,0,0,0,4042,0,25582,0
21061,-98,-8294,602,-45,49,19,9788,-5,3,0,0,37111,300,27,79,0,0,0,0,0,0,0,0,-32315,0,0,0,4041,0,25602,0
21071,-110,-8268,594,-50,41,17,9788,-3,-3,-1,0,37113,297,27,79,0,0,0,0,0,0,0,0,-32315,0,0,0,4042,0,25622,0
21081,-136,-8262,594,-51,46,20,9788,0,-2,0,0,37114,290,27,79,0,0,0,0,0,0,0,0,-32315,0,0,0,4042,0,25642,0
21091,-84,-8278,616,-52,33,13,9789,0,1,-1,0,37111,288,27,79,0,0,0,0,0,0,0,0,-32315,0,0,0,4042,0,25662,0
21101,-90,-8280,620,-51,37,9,9789,0,1,0,0,37103,288,27,79,0,0,0,0,0,0,0,0,-32314,0,0,0,4042,0,25682,0
21111,-92,-8288,598,-51,39,11,9789,-2,2,0,0,37104,289,27,79,0,0,0,0,0,0,0,0,-32315,0,0,0,4042,0,25702,0
21121,-90,-8282,596,-54,44,10,9790,-4,4,-1,0,37106,287,27,79,0,0,0,0,0,0,0,0,-32315,0,0,0,4042,0,25722,0
21131,472,-8260,480,-65,48,31,9738,-224,-119,-873,-856,37106,288,27,79,0,0,0,0,0,0,0,0,-32315,0,0,0,4042,0,25742,0
21141,-306,-8238,744,-56,25,23,9508,-626,-424,-936,-1904,37104,295,27,79,0,0,0,0,0,0,0,0,-32315,0,0,0,4042,0,25762,0
21151,-242,-8286,684,-71,29,31,9089,-1051,-647,-1036,-2800,37097,311,27,79,0,0,0,0,0,0,0,0,-32315,0,0,0,4042,0,25782,0
21161,-28,-8254,556,-79,88,13,8494,-1415,-708,-1042,-3664,37088,341,27,79,0,0,0,0,0,0,0,0,-32314,0,0,0,4042,0,25802,0
21171,-94,-8302,528,-75,81,10,7754,-1708,-615,-1006,-4264,37081,386,27,79,0,0,0,0,0,0,0,0,-32315,0,0,0,4042,0,25822,0
21181,-48,-8268,586,-56,81,29,6917,-1892,-464,-937,-5024,37067,407,27,79,0,0,0,0,0,0,0,0,-32315,0,0,0,4042,0,25842,0
21191,-134,-8296,512,-51,63,25,6022,-2004,-289,-940,-5552,37054,427,27,79,0,0,0,0,0,0,0,0,-32315,0,0,0,4042,0,25862,0
21201,-156,-8206,730,-24,66,13,5064,-2169,-222,-1009,-5872,37038,429,27,79,0,0,0,0,0,0,0,0,-32315,0,0,0,4042,0,25882,0
21211,-220,-8222,636,-17,46,10,4019,-2355,-294,-1052,-5984,37028,454,27,79,0,0,0,0,0,0,0,0,-32316,0,0,0,4042,0,25902,0
21221,80,-8276,462,16,36,17,2883,-2566,-335,-1023,-6424,37021,461,27,79,0,0,0,0,0,0,0,0,-32315,0,0,0,4042,0,25922,0
21231,-60,-8276,574,7,6,26,1618,-2882,-415,-1081,-6864,37013,474,27,79,0,0,0,0,0,0,0,0,-32315,0,0,0,4042,0,25942,0
21241,-214,-8262,632,-8,-29,21,203,-3190,-551,-1166,-6768,37004,477,27,79,0,0,0,0,0,0,0,0,-32316,0,0,0,4042,0,25962,0
21251,-220,-8292,688,-37,30,13,-1227,-3078,-332,-823,-7328,36993,500,27,79,0,0,0,0,0,0,0,0,-32316,0,0,0,4042,0,25982,0
21261,-48,-8304,656,-60,17,5,-2552,-2876,201,-812,-7800,36990,503,27,79,0,0,0,0,0,0,0,0,-32315,0,0,0,4042,0,26003,0
21271,-126,-8292,706,-99,-1,13,-3877,-2940,207,-1046,-7712,36989,502,27,79,0,0,0,0,0,0,0,0,-32316,0,0,0,4043,0,26022,0
21281,-96,-8312,622,-101,25,22,-5258,-3091,-107,-1058,-7784,36993,491,27,79,0,0,0,0,0,0,0,0,-32316,0,0,0,4041,0,26043,0
21291,-54,-8304,510,-118,51,25,-6769,-3448,-354,-1059,-8376,36987,485,27,79,0,0,0,0,0,0,0,0,-32315,0,0,0,4042,0,26063,0
21301,-196,-8304,680,-55,97,18,-8460,-3792,-613,-1139,-8512,36976,517,27,79,0,0,0,0,0,0,0,0,-32315,0,0,0,4043,0,26083,0
21311,-512,-8336,630,-41,115,7,-10127,-3582,-309,-689,-9256,36959,545,27,79,0,0,0,0,0,0,0,0,-32315,0,0,0,4042,0,26103,0
21321,-9108,-4060,4064,68,1519,-3706,-11631,-3038,362,-1246,-7080,36957,552,27,79,0,0,0,0,0,0,0,0,-32316,0,0,0,3983,-12,26123,0
21331,-25858,-6712,-436,-570,2848,-2527,-12451,-1133,1602,-1270,-1072,36949,563,27,79,0,0,0,0,0,0,0,0,-32314,0,0,0,3888,-8,26143,0
21341,9158,-11338,2522,-24,322,-1091,-12320,732,3233,-621,536,36963,503,27,79,0,0,0,0,0,0,0,0,-32315,0,0,0,3880,2,26163,0
21351,24516,-6230,-1146,-194,-871,303,-11915,797,2397,-839,-64,36993,423,27,79,0,0,0,0,0,0,0,0,-32316,0,0,0,3909,2,26183,0
21361,4802,-7312,-2018,176,-2422,1201,-11815,1,-121,-1185,-400,37037,332,27,79,0,0,0,0,0,0,0,0,-32315,0,0,0,3929,1,26203,0
21371,-4364,-8700,-1062,684,-3307,966,-11818,66,-846,-1054,-160,37068,281,27,79,0,0,0,0,0,0,0,0,-32315,0,0,0,3957,1,26223,0
21381,-9252,-11904,336,95,994,257,-11702,322,76,-978,-24,37081,283,27,79,0,0,0,0,0,0,0,0,-32315,0,0,0,3966,0,26243,0
21391,102,-10068,-462,108,899,-222,-11586,166,251,-1003,-216,37083,279,27,79,0,0,0,0,0,0,0,0,-32314,0,0,0,3974,0,26263,0
21401,3308,-7542,188,159,238,-208,-11628,-182,-329,-918,-696,37087,267,27,79,0,0,0,0,0,0,0,0,-32315,0,0,0,3965,-1,26283,0
21411,1726,-8442,1290,170,-193,-76,-11739,-238,-443,-1028,-664,37086,270,27,79,0,0,0,0,0,0,0,0,-32315,0,0,0,3959,0,26303,0
21421,-2838,-8324,2452,-20,-31,-1,-11770,34,26,-1069,-208,37084,279,27,79,0,0,0,0,0,0,0,0,-32315,0,0,0,3956,0,26323,0
21431,-54,-8066,2522,-159,80,-65,-11726,69,317,-984,-272,37081,289,27,79,0,0,0,0,0,0,0,0,-32315,0,0,0,3962,0,26343,0
21441,946,-8424,916,-236,107,-102,-11748,-78,6,-983,-376,37082,287,27,79,0,0,0,0,0,0,0,0,-32315,0,0,0,3959,0,26363,0
21451,254,-8394,-210,-240,64,-3,-11759,18,-107,-1025,-272,37086,281,27,79,0,0,0,0,0,0,0,0,-32315,0,0,0,3956,0,26383,0
21461,990,-8346,-620,-117,12,64,-11750,3,75,-994,-304,37089,275,27,79,0,0,0,0,0,0,0,0,-32315,0,0,0,3958,0,26403,0
21471,62,-8298,-522,-26,36,99,-11752,11,6,-1005,-280,37090,282,27,79,0,0,0,0,0,0,0,0,-32315,0,0,0,3958,0,26423,0
21481,-80,-8324,422,35,68,91,-11748,6,-5,-996,-296,37092,285,27,79,0,0,0,0,0,0,0,0,-32315,0,0,0,3958,0,26443,0
21491,-198,-8226,1032,26,64,63,-11747,1,5,-1000,-296,37092,286,27,79,0,0,0,0,0,0,0,0,-32315,0,0,0,3958,0,26463,0
21501,-242,-8292,1136,-37,54,38,-11746,1,-6,-1002,-288,37095,278,27,79,0,0,0,0,0,0,0,0,-32314,0,0,0,3958,0,26483,0
21511,-82,-8308,946,-72,54,21,-11745,4,-3,-1001,-288,37095,275,27,79,0,0,0,0,0,0,0,0,-32314,0,0,0,3959,0,26503,0
21521,62,-8286,636,-84,28,-7,-11747,-2,3,-998,-296,37095,278,27,79,0,0,0,0,0,0,0,0,-32315,0,0,0,3959,0,26523,0
21531,42,-8226,454,-63,30,-3,-11746,-3,-4,-998,-296,37096,278,27,79,0,0,0,0,0,0,0,0,-32315,0,0,0,3959,0,26543,0
21541,124,-8330,394,-53,40,4,-11746,-3,3,-1000,-288,37098,281,27,79,0,0,0,0,0,0,0,0,-32315,0,0,0,3959,0,26563,0
21551,196,-8290,500,-50,40,-2,-11747,-1,2,-1002,-288,37098,285,27,79,0,0,0,0,0,0,0,0,-32315,0,0,0,3958,0,26583,0
21561,154,-8180,616,-38,32,16,-11748,-3,5,-1000,-288,37097,287,27,79,0,0,0,0,0,0,0,0,-32315,0,0,0,3959,0,26603,0
21571,100,-8296,496,-35,41,26,-11746,7,-1,-1000,-296,37096,285,27,79,0,0,0,0,0,0,0,0,-32315,0,0,0,3958,0,26623,0
21581,198,-8316,532,-31,47,27,-11747,0,-1,-999,-296,37098,287,27,79,0,0,0,0,0,0,0,0,-32315,0,0,0,3960,0,26643,0
21591,228,-8250,588,-31,53,36,-11746,0,1,-999,-288,37101,290,27,79,0,0,0,0,0,0,0,0,-32315,0,0,0,3958,0,26663,0
21601,122,-8210,666,-23,55,54,-11745,7,1,-1004,-288,37102,284,27,79,0,0,0,0,0,0,0,0,-32315,0,0,0,3959,0,26683,0
21611,90,-8306,748,-32,58,50,-11744,0,6,-999,-288,37103,272,27,79,0,0,0,0,0,0,0,0,-32315,0,0,0,3958,0,26703,0
21621,50,-8300,714,-40,75,42,-11742,0,7,-1001,-288,37105,270,27,79,0,0,0,0,0,0,0,0,-32315,0,0,0,3959,0,26723,0
21631,4,-8264,650,-45,69,49,-11740,7,-3,-999,-288,37107,276,27,79,0,0,0,0,0,0,0,0,-32315,0,0,0,3959,0,26743,0
21641,76,-8306,570,-41,57,41,-11739,3,-6,-1001,-288,37108,276,27,79,0,0,0,0,0,0,0,0,-32315,0,0,0,3959,0,26763,0
21651,44,-8274,556,-36,46,30,-11739,6,0,-1002,-288,37106,276,27,79,0,0,0,0,0,0,0,0,-32315,0,0,0,3959,0,26783,0
21661,-40,-8238,592,-30,46,28,-11740,-5,-8,-1002,-296,37109,283,27,79,0,0,0,0,0,0,0,0,-32315,0,0,0,3958,0,26803,0
21671,-36,-8322,624,-33,47,26,-11740,-4,0,-999,-296,37111,294,27,79,0,0,0,0,0,0,0,0,-32315,0,0,0,3959,0,26823,0
21681,72,-8274,670,-43,60,2,-11740,-6,-1,-999,-304,37110,301,27,79,0,0,0,0,0,0,0,0,-32315,0,0,0,3958,0,26843,0
21691,100,-8246,590,-35,49,7,-11738,1,-4,-998,-288,37110,308,27,79,0,0,0,0,0,0,0,0,-32315,0,0,0,3959,0,26863,0
21701,136,-8310,548,-34,39,15,-11738,2,-2,-1003,-304,37108,302,27,79,0,0,0,0,0,0,0,0,-32315,0,0,0,3959,0,26883,0
21711,150,-8292,590,-30,39,3,-11740,-8,-12,-1002,-296,37108,298,27,79,0,0,0,0,0,0,0,0,-32315,0,0,0,3958,0,26903,0
21721,54,-8216,624,-25,42,12,-11739,-1,-1,-1001,-296,37105,289,27,79,0,0,0,0,0,0,0,0,-32315,0,0,0,3959,0,26923,0
21731,86,-8302,644,-25,43,13,-11739,5,-1,-999,-296,37104,287,27,79,0,0,0,0,0,0,0,0,-32315,0,0,0,3958,0,26943,0
21741,104,-8326,704,-29,41,9,-11740,-1,5,-999,-296,37102,284,27,79,0,0,0,0,0,0,0,0,-32314,0,0,0,3959,0,26964,0
21751,72,-8218,688,-34,39,10,-11740,-7,1,-1004,-296,37104,291,27,79,0,0,0,0,0,0,0,0,-32314,0,0,0,3958,0,26984,0
21761,36,-8268,624,-37,36,20,-11740,1,-1,-999,-296,37106,287,27,79,0,0,0,0,0,0,0,0,-32315,0,0,0,3959,0,27004,0
21771,74,-8290,626,-43,41,7,-11739,-3,1,-1001,-288,37105,288,27,79,0,0,0,0,0,0,0,0,-32315,0,0,0,3958,0,27024,0
21781,76,-8250,628,-40,38,19,-11739,9,-4,-999,-296,37104,285,27,79,0,0,0,0,0,0,0,0,-32315,0,0,0,3957,0,27044,0
21791,66,-8248,634,-41,40,19,-11739,6,3,-999,-296,37108,286,27,79,0,0,0,0,0,0,0,0,-32315,0,0,0,3958,0,27064,0
21801,50,-8322,658,-46,38,11,-11739,-1,1,-1003,-296,37114,289,27,79,0,0,0,0,0,0,0,0,-32315,0,0,0,3959,0,27084,0
21811,82,-8244,680,-45,47,3,-11740,0,-2,-1001,-304,37115,290,27,79,0,0,0,0,0,0,0,0,-32315,0,0,0,3959,0,27104,0
21821,100,-8258,622,-44,36,15,-11739,-2,-4,-1001,-296,37112,295,27,79,0,0,0,0,0,0,0,0,-32315,0,0,0,3959,0,27124,0
21831,136,-8316,638,-53,37,13,-11740,-5,4,-999,-304,37108,290,27,79,0,0,0,0,0,0,0,0,-32315,0,0,0,3959,0,27144,0
21841,74,-8284,652,-49,38,10,-11739,5,-1,-1000,-296,37109,291,27,79,0,0,0,0,0,0,0,0,-32315,0,0,0,3958,0,27164,0
21851,10,-8254,674,-54,34,19,-11739,10,2,-1003,-296,37109,289,27,79,0,0,0,0,0,0,0,0,-32315,0,0,0,3958,0,27184,0
21861,68,-8288,650,-55,42,12,-11739,8,6,-1002,-296,37111,290,27,79,0,0,0,0,0,0,0,0,-32315,0,0,0,3959,0,27204,0
21871,98,-8290,672,-56,43,9,-11741,-3,-4,-1001,-288,37110,286,27,79,0,0,0,0,0,0,0,0,-32315,0,0,0,3958,0,27224,0
21881,84,-8258,628,-59,43,21,-11739,12,2,-998,-296,37110,279,27,79,0,0,0,0,0,0,0,0,-32315,0,0,0,3959,0,27244,0
21891,108,-8240,640,-62,42,23,-11740,3,6,-1002,-280,37109,281,27,79,0,0,0,0,0,0,0,0,-32315,0,0,0,3958,0,27264,0
21901,148,-8316,640,-64,43,21,-11741,-8,-2,-1003,-296,37116,293,27,79,0,0,0,0,0,0,0,0,-32315,0,0,0,3958,0,27284,0
21911,164,-8262,660,-58,49,32,-11741,-3,-7,-1001,-288,37116,293,27,79,0,0,0,0,0,0,0,0,-32315,0,0,0,3959,0,27304,0
21921,116,-8248,660,-66,43,39,-11740,-1,2,-1000,-296,37114,296,27,79,0,0,0,0,0,0,0,0,-32315,0,0,0,3958,0,27324,0
21931,90,-8266,672,-67,45,35,-11739,-1,-1,-1002,-296,37108,284,27,79,0,0,0,0,0,0,0,0,-32315,0,0,0,3959,0,27344,0
21941,50,-8270,684,-66,53,39,-11738,7,3,-1002,-288,37107,281,27,79,0,0,0,0,0,0,0,0,-32315,0,0,0,3959,0,27364,0
21951,82,-8278,622,-74,68,43,-11737,9,3,-1004,-288,37109,281,27,79,0,0,0,0,0,0,0,0,-32315,0,0,0,3959,0,27384,0
21961,74,-8280,598,-74,52,30,-11737,1,8,-1001,-296,37112,282,27,79,0,0,0,0,0,0,0,0,-32315,0,0,0,3958,0,27404,0
21971,10,-8248,580,-70,45,33,-11735,0,2,-1001,-288,37111,287,27,79,0,0,0,0,0,0,0,0,-32315,0,0,0,3959,0,27424,0
21981,42,-8286,550,-61,48,37,-11733,8,-3,-1002,-296,37107,286,27,79,0,0,0,0,0,0,0,0,-32315,0,0,0,3959,0,27444,0
21991,52,-8282,598,-61,43,26,-11731,3,-1,-1003,-288,37107,290,27,79,0,0,0,0,0,0,0,0,-32315,0,0,0,3959,0,27464,0
22001,58,-8244,590,-56,38,19,-11731,2,-5,-1000,-288,37108,289,27,79,0,0,0,0,0,0,0,0,-32315,0,0,0,3959,0,27484,0
22011,26,-8264,568,-56,40,22,-11729,3,-1,-1001,-280,37112,289,27,79,0,0,0,0,0,0,0,0,-32315,0,0,0,3959,0,27504,0
22021,78,-8308,596,-50,31,14,-11730,-2,-3,-1002,-288,37111,291,27,79,0,0,0,0,0,0,0,0,-32315,0,0,0,3958,0,27524,0
22031,38,-8244,616,-50,36,11,-11729,0,0,-998,-296,37110,284,27,79,0,0,0,0,0,0,0,0,-32315,0,0,0,3959,0,27544,0
22041,24,-8242,580,-43,38,10,-11729,-5,3,-1002,-288,37105,287,27,79,0,0,0,0,0,0,0,0,-32315,0,0,0,3959,0,27564,0
22051,8,-8280,582,-48,38,5,-11729,0,-3,-1002,-280,37105,288,27,79,0,0,0,0,0,0,0,0,-32315,0,0,0,3958,0,27584,0
22061,70,-8276,602,-43,31,-2,-11730,-3,1,-1001,-304,37103,284,27,79,0,0,0,0,0,0,0,0,-32314,0,0,0,3959,0,27604,0
22071,48,-8280,574,-40,28,2,-11730,7,-1,-1000,-288,37102,280,27,79,0,0,0,0,0,0,0,0,-32315,0,0,0,3959,0,27624,0
22081,38,-8280,584,-43,28,-3,-11731,-3,0,-1002,-288,37104,276,27,79,0,0,0,0,0,0,0,0,-32315,0,0,0,3958,0,27644,0
22091,86,-8260,626,-37,39,-8,-11730,0,3,-999,-288,37106,281,27,79,0,0,0,0,0,0,0,0,-32315,0,0,0,3959,0,27664,0
22101,102,-8276,638,-36,30,-4,-11731,1,0,-1002,-280,37103,281,27,79,0,0,0,0,0,0,0,0,-32315,0,0,0,3959,0,27684,0
22111,86,-8288,646,-41,37,-3,-11732,0,4,-1003,-288,37103,287,27,79,0,0,0,0,0,0,0,0,-32314,0,0,0,3959,0,27704,0
22121,144,-8286,676,-44,40,-4,-11733,0,3,-1002,-288,37101,281,27,79,0,0,0,0,0,0,0,0,-32315,0,0,0,3959,0,27724,0
22131,160,-8272,700,-44,37,8,-11733,-3,1,-1001,-288,37103,284,27,79,0,0,0,0,0,0,0,0,-32315,0,0,0,3958,0,27744,0
22141,142,-8266,670,-55,37,16,-11733,0,0,-997,-280,37101,285,27,79,0,0,0,0,0,0,0,0,-32315,0,0,0,3959,0,27764,0
22151,142,-8268,696,-62,45,21,-11733,2,2,-1001,-288,37099,289,27,79,0,0,0,0,0,0,0,0,-32315,0,0,0,3958,0,27784,0
22161,166,-8236,682,-68,47,36,-11733,2,-3,-1001,-288,37097,287,27,79,0,0,0,0,0,0,0,0,-32315,0,0,0,3959,0,27804,0
22171,96,-8278,630,-68,44,40,-11733,4,3,-1003,-296,37099,287,27,79,0,0,0,0,0,0,0,0,-32315,0,0,0,3958,0,27824,0
22181,144,-8280,664,-78,48,46,-11730,3,0,-1004,-288,37113,289,27,79,0,0,0,0,0,0,0,0,-32315,0,0,0,3959,0,27844,0
22191,90,-8288,648,-76,56,53,-11731,3,-2,-1003,-296,37113,294,27,79,0,0,0,0,0,0,0,0,-32315,0,0,0,3959,0,27864,0
22201,48,-8266,620,-81,49,61,-11729,12,3,-1003,-296,37111,287,27,79,0,0,0,0,0,0,0,0,-32315,0,0,0,3959,0,27884,0
22211,156,-8288,594,-79,121,62,-11727,11,3,-1000,-288,37107,287,27,79,0,0,0,0,0,0,0,0,-32315,0,0,0,3960,0,27904,0
22221,68,-8254,594,-83,105,59,-11721,11,11,-1006,-264,37105,291,27,79,0,0,0,0,0,0,0,0,-32315,0,0,0,3959,0,27924,0
22231,94,-8318,580,-81,82,72,-11710,31,11,-998,-256,37105,293,27,79,0,0,0,0,0,0,0,0,-32315,0,0,0,3960,0,27944,0
22241,196,-8268,534,-73,36,85,-11699,22,16,-1001,-264,37098,288,27,79,0,0,0,0,0,0,0,0,-32314,0,0,0,3960,0,27964,0
22251,178,-8280,516,-58,20,66,-11692,-2,-8,-999,-288,37093,283,27,79,0,0,0,0,0,0,0,0,-32314,0,0,0,3961,0,27984,0
22261,-270,-8290,600,-58,55,44,-11692,0,-32,-1002,-288,37096,291,27,79,0,0,0,0,0,0,0,0,-32315,0,0,0,3961,0,28004,0
22271,-156,-8294,646,-77,116,28,-11689,0,-6,-1001,-288,37097,303,27,79,0,0,0,0,0,0,0,0,-32314,0,0,0,3961,0,28024,0
22281,42,-8274,606,-78,132,14,-11689,3,1,-1000,-288,37096,300,27,79,0,0,0,0,0,0,0,0,-32314,0,0,0,3960,0,28044,0
22291,68,-8298,578,-75,93,21,-11692,-8,-5,-1002,-280,37094,298,27,79,0,0,0,0,0,0,0,0,-32315,0,0,0,3959,0,28064,0
22301,60,-8260,490,-52,34,32,-11689,1,2,-1001,-288,37094,292,27,79,0,0,0,0,0,0,0,0,-32315,0,0,0,3959,0,28084,0
22311,-56,-8290,528,-46,22,20,-11689,1,-1,-1003,-288,37095,297,27,79,0,0,0,0,0,0,0,0,-32314,0,0,0,3959,0,28104,0
22321,-144,-8280,542,-44,36,3,-11690,0,6,-1002,-288,37101,304,27,79,0,0,0,0,0,0,0,0,-32315,0,0,0,3959,0,28124,0
22331,-90,-8276,532,-37,38,-14,-11691,2,-3,-996,-288,37100,297,27,79,0,0,0,0,0,0,0,0,-32315,0,0,0,3960,0,28144,0
22341,34,-8280,594,-35,21,-24,-11691,-1,0,-1000,-288,37102,304,27,79,0,0,0,0,0,0,0,0,-32315,0,0,0,3959,0,28164,0
22351,8,-8276,608,-28,13,-22,-11691,4,-2,-1001,-288,37100,286,27,79,0,0,0,0,0,0,0,0,-32315,0,0,0,3959,0,28184,0
22361,48,-8250,612,-31,15,-27,-11692,4,0,-1001,-288,37101,295,27,79,0,0,0,0,0,0,0,0,-32315,0,0,0,3960,0,28204,0
22371,74,-8234,630,-36,21,-27,-11694,5,-2,-1004,-288,37100,299,27,79,0,0,0,0,0,0,0,0,-32315,0,0,0,3960,0,28224,0
22381,146,-8294,630,-34,6,-17,-11694,-3,1,-998,-288,37098,306,27,79,0,0,0,0,0,0,0,0,-32315,0,0,0,3960,0,28244,0
22391,196,-8292,572,-26,-12,-5,-11696,-3,2,-1001,-280,37098,304,27,79,0,0,0,0,0,0,0,0,-32314,0,0,0,3960,0,28264,0
22401,144,-8262,614,-27,-11,5,-11695,0,1,-1004,-288,37096,305,27,79,0,0,0,0,0,0,0,0,-32315,0,0,0,3960,0,28284,0
22411,94,-8262,662,-33,11,7,-11696,-2,4,-1000,-288,37094,302,27,79,0,0,0,0,0,0,0,0,-32315,0,0,0,3960,0,28304,0
22421,60,-8298,694,-50,37,12,-11697,2,5,-1001,-272,37094,305,27,79,0,0,0,0,0,0,0,0,-32315,0,0,0,3960,0,28324,0
22431,116,-8278,698,-45,46,11,-11697,-10,-2,-995,-280,37094,305,27,79,0,0,0,0,0,0,0,0,-32315,0,0,0,3960,0,28344,0
22441,152,-8282,688,-60,44,22,-11697,-2,4,-1004,-264,37094,312,27,79,0,0,0,0,0,0,0,0,-32315,0,0,0,3961,0,28364,0
22451,212,-8270,660,-61,39,29,-11697,-5,-2,-1003,-264,37094,304,27,79,0,0,0,0,0,0,0,0,-32315,0,0,0,3961,0,28384,0
22461,120,-8254,668,-67,50,38,-11696,5,5,-1001,-272,37097,299,27,79,0,0,0,0,0,0,0,0,-32314,0,0,0,3961,0,28404,0
22471,82,-8266,694,-72,55,35,-11694,1,-6,-1000,-272,37098,298,27,79,0,0,0,0,0,0,0,0,-32315,0,0,0,3960,0,28424,0
22481,102,-8266,626,-78,54,50,-11693,6,-3,-1001,-288,37097,305,27,79,0,0,0,0,0,0,0,0,-32315,0,0,0,3961,0,28444,0
22491,142,-8258,596,-78,54,48,-11695,-1,1,-1003,-280,37097,305,27,79,0,0,0,0,0,0,0,0,-32315,0,0,0,3961,0,28464,0
22501,24,-8266,584,-74,50,50,-11693,4,2,-1003,-288,37097,304,27,79,0,0,0,0,0,0,0,0,-32315,0,0,0,3960,0,28484,0
22511,24,-8272,562,-68,55,50,-11692,-3,-4,-996,-280,37099,296,27,79,0,0,0,0,0,0,0,0,-32314,0,0,0,3961,0,28505,0
22521,16,-8288,564,-64,63,42,-11692,-1,2,-1004,-296,37099,297,27,79,0,0,0,0,0,0,0,0,-32315,0,0,0,3961,0,28525,0
22531,-42,-8278,596,-71,75,37,-11690,11,4,-998,-288,37106,299,27,79,0,0,0,0,0,0,0,0,-32315,0,0,0,3960,0,28545,0
22541,-12,-8298,572,-62,69,23,-11692,-5,3,-1003,-280,37104,297,27,79,0,0,0,0,0,0,0,0,-32314,0,0,0,3960,0,28565,0
22551,-10,-8278,576,-60,57,25,-11689,1,-1,-1002,-280,37106,296,27,79,0,0,0,0,0,0,0,0,-32315,0,0,0,3961,0,28585,0
22561,52,-8294,566,-51,49,14,-11690,1,-2,-1001,-280,37100,296,27,79,0,0,0,0,0,0,0,0,-32315,0,0,0,3960,0,28605,0
22571,-10,-8278,564,-53,42,16,-11689,7,3,-998,-296,37100,291,27,79,0,0,0,0,0,0,0,0,-32315,0,0,0,3961,0,28625,0
22581,-60,-8288,546,-46,34,10,-11691,-2,2,-1000,-288,37098,302,27,79,0,0,0,0,0,0,0,0,-32314,0,0,0,3960,0,28645,0
22591,-22,-8292,560,-41,35,6,-11689,0,-3,-999,-288,37100,306,27,79,0,0,0,0,0,0,0,0,-32314,0,0,0,3961,0,28665,0
22601,-2,-8294,558,-36,33,-2,-11691,5,0,-1003,-280,37101,309,27,79,0,0,0,0,0,0,0,0,-32314,0,0,0,3960,0,28685,0
22611,62,-8250,558,-34,31,-8,-11691,-1,3,-1001,-296,37101,307,27,79,0,0,0,0,0,0,0,0,-32315,0,0,0,3960,0,28705,0
22621,4,-8324,594,-25,26,-9,-11691,-2,2,-999,-280,37100,304,27,79,0,0,0,0,0,0,0,0,-32315,0,0,0,3960,0,28725,0
22631,-8,-8282,580,-17,26,-21,-11692,-7,0,-998,-280,37104,304,27,79,0,0,0,0,0,0,0,0,-32314,0,0,0,3959,0,28745,0
22641,14,-8242,620,-24,25,-25,-11692,2,-2,-1003,-288,37107,310,27,79,0,0,0,0,0,0,0,0,-32315,0,0,0,3960,0,28765,0
22651,76,-8274,612,-23,20,-20,-11694,-7,4,-1003,-280,37107,305,27,79,0,0,0,0,0,0,0,0,-32315,0,0,0,3960,0,28785,0
22661,152,-8294,658,-22,16,-20,-11695,0,1,-998,-288,37104,301,27,79,0,0,0,0,0,0,0,0,-32315,0,0,0,3960,0,28805,0
22671,186,-8268,602,-24,-10,-10,-11696,-2,5,-998,-272,37102,296,27,79,0,0,0,0,0,0,0,0,-32315,0,0,0,3959,0,28825,0
22681,132,-8284,626,-23,-5,-2,-11696,1,7,-999,-296,37105,294,27,79,0,0,0,0,0,0,0,0,-32314,0,0,0,3960,0,28845,0
22691,116,-8266,626,-19,9,-6,-11695,0,1,-1006,-272,37105,294,27,79,0,0,0,0,0,0,0,0,-32315,0,0,0,3960,0,28865,0
22701,48,-8288,660,-27,34,1,-11697,2,0,-1002,-280,37102,292,27,79,0,0,0,0,0,0,0,0,-32315,0,0,0,3960,0,28885,0
22711,56,-8264,650,-32,42,3,-11698,0,5,-999,-272,37102,296,27,79,0,0,0,0,0,0,0,0,-32315,0,0,0,3960,0,28905,0
22721,150,-8266,682,-36,44,9,-11699,-10,-3,-999,-264,37104,296,27,79,0,0,0,0,0,0,0,0,-32314,0,0,0,3960,0,28925,0
22731,152,-8276,678,-40,35,15,-11699,-9,0,-996,-264,37105,289,27,79,0,0,0,0,0,0,0,0,-32315,0,0,0,3961,0,28945,0
22741,104,-8286,666,-50,41,27,-11698,3,3,-1004,-264,37113,292,27,79,0,0,0,0,0,0,0,0,-32314,0,0,0,3960,0,28966,0
22751,124,-8292,678,-51,52,27,-11698,7,4,-998,-272,37111,296,27,79,0,0,0,0,0,0,0,0,-32315,0,0,0,3960,0,28986,0
22761,88,-8266,632,-54,48,32,-11698,0,5,-1002,-264,37114,302,27,79,0,0,0,0,0,0,0,0,-32314,0,0,0,3960,0,29006,0
22771,90,-8284,636,-56,51,35,-11697,7,6,-1001,-264,37107,301,27,79,0,0,0,0,0,0,0,0,-32314,0,0,0,3960,0,29026,0
22781,100,-8264,628,-63,46,34,-11697,1,0,-998,-272,37108,299,27,79,0,0,0,0,0,0,0,0,-32315,0,0,0,3960,0,29046,0
22791,-8,-8264,600,-57,45,42,-11697,-1,1,-997,-264,37107,297,27,79,0,0,0,0,0,0,0,0,-32315,0,0,0,3960,0,29066,0
22801,64,-8284,610,-59,49,38,-11696,0,0,-999,-272,37107,298,27,79,0,0,0,0,0,0,0,0,-32314,0,0,0,3961,0,29086,0
22811,-34,-8306,598,-55,41,38,-11695,5,4,-996,-288,37109,296,27,79,0,0,0,0,0,0,0,0,-32315,0,0,0,3961,0,29106,0
22821,26,-8282,594,-53,41,30,-11694,-2,-2,-997,-288,37109,305,27,79,0,0,0,0,0,0,0,0,-32314,0,0,0,3961,0,29126,0
22831,18,-8274,608,-55,41,26,-11695,-1,-5,-1000,-288,37109,309,27,79,0,0,0,0,0,0,0,0,-32315,0,0,0,3960,0,29146,0
22841,12,-8298,590,-53,47,27,-11695,-3,0,-1000,-280,37114,313,27,79,0,0,0,0,0,0,0,0,-32315,0,0,0,3960,0,29166,0
22851,-22,-8296,598,-48,45,22,-11694,0,1,-998,-280,37115,306,27,79,0,0,0,0,0,0,0,0,-32315,0,0,0,3961,0,29186,0
22861,22,-8252,586,-54,47,20,-11694,1,-4,-1000,-280,37116,300,27,79,0,0,0,0,0,0,0,0,-32315,0,0,0,3961,0,29206,0
22871,-8,-8290,600,-47,43,16,-11693,5,3,-1001,-280,37110,293,27,79,0,0,0,0,0,0,0,0,-32315,0,0,0,3960,0,29226,0
22881,-2,-8280,612,-43,39,14,-11692,5,5,-997,-288,37110,297,27,79,0,0,0,0,0,0,0,0,-32315,0,0,0,3961,0,29246,0
22891,32,-8238,610,-47,42,11,-11694,-3,-3,-1000,-280,37109,302,27,79,0,0,0,0,0,0,0,0,-32315,0,0,0,3960,0,29266,0
22901,54,-8282,596,-41,29,6,-11694,-1,-3,-1004,-280,37110,301,27,79,0,0,0,0,0,0,0,0,-32315,0,0,0,3961,0,29286,0
22911,110,-8268,618,-45,34,2,-11694,2,-1,-997,-272,37108,297,27,79,0,0,0,0,0,0,0,0,-32315,0,0,0,3960,0,29306,0
22921,74,-8252,594,-40,37,3,-11695,-11,-3,-1001,-272,37106,301,27,79,0,0,0,0,0,0,0,0,-32315,0,0,0,3960,0,29326,0
22931,118,-8264,598,-41,32,3,-11694,1,-4,-1000,-288,37105,303,27,79,0,0,0,0,0,0,0,0,-32315,0,0,0,3961,0,29346,0
22941,108,-8286,642,-42,32,2,-11694,-1,5,-999,-280,37114,305,27,79,0,0,0,0,0,0,0,0,-32314,0,0,0,3960,0,29366,0
22951,26,-8252,646,-43,42,5,-11695,-3,0,-1001,-280,37114,307,27,79,0,0,0,0,0,0,0,0,-32314,0,0,0,3960,0,29386,0
22961,56,-8302,698,-44,30,9,-11696,-4,-3,-1001,-280,37112,299,27,79,0,0,0,0,0,0,0,0,-32314,0,0,0,3960,0,29406,0
22971,80,-8286,640,-51,38,14,-11695,1,-2,-996,-272,37108,302,27,79,0,0,0,0,0,0,0,0,-32315,0,0,0,3960,0,29426,0
22981,56,-8250,638,-45,42,17,-11696,-5,-2,-1006,-264,37103,298,27,79,0,0,0,0,0,0,0,0,-32314,0,0,0,3960,0,29447,0
22991,150,-8286,646,-50,40,18,-11696,0,-3,-997,-280,37105,292,27,79,0,0,0,0,0,0,0,0,-32315,0,0,0,3960,0,29467,0
23001,108,-8276,664,-54,42,20,-11695,5,4,-1002,-272,37106,295,27,79,0,0,0,0,0,0,0,0,-32315,0,0,0,3960,0,29487,0
23011,118,-8266,676,-53,47,24,-11696,-4,-2,-1001,-288,37104,299,27,79,0,0,0,0,0,0,0,0,-32314,0,0,0,3961,0,29507,0
23021,80,-8266,670,-56,47,27,-11695,9,-5,-1000,-288,37103,292,27,79,0,0,0,0,0,0,0,0,-32314,0,0,0,3960,0,29527,0
23031,46,-8264,664,-62,47,27,-11695,0,3,-1000,-296,37102,288,27,79,0,0,0,0,0,0,0,0,-32315,0,0,0,3960,0,29547,0
23041,76,-8238,626,-59,47,27,-11695,-1,3,-998,-288,37106,284,27,79,0,0,0,0,0,0,0,0,-32314,0,0,0,3960,0,29567,0
23051,-10,-8280,638,-59,46,33,-11694,14,5,-1003,-272,37111,289,27,79,0,0,0,0,0,0,0,0,-32315,0,0,0,3960,0,29587,0
23061,36,-8300,594,-59,44,30,-11694,3,6,-1000,-272,37113,292,27,79,0,0,0,0,0,0,0,0,-32314,0,0,0,3962,0,29607,0
23071,24,-8314,638,-62,45,30,-11695,-1,-2,-1003,-288,37113,293,27,79,0,0,0,0,0,0,0,0,-32315,0,0,0,3960,0,29627,0
23081,-26,-8280,598,-56,41,30,-11693,-1,-1,-1000,-296,37110,290,27,79,0,0,0,0,0,0,0,0,-32314,0,0,0,3960,0,29647,0
23091,70,-8268,632,-58,52,22,-11695,-6,-3,-998,-280,37110,292,27,79,0,0,0,0,0,0,0,0,-32314,0,0,0,3961,0,29667,0
23101,48,-8280,610,-59,46,25,-11694,-5,-2,-1001,-272,37108,294,27,79,0,0,0,0,0,0,0,0,-32314,0,0,0,3960,0,29687,0
23111,100,-8258,624,-63,43,24,-11693,1,2,-1002,-296,37107,302,27,79,0,0,0,0,0,0,0,0,-32315,0,0,0,3961,0,29707,0
23121,62,-8286,616,-57,46,18,-11693,-2,2,-999,-280,37107,310,27,79,0,0,0,0,0,0,0,0,-32315,0,0,0,3961,0,29727,0
23131,76,-8256,608,-56,48,23,-11693,-3,-2,-1001,-288,37104,308,27,79,0,0,0,0,0,0,0,0,-32315,0,0,0,3960,0,29747,0
23141,34,-8264,634,-56,43,19,-11693,-6,-3,-998,-280,37101,307,27,79,0,0,0,0,0,0,0,0,-32315,0,0,0,3961,0,29767,0
23151,-18,-8298,604,-57,37,26,-11693,0,-1,-1003,-280,37104,303,27,79,0,0,0,0,0,0,0,0,-32315,0,0,0,3960,0,29787,0
23161,40,-8270,602,-54,40,17,-11692,0,2,-1001,-296,37101,300,27,79,0,0,0,0,0,0,0,0,-32314,0,0,0,3960,0,29807,0
23171,50,-8246,606,-58,43,17,-11692,-3,3,-998,-280,37100,301,27,79,0,0,0,0,0,0,0,0,-32315,0,0,0,3961,0,29827,0
23181,18,-8270,606,-49,43,14,-11691,6,1,-998,-288,37100,298,27,79,0,0,0,0,0,0,0,0,-32315,0,0,0,3961,0,29847,0
23191,56,-8272,612,-53,44,13,-11694,-13,-1,-1001,-288,37097,303,27,79,0,0,0,0,0,0,0,0,-32315,0,0,0,3961,0,29867,0
23201,72,-8282,604,-52,39,16,-11693,-8,4,-1003,-288,37098,296,27,79,0,0,0,0,0,0,0,0,-32315,0,0,0,3961,0,29887,0
23211,26,-8268,616,-54,39,12,-11693,-4,-4,-1000,-288,37095,292,27,79,0,0,0,0,0,0,0,0,-32314,0,0,0,3961,0,29907,0
23221,68,-8302,614,-52,39,15,-11692,3,5,-999,-296,37097,296,27,79,0,0,0,0,0,0,0,0,-32314,0,0,0,3960,0,29927,0
23231,42,-8240,648,-48,34,9,-11692,2,2,-1000,-296,37100,298,27,79,0,0,0,0,0,0,0,0,-32314,0,0,0,3961,0,29947,0
23241,92,-8284,614,-53,36,10,-11693,0,0,-1002,-280,37099,297,27,79,0,0,0,0,0,0,0,0,-32314,0,0,0,3963,0,29967,0
23251,40,-8288,634,-56,38,14,-11693,-4,2,-1000,-288,37097,296,27,79,0,0,0,0,0,0,0,0,-32315,0,0,0,3961,0,29987,0
23261,62,-8282,630,-55,38,11,-11691,3,0,-1000,-288,37099,293,27,79,0,0,0,0,0,0,0,0,-32315,0,0,0,3962,0,30007,0
23271,80,-8292,642,-55,37,13,-11693,-3,-2,-1001,-288,37101,293,27,79,0,0,0,0,0,0,0,0,-32314,0,0,0,3961,0,30027,0
23281,58,-8264,614,-56,39,17,-11693,-3,-5,-999,-280,37103,296,27,79,0,0,0,0,0,0,0,0,-32315,0,0,0,3961,0,30047,0
23291,122,-8242,628,-52,44,17,-11693,-7,2,-1003,-288,37098,300,27,79,0,0,0,0,0,0,0,0,-32314,0,0,0,3963,0,30067,0
23301,58,-8294,632,-61,41,18,-11693,-1,4,-1003,-272,37097,296,27,79,0,0,0,0,0,0,0,0,-32315,0,0,0,3961,0,30087,0
23311,126,-8256,622,-55,43,21,-11692,-3,3,-1002,-288,37097,299,27,79,0,0,0,0,0,0,0,0,-32314,0,0,0,3962,0,30107,0
23321,24,-8276,636,-58,38,24,-11692,0,3,-1001,-280,37096,303,27,79,0,0,0,0,0,0,0,0,-32315,0,0,0,3961,0,30127,0
23331,54,-8286,620,-61,44,24,-11693,1,1,-1000,-296,37096,305,27,79,0,0,0,0,0,0,0,0,-32314,0,0,0,3961,0,30147,0
23341,54,-8296,604,-58,43,21,-11691,5,0,-1001,-280,37094,307,27,79,0,0,0,0,0,0,0,0,-32314,0,0,0,3961,0,30167,0
23351,44,-8244,606,-58,40,24,-11693,1,-1,-1003,-288,37092,297,27,79,0,0,0,0,0,0,0,0,-32315,0,0,0,3960,0,30187,0
23361,50,-8300,604,-60,41,23,-11692,-4,-2,-1001,-288,37100,286,27,79,0,0,0,0,0,0,0,0,-32315,0,0,0,3961,0,30207,0
23371,50,-8308,598,-58,40,20,-11692,-5,-1,-999,-288,37099,288,27,79,0,0,0,0,0,0,0,0,-32314,0,0,0,3961,0,30227,0
23381,102,-8270,630,-56,41,15,-11692,-2,-2,-1002,-280,37100,294,27,79,0,0,0,0,0,0,0,0,-32314,0,0,0,3961,0,30247,0
23391,82,-8302,614,-55,42,15,-11691,2,-2,-1001,-288,37095,295,27,79,0,0,0,0,0,0,0,0,-32315,0,0,0,3961,0,30267,0
23401,54,-8268,632,-57,38,13,-11691,1,1,-1002,-288,37092,292,27,79,0,0,0,0,0,0,0,0,-32314,0,0,0,3961,0,30287,0
23411,42,-8262,594,-56,37,6,-11691,2,-1,-1002,-288,37096,294,27,79,0,0,0,0,0,0,0,0,-32314,0,0,0,3961,0,30307,0
23421,62,-8324,600,-53,38,9,-11691,5,-1,-996,-288,37098,303,27,79,0,0,0,0,0,0,0,0,-32315,0,0,0,3960,0,30327,0
23431,4,-8284,586,-48,36,7,-11692,1,-4,-1000,-296,37098,310,27,79,0,0,0,0,0,0,0,0,-32315,0,0,0,3960,0,30347,0
23441,4,-8288,630,-45,34,3,-11692,-4,2,-1003,-288,37095,307,27,79,0,0,0,0,0,0,0,0,-32315,0,0,0,3961,0,30367,0
23451,40,-8258,592,-55,34,7,-11691,1,-1,-1002,-288,37097,305,27,79,0,0,0,0,0,0,0,0,-32315,0,0,0,3962,0,30387,0
23461,48,-8262,616,-47,39,11,-11692,-1,1,-1002,-288,37109,301,27,79,0,0,0,0,0,0,0,0,-32315,0,0,0,3961,0,30407,0
23471,104,-8282,614,-45,37,2,-11691,6,-5,-999,-288,37122,300,27,79,0,0,0,0,0,0,0,0,-32315,0,0,0,3960,0,30427,0
23481,116,-8270,616,-41,33,6,-11693,-2,-2,-1002,-280,37135,298,27,79,0,0,0,0,0,0,0,0,-32315,0,0,0,3961,0,30447,0
23491,76,-8294,610,-52,36,10,-11692,7,2,-999,-280,37125,295,27,79,0,0,0,0,0,0,0,0,-32315,0,0,0,3961,0,30467,0
23501,70,-8250,618,-51,36,12,-11692,7,0,-1003,-280,37113,298,27,79,0,0,0,0,0,0,0,0,-32314,0,0,0,3960,0,30487,0
23511,70,-8266,636,-44,38,10,-11695,-8,-5,-1003,-288,37100,294,27,79,0,0,0,0,0,0,0,0,-32315,0,0,0,3960,0,30507,0
23521,72,-8268,628,-44,35,9,-11692,4,0,-997,-280,37097,297,27,79,0,0,0,0,0,0,0,0,-32314,0,0,0,3960,0,30527,0
23531,34,-8274,608,-49,31,10,-11692,3,-1,-1001,-288,37097,294,27,79,0,0,0,0,0,0,0,0,-32314,0,0,0,3960,0,30547,0
23541,28,-8272,602,-45,39,15,-11693,2,2,-1005,-288,37098,299,27,79,0,0,0,0,0,0,0,0,-32315,0,0,0,3960,0,30567,0
23551,46,-8302,634,-51,42,10,-11693,-1,3,-1002,-288,37099,297,27,79,0,0,0,0,0,0,0,0,-32314,0,0,0,3961,0,30587,0
23561,62,-8248,616,-48,39,15,-11692,3,-1,-1004,-296,37101,300,27,79,0,0,0,0,0,0,0,0,-32314,0,0,0,3961,0,30607,0
23571,90,-8266,626,-47,38,14,-11692,0,-3,-1001,-288,37100,299,27,79,0,0,0,0,0,0,0,0,-32314,0,0,0,3961,0,30627,0
23581,74,-8290,608,-54,40,15,-11693,-5,-4,-1001,-280,37102,299,27,79,0,0,0,0,0,0,0,0,-32314,0,0,0,3961,0,30647,0
23591,88,-8272,600,-46,41,15,-11694,-1,2,-1005,-272,37102,301,27,79,0,0,0,0,0,0,0,0,-32314,0,0,0,3962,0,30667,0
23601,64,-8258,604,-48,43,12,-11693,-1,-2,-1001,-288,37104,305,27,79,0,0,0,0,0,0,0,0,-32314,0,0,0,3960,0,30687,0
23611,38,-8268,580,-50,40,18,-11693,0,4,-1000,-288,37098,298,27,79,0,0,0,0,0,0,0,0,-32314,0,0,0,3963,0,30707,0
23621,30,-8266,598,-46,43,14,-11693,-4,-3,-1000,-280,37101,295,27,79,0,0,0,0,0,0,0,0,-32315,0,0,0,3961,0,30727,0
23631,36,-8288,622,-47,44,17,-11694,-9,3,-998,-288,37103,298,27,79,0,0,0,0,0,0,0,0,-32315,0,0,0,3961,0,30747,0
23641,40,-8248,612,-47,43,11,-11692,1,4,-1000,-288,37104,307,27,79,0,0,0,0,0,0,0,0,-32314,0,0,0,3960,0,30767,0
23651,28,-8302,608,-49,39,13,-11693,0,1,-1002,-280,37103,296,27,79,0,0,0,0,0,0,0,0,-32314,0,0,0,3961,0,30787,0
23661,58,-8272,610,-49,41,9,-11694,-2,-3,-1005,-280,37103,295,27,79,0,0,0,0,0,0,0,0,-32314,0,0,0,3960,0,30807,0
23671,78,-8290,596,-48,40,10,-11692,5,0,-997,-288,37102,300,27,79,0,0,0,0,0,0,0,0,-32314,0,0,0,3961,0,30827,0
23681,32,-8306,598,-44,35,10,-11694,0,1,-996,-280,37104,293,27,79,0,0,0,0,0,0,0,0,-32315,0,0,0,3960,0,30847,0
23691,20,-8250,598,-45,31,14,-11693,0,1,-999,-280,37103,288,27,79,0,0,0,0,0,0,0,0,-32314,0,0,0,3961,0,30867,0
23701,66,-8264,612,-47,36,9,-11694,-5,-1,-1003,-272,37102,289,27,79,0,0,0,0,0,0,0,0,-32315,0,0,0,3961,0,30887,0
23711,74,-8288,624,-44,41,13,-11694,4,4,-1001,-280,37104,306,27,79,0,0,0,0,0,0,0,0,-32315,0,0,0,3961,0,30907,0
23721,36,-8278,614,-50,41,13,-11695,5,2,-996,-288,37106,298,27,79,0,0,0,0,0,0,0,0,-32315,0,0,0,3961,0,30927,0
23731,104,-8288,638,-43,36,13,-11693,-1,-1,-996,-288,37107,293,27,79,0,0,0,0,0,0,0,0,-32314,0,0,0,3962,0,30947,0
23741,64,-8286,616,-47,43,18,-11694,-1,3,-1005,-288,37110,293,27,79,0,0,0,0,0,0,0,0,-32315,0,0,0,3961,0,30968,0
23751,84,-8276,628,-50,46,12,-11693,1,-1,-1001,-280,37112,293,27,79,0,0,0,0,0,0,0,0,-32315,0,0,0,3960,0,30988,0
23761,70,-8282,632,-53,40,17,-11694,1,1,-1000,-288,37114,300,27,79,0,0,0,0,0,0,0,0,-32315,0,0,0,3961,0,31008,0
23771,70,-8270,606,-52,41,9,-11693,-1,-2,-999,-288,37115,295,27,79,0,0,0,0,0,0,0,0,-32315,0,0,0,3960,0,31028,0
23781,76,-8270,614,-48,41,15,-11694,-1,-2,-999,-288,37114,295,27,79,0,0,0,0,0,0,0,0,-32314,0,0,0,3960,0,31048,0
23791,76,-8274,630,-44,45,15,-11694,-1,0,-1004,-288,37119,289,27,79,0,0,0,0,0,0,0,0,-32315,0,0,0,3960,0,31068,0
23801,54,-8260,612,-49,43,19,-11693,12,6,-1003,-288,37119,295,27,79,0,0,0,0,0,0,0,0,-32315,0,0,0,3961,0,31088,0
23811,40,-8262,624,-48,43,19,-11693,0,1,-1001,-288,37116,305,27,79,0,0,0,0,0,0,0,0,-32315,0,0,0,3961,0,31108,0
23821,56,-8286,608,-51,41,17,-11694,1,0,-998,-288,37113,310,27,79,0,0,0,0,0,0,0,0,-32315,0,0,0,3960,0,31128,0
23831,52,-8256,592,-54,41,16,-11693,5,-2,-1000,-280,37108,303,27,79,0,0,0,0,0,0,0,0,-32315,0,0,0,3960,0,31148,0
23841,10,-8260,602,-50,37,19,-11694,-7,-1,-1002,-280,37106,296,27,79,0,0,0,0,0,0,0,0,-32315,0,0,0,3961,0,31168,0
23851,94,-8274,610,-47,39,18,-11694,-2,-4,-1000,-272,37106,295,27,79,0,0,0,0,0,0,0,0,-32315,0,0,0,3960,0,31188,0
23861,86,-8286,604,-53,39,10,-11694,10,1,-1002,-280,37107,296,27,79,0,0,0,0,0,0,0,0,-32315,0,0,0,3960,0,31208,0
23871,46,-8266,626,-49,41,13,-11692,10,7,-995,-280,37108,303,27,79,0,0,0,0,0,0,0,0,-32315,0,0,0,3961,0,31228,0
23881,70,-8298,608,-48,38,9,-11693,6,1,-1002,-296,37107,301,27,79,0,0,0,0,0,0,0,0,-32314,0,0,0,3960,0,31248,0
23891,68,-8256,626,-55,41,13,-11694,-5,2,-1002,-296,37106,308,27,79,0,0,0,0,0,0,0,0,-32314,0,0,0,3960,0,31268,0
23901,24,-8262,612,-48,39,15,-11696,-6,-6,-1004,-296,37113,308,27,79,0,0,0,0,0,0,0,0,-32314,0,0,0,3960,0,31289,0
23911,62,-8290,610,-50,42,15,-11694,-4,0,-1002,-288,37112,304,27,79,0,0,0,0,0,0,0,0,-32315,0,0,0,3960,0,31309,0
23921,96,-8262,622,-49,43,14,-11694,-2,1,-998,-288,37112,301,27,79,0,0,0,0,0,0,0,0,-32314,0,0,0,3960,0,31329,0
23931,66,-8264,632,-49,38,17,-11694,0,-2,-995,-288,37106,305,27,79,0,0,0,0,0,0,0,0,-32314,0,0,0,3960,0,31349,0
23941,52,-8290,630,-47,40,19,-11695,-4,-1,-1000,-280,37103,307,27,79,0,0,0,0,0,0,0,0,-32316,0,0,0,3960,0,31369,0
23951,70,-8266,600,-53,40,14,-11694,2,-4,-1000,-296,37106,297,27,79,0,0,0,0,0,0,0,0,-32314,0,0,0,3960,0,31389,0
23961,104,-8250,620,-51,44,15,-11694,0,0,-1002,-288,37106,302,27,79,0,0,0,0,0,0,0,0,-32314,0,0,0,3960,0,31409,0
23971,16,-8250,622,-48,43,17,-11695,-6,-4,-1001,-296,37107,301,27,79,0,0,0,0,0,0,0,0,-32315,0,0,0,3960,0,31429,0
23981,122,-8284,644,-55,42,10,-11695,0,-1,-1001,-296,37104,302,27,79,0,0,0,0,0,0,0,0,-32315,0,0,0,3961,0,31449,0
23991,62,-8274,610,-53,40,15,-11693,7,4,-1001,-272,37101,289,27,79,0,0,0,0,0,0,0,0,-32314,0,0,0,3961,0,31469,0
24001,38,-8254,610,-56,40,16,-11693,-3,0,-1000,-280,37110,287,27,79,0,0,0,0,0,0,0,0,-32314,0,0,0,3960,0,31489,0
24011,62,-8292,620,-52,43,15,-11694,0,-3,-1000,-280,37113,296,27,79,0,0,0,0,0,0,0,0,-32314,0,0,0,3961,0,31509,0
24021,48,-8264,632,-52,39,19,-11692,5,5,-998,-280,37109,298,27,79,0,0,0,0,0,0,0,0,-32315,0,0,0,3961,0,31529,0
24031,16,-8270,616,-50,41,18,-11693,7,4,-1001,-296,37101,292,27,79,0,0,0,0,0,0,0,0,-32315,0,0,0,3961,0,31549,0
24041,58,-8280,604,-49,43,18,-11695,0,3,-999,-280,37098,283,27,79,0,0,0,0,0,0,0,0,-32315,0,0,0,3960,0,31569,0
24051,14,-8284,600,-52,41,18,-11694,0,-2,-999,-288,37102,285,27,79,0,0,0,0,0,0,0,0,-32315,0,0,0,3962,0,31589,0
24061,78,-8252,612,-52,44,17,-11693,2,4,-1001,-288,37102,296,27,79,0,0,0,0,0,0,0,0,-32315,0,0,0,3960,0,31609,0
24071,80,-8264,620,-53,47,14,-11693,2,1,-999,-288,37099,307,27,79,0,0,0,0,0,0,0,0,-32315,0,0,0,3961,0,31629,0
24081,94,-8272,626,-45,47,17,-11694,-2,-2,-998,-280,37098,309,27,79,0,0,0,0,0,0,0,0,-32314,0,0,0,3961,0,31649,0
24091,82,-8264,610,-47,44,16,-11694,0,-2,-1000,-296,37100,309,27,79,0,0,0,0,0,0,0,0,-32314,0,0,0,3961,0,31669,0
24101,74,-8280,620,-52,40,13,-11693,7,4,-999,-280,37105,307,27,79,0,0,0,0,0,0,0,0,-32314,0,0,0,3960,0,31689,0
24111,8,-8286,604,-48,40,11,-11693,2,4,-1002,-280,37102,308,27,79,0,0,0,0,0,0,0,0,-32314,0,0,0,3960,0,31709,0
24121,90,-8300,626,-44,42,14,-11694,5,-1,-998,-288,37098,307,27,79,0,0,0,0,0,0,0,0,-32314,0,0,0,3960,0,31729,0
24131,-1274,-8360,540,-64,9,78,-11668,128,45,-307,0,37100,302,27,79,0,0,0,0,0,0,0,0,-32315,0,0,0,3962,0,31749,0
24141,1784,-8028,370,-46,-210,269,-11576,212,184,-374,0,37100,291,27,79,0,0,0,0,0,0,0,0,-32315,0,0,0,3970,0,31769,0
24151,1080,-8226,548,-30,-320,322,-11511,115,68,-234,0,37104,281,27,79,0,0,0,0,0,0,0,0,-32315,0,0,0,3981,1,31790,0
24161,-1086,-8340,950,-46,-61,248,-11468,83,-96,-164,0,37105,273,27,79,0,0,0,0,0,0,0,0,-32315,0,0,0,3987,0,31810,0
24171,-1080,-8454,950,-48,18,177,-11418,100,-39,-205,0,37103,272,27,79,0,0,0,0,0,0,0,0,-32315,0,0,0,3990,0,31830,0
24181,138,-8114,496,-54,60,95,-11388,61,-18,-130,0,37102,281,27,79,0,0,0,0,0,0,0,0,-32315,0,0,0,3994,0,31850,0
24191,458,-8324,668,-55,33,92,-11375,19,-75,-48,0,37103,297,27,79,0,0,0,0,0,0,0,0,-32315,0,0,0,3994,0,31870,0
24201,-288,-8260,752,-66,27,89,-11375,9,-52,-19,0,37102,313,27,79,0,0,0,0,0,0,0,0,-32315,0,0,0,3995,0,31890,0
24211,-446,-8248,738,-75,45,53,-11368,21,-10,-31,0,37110,315,27,79,0,0,0,0,0,0,0,0,-32315,0,0,0,3995,0,31910,0
24221,-8,-8292,610,-75,71,24,-11365,12,3,-23,0,37109,310,27,79,0,0,0,0,0,0,0,0,-32315,0,0,0,3995,0,31930,0
24231,208,-8270,448,-76,47,33,-11363,5,-2,-18,0,37111,313,27,79,0,0,0,0,0,0,0,0,-32315,0,0,0,3995,0,31950,0
24241,136,-8230,420,-52,31,54,-11358,16,-8,-25,0,37102,311,27,79,0,0,0,0,0,0,0,0,-32314,0,0,0,3995,0,31970,0
24251,-80,-8274,486,-47,28,64,-11351,20,15,-51,0,37099,310,27,79,0,0,0,0,0,0,0,0,-32315,0,0,0,3996,0,31990,0
24261,-30,-8270,626,-41,22,82,-11333,47,29,-96,0,37098,309,27,79,0,0,0,0,0,0,0,0,-32315,0,0,0,3998,0,32010,0
24271,254,-8226,678,-46,13,80,-11312,42,27,-83,0,37098,303,27,79,0,0,0,0,0,0,0,0,-32315,0,0,0,3999,0,32030,0
24281,-182,-8286,724,-55,26,49,-11309,4,-30,-16,0,37099,299,27,79,0,0,0,0,0,0,0,0,-32315,0,0,0,4000,0,32050,0
24291,-350,-8278,650,-59,51,28,-11309,-1,-34,-13,0,37101,287,27,79,0,0,0,0,0,0,0,0,-32314,0,0,0,4000,0,32070,0
24301,30,-8264,608,-57,53,12,-11306,2,-2,-10,0,37101,284,27,79,0,0,0,0,0,0,0,0,-32314,0,0,0,4002,0,32090,0
24311,128,-8274,562,-53,46,24,-11305,3,0,-7,0,37104,281,27,79,0,0,0,0,0,0,0,0,-32314,0,0,0,4002,0,32110,0
24321,-14,-8256,588,-55,31,35,-11305,0,2,-9,0,37102,276,27,79,0,0,0,0,0,0,0,0,-32315,0,0,0,4001,0,32130,0
24331,-94,-8248,574,-50,40,31,-11301,1,5,-16,0,37100,281,27,79,0,0,0,0,0,0,0,0,-32315,0,0,0,4000,0,32150,0
24341,-26,-8252,626,-49,48,18,-11299,5,2,-18,0,37098,285,27,79,0,0,0,0,0,0,0,0,-32314,0,0,0,4001,0,32170,0
24351,52,-8254,620,-51,39,29,-11296,8,8,-15,0,37100,291,27,79,0,0,0,0,0,0,0,0,-32315,0,0,0,4001,0,32190,0
24361,36,-8282,586,-46,30,37,-11294,5,4,-20,0,37101,293,27,79,0,0,0,0,0,0,0,0,-32315,0,0,0,4002,0,32210,0
24371,-54,-8258,538,-47,27,40,-11287,14,-3,-34,0,37099,295,27,79,0,0,0,0,0,0,0,0,-32315,0,0,0,4003,0,32230,0
24381,-24,-8256,608,-48,25,48,-11278,24,14,-53,0,37099,292,27,79,0,0,0,0,0,0,0,0,-32315,0,0,0,4003,0,32250,0
24391,72,-8288,668,-51,25,52,-11263,35,14,-58,0,37101,282,27,79,0,0,0,0,0,0,0,0,-32315,0,0,0,4003,0,32270,0
24401,-24,-8302,656,-58,32,41,-11261,2,-2,-24,0,37101,284,27,79,0,0,0,0,0,0,0,0,-32314,0,0,0,4003,0,32290,0
24411,-124,-8260,626,-60,41,31,-11260,-6,-16,-11,0,37104,292,27,79,0,0,0,0,0,0,0,0,-32315,0,0,0,4004,0,32310,0
24421,-44,-8264,614,-59,49,24,-11258,-2,-7,-7,0,37112,302,27,79,0,0,0,0,0,0,0,0,-32315,0,0,0,4004,0,32330,0
24431,54,-8294,594,-58,46,22,-11258,-9,2,-6,0,37113,302,27,79,0,0,0,0,0,0,0,0,-32315,0,0,0,4004,0,32350,0
24441,10,-8268,570,-53,43,31,-11255,5,-2,-8,0,37114,292,27,79,0,0,0,0,0,0,0,0,-32315,0,0,0,4003,0,32370,0
24451,-78,-8268,608,-50,36,35,-11256,-3,-1,-10,0,37105,294,27,79,0,0,0,0,0,0,0,0,-32315,0,0,0,4005,0,32390,0
24461,-68,-8246,612,-49,43,31,-11254,0,-2,-10,0,37104,302,27,79,0,0,0,0,0,0,0,0,-32315,0,0,0,4005,0,32410,0
24471,16,-8162,620,-58,51,25,-11252,0,3,-11,0,37105,308,27,79,0,0,0,0,0,0,0,0,-32315,0,0,0,4005,0,32430,0
24481,-20,-8282,600,-54,33,26,-11249,12,-5,-8,0,37104,310,27,79,0,0,0,0,0,0,0,0,-32314,0,0,0,4005,0,32450,0
24491,-38,-8276,634,-55,42,29,-11251,-6,4,-9,0,37103,311,27,79,0,0,0,0,0,0,0,0,-32315,0,0,0,4005,0,32470,0
24501,-68,-8300,636,-58,46,24,-11249,-1,2,-9,0,37100,307,27,79,0,0,0,0,0,0,0,0,-32315,0,0,0,4006,0,32490,0
24511,-24,-8302,626,-58,41,20,-11248,6,3,-6,0,37102,306,27,79,0,0,0,0,0,0,0,0,-32314,0,0,0,4006,0,32510,0
24521,4,-8284,594,-59,41,16,-11247,0,2,-5,0,37106,307,27,79,0,0,0,0,0,0,0,0,-32315,0,0,0,4006,0,32530,0
24531,-12,-8278,588,-57,35,15,-11247,-2,-3,-6,0,37108,318,27,79,0,0,0,0,0,0,0,0,-32315,0,0,0,4006,0,32550,0
24541,-58,-8266,586,-52,38,11,-11246,-1,-3,-6,0,37108,314,27,79,0,0,0,0,0,0,0,0,-32315,0,0,0,4005,0,32570,0
24551,-10,-8270,600,-54,42,17,-11245,0,4,-1,0,37107,317,27,79,0,0,0,0,0,0,0,0,-32314,0,0,0,4005,0,32590,0
24561,-16,-8284,626,-48,38,11,-11245,0,1,-3,0,37107,316,27,79,0,0,0,0,0,0,0,0,-32315,0,0,0,4005,0,32610,0
24571,-12,-8294,618,-54,38,13,-11245,2,-2,-2,0,37107,315,27,79,0,0,0,0,0,0,0,0,-32314,0,0,0,4005,0,32630,0
24581,-36,-8288,642,-51,41,19,-11246,-9,3,-2,0,37104,315,27,79,0,0,0,0,0,0,0,0,-32315,0,0,0,4005,0,32650,0
24591,4,-8258,618,-48,40,16,-11244,0,3,-5,0,37103,308,27,79,0,0,0,0,0,0,0,0,-32315,0,0,0,4005,0,32670,0
24601,8,-8276,640,-53,44,16,-11245,0,1,-3,0,37105,308,27,79,0,0,0,0,0,0,0,0,-32315,0,0,0,4005,0,32690,0
24611,-6,-8258,598,-50,41,17,-11244,1,2,-3,0,37107,306,27,79,0,0,0,0,0,0,0,0,-32315,0,0,0,4006,0,32710,0
24621,-112,-8276,620,-54,33,25,-11243,0,3,-8,0,37105,313,27,79,0,0,0,0,0,0,0,0,-32315,0,0,0,4006,0,32730,0
24631,26,-8260,620,-52,37,26,-11242,4,-3,-13,0,37109,318,27,79,0,0,0,0,0,0,0,0,-32315,0,0,0,4006,0,32750,0
24641,-2,-8326,520,-50,39,27,-11238,16,1,-17,0,37112,318,27,79,0,0,0,0,0,0,0,0,-32315,0,0,0,4006,0,32770,0
24651,-40,-8356,606,-54,38,27,-11234,5,-2,-23,0,37115,316,27,79,0,0,0,0,0,0,0,0,-32315,0,0,0,4007,0,32795,0
24661,-10,-8282,634,-50,32,44,-11227,10,6,-39,0,37107,311,27,79,0,0,0,0,0,0,0,0,-32315,0,0,0,4007,0,32815,0
24671,6,-8238,662,-46,22,55,-11212,37,14,-76,0,37104,312,27,79,0,0,0,0,0,0,0,0,-32315,0,0,0,4009,0,32835,0
24681,240,-8300,572,-47,13,74,-11195,25,21,-80,0,37106,315,27,79,0,0,0,0,0,0,0,0,-32314,0,0,0,4010,0,32855,0
24691,-130,-8274,628,-52,30,48,-11194,-8,-26,-2,0,37109,318,27,79,0,0,0,0,0,0,0,0,-32315,0,0,0,4010,0,32875,0
24701,-290,-8276,654,-49,58,15,-11193,3,-27,-3,0,37108,327,27,79,0,0,0,0,0,0,0,0,-32315,0,0,0,4010,0,32895,0
24711,-54,-8278,630,-55,57,4,-11194,1,1,0,0,37108,331,27,79,0,0,0,0,0,0,0,0,-32315,0,0,0,4010,0,32915,0
24721,162,-8262,614,-54,34,16,-11192,0,-2,0,0,37108,331,27,79,0,0,0,0,0,0,0,0,-32315,0,0,0,4009,0,32935,0
24731,56,-8290,616,-55,34,33,-11193,-1,1,-4,0,37116,325,27,79,0,0,0,0,0,0,0,0,-32315,0,0,0,4010,0,32955,0
24741,-110,-8294,662,-60,47,30,-11193,0,0,-7,0,37126,313,27,79,0,0,0,0,0,0,0,0,-32315,0,0,0,4009,0,32976,0
24751,-64,-8252,586,-58,55,27,-11192,0,2,-5,0,37128,317,27,79,0,0,0,0,0,0,0,0,-32315,0,0,0,4010,0,32996,0
24761,70,-8274,560,-60,48,30,-11190,6,0,-4,0,37126,324,27,79,0,0,0,0,0,0,0,0,-32315,0,0,0,4010,0,33016,0
24771,38,-8270,560,-54,47,32,-11190,0,1,-7,0,37114,327,27,79,0,0,0,0,0,0,0,0,-32315,0,0,0,4010,0,33036,0
24781,-78,-8322,702,-36,38,40,-11189,-6,3,-12,0,37109,328,27,79,0,0,0,0,0,0,0,0,-32315,0,0,0,4011,0,33056,0
24791,-128,-8252,712,-49,36,27,-11186,3,1,-10,0,37112,327,27,79,0,0,0,0,0,0,0,0,-32315,0,0,0,4011,0,33076,0
24801,-36,-8330,580,-54,49,22,-11185,6,2,-5,0,37113,325,27,79,0,0,0,0,0,0,0,0,-32315,0,0,0,4010,0,33096,0
24811,-50,-8286,598,-49,47,20,-11184,4,-6,-4,0,37115,325,27,79,0,0,0,0,0,0,0,0,-32315,0,0,0,4011,0,33116,0
24821,-56,-8270,616,-54,41,22,-11184,0,-3,-3,0,37114,326,27,79,0,0,0,0,0,0,0,0,-32315,0,0,0,4010,0,33136,0
24831,-56,-8280,604,-48,38,15,-11183,0,2,-3,0,37112,323,27,79,0,0,0,0,0,0,0,0,-32315,0,0,0,4010,0,33156,0
24841,-32,-8284,588,-49,37,16,-11183,0,1,-2,0,37113,336,27,79,0,0,0,0,0,0,0,0,-32314,0,0,0,4010,0,33176,0
24851,-50,-8252,580,-52,42,13,-11184,-2,-3,0,0,37115,332,27,79,0,0,0,0,0,0,0,0,-32315,0,0,0,4012,0,33196,0
24861,-52,-8282,594,-51,37,16,-11182,0,3,-2,0,37118,334,27,79,0,0,0,0,0,0,0,0,-32314,0,0,0,4012,0,33216,0
24871,-36,-8284,598,-49,36,13,-11183,3,-3,-1,0,37115,331,27,79,0,0,0,0,0,0,0,0,-32315,0,0,0,4011,0,33236,0
24881,-36,-8268,610,-50,40,16,-11183,0,1,-1,0,37113,329,27,79,0,0,0,0,0,0,0,0,-32315,0,0,0,4012,0,33256,0
24891,-52,-8300,598,-48,42,12,-11184,-8,-3,-1,0,37111,317,27,79,0,0,0,0,0,0,0,0,-32315,0,0,0,4010,0,33276,0
24901,-48,-8256,624,-50,42,13,-11184,4,-3,0,0,37111,321,27,79,0,0,0,0,0,0,0,0,-32315,0,0,0,4012,0,33296,0
24911,-46,-8264,612,-47,43,12,-11182,7,8,0,0,37112,321,27,79,0,0,0,0,0,0,0,0,-32315,0,0,0,4010,0,33316,0
24921,-28,-8290,618,-51,43,8,-11184,0,0,0,0,37111,327,27,79,0,0,0,0,0,0,0,0,-32315,0,0,0,4011,0,33336,0
24931,-54,-8268,612,-49,37,12,-11184,-8,-1,-3,0,37108,324,27,79,0,0,0,0,0,0,0,0,-32315,0,0,0,4010,0,33356,0
24941,-30,-8252,592,-51,41,12,-11183,5,-1,0,0,37113,323,27,79,0,0,0,0,0,0,0,0,-32316,0,0,0,4010,0,33376,0
24951,-26,-8270,604,-47,36,10,-11183,-2,5,0,0,37116,320,27,79,0,0,0,0,0,0,0,0,-32315,0,0,0,4012,0,33396,0
24961,-40,-8270,596,-53,45,13,-11183,-2,-1,-1,0,37116,321,27,79,0,0,0,0,0,0,0,0,-32315,0,0,0,4010,0,33416,0
24971,-24,-8272,616,-51,38,13,-11184,4,-3,-1,0,37109,324,27,79,0,0,0,0,0,0,0,0,-32315,0,0,0,4010,0,33436,0
24981,-24,-8274,640,-49,37,11,-11183,-3,1,-3,0,37106,331,27,79,0,0,0,0,0,0,0,0,-32315,0,0,0,4011,0,33456,0
24991,-28,-8288,614,-46,40,16,-11183,2,0,1,0,37107,333,27,79,0,0,0,0,0,0,0,0,-32315,0,0,0,4010,0,33476,0
25001,-38,-8278,612,-51,43,15,-11183,3,-1,1,0,37109,329,27,79,0,0,0,0,0,0,0,0,-32315,0,0,0,4010,0,33496,0
25011,-38,-8286,608,-46,43,14,-11182,3,3,0,0,37111,329,27,79,0,0,0,0,0,0,0,0,-32315,0,0,0,4010,0,33516,0
25021,-6,-8282,624,-50,39,9,-11183,1,3,-1,0,37110,323,27,79,0,0,0,0,0,0,0,0,-32315,0,0,0,4010,0,33536,0
25031,-36,-8290,598,-44,40,14,-11182,1,3,0,0,37109,320,27,79,0,0,0,0,0,0,0,0,-32315,0,0,0,4011,0,33556,0
25041,-36,-8258,598,-53,34,9,-11182,4,-1,0,0,37112,322,27,79,0,0,0,0,0,0,0,0,-32315,0,0,0,4011,0,33576,0
25051,-30,-8274,576,-47,36,8,-11183,2,5,0,0,37111,327,27,79,0,0,0,0,0,0,0,0,-32315,0,0,0,4011,0,33596,0
25061,-34,-8288,626,-50,38,11,-11183,5,2,0,0,37110,327,27,79,0,0,0,0,0,0,0,0,-32314,0,0,0,4010,0,33616,0
25071,-58,-8274,614,-49,39,11,-11184,0,0,-1,0,37107,329,27,79,0,0,0,0,0,0,0,0,-32314,0,0,0,4011,0,33636,0
25081,-32,-8288,624,-50,41,10,-11183,-1,3,0,0,37103,322,27,79,0,0,0,0,0,0,0,0,-32315,0,0,0,4010,0,33656,0
25091,-4,-8276,630,-53,36,16,-11183,4,2,0,0,37104,321,27,79,0,0,0,0,0,0,0,0,-32315,0,0,0,4010,0,33676,0
25101,-18,-8272,608,-54,42,12,-11183,-4,4,0,0,37107,314,27,79,0,0,0,0,0,0,0,0,-32315,0,0,0,4010,0,33696,0
25111,0,-8298,612,-54,41,14,-11184,-2,-4,0,0,37112,311,27,79,0,0,0,0,0,0,0,0,-32315,0,0,0,4010,0,33716,0
25121,-18,-8292,606,-49,39,21,-11183,9,4,0,0,37109,313,27,79,0,0,0,0,0,0,0,0,-32315,0,0,0,4011,0,33736,0
25131,-46,-8274,596,-51,44,23,-11183,3,6,-2,0,37105,323,27,79,0,0,0,0,0,0,0,0,-32315,0,0,0,4011,0,33756,0
25141,-16,-8310,598,-54,41,23,-11183,3,-2,-2,0,37105,322,27,79,0,0,0,0,0,0,0,0,-32314,0,0,0,4010,0,33776,0
25151,-42,-8288,624,-49,38,23,-11183,-3,0,0,0,37109,325,27,79,0,0,0,0,0,0,0,0,-32315,0,0,0,4010,0,33797,0
25161,-32,-8252,614,-52,38,18,-11182,0,1,2,0,37111,329,27,79,0,0,0,0,0,0,0,0,-32315,0,0,0,4010,0,33816,0
25171,-38,-8306,600,-49,47,15,-11183,0,-3,0,0,37110,341,27,79,0,0,0,0,0,0,0,0,-32315,0,0,0,4012,0,33836,0
25181,-20,-8296,610,-58,40,23,-11185,-7,-3,0,0,37105,342,27,79,0,0,0,0,0,0,0,0,-32315,0,0,0,4012,0,33856,0
25191,-36,-8294,606,-54,43,19,-11183,5,-4,0,0,37102,342,27,79,0,0,0,0,0,0,0,0,-32314,0,0,0,4011,0,33876,0
25201,-64,-8282,616,-48,40,16,-11182,0,-3,-1,0,37102,334,27,79,0,0,0,0,0,0,0,0,-32315,0,0,0,4012,0,33896,0
25211,-38,-8294,614,-54,46,16,-11183,5,-3,0,0,37099,330,27,79,0,0,0,0,0,0,0,0,-32315,0,0,0,4011,0,33916,0
25221,-10,-8262,616,-56,45,14,-11183,11,-3,0,0,37095,323,27,79,0,0,0,0,0,0,0,0,-32315,0,0,0,4011,0,33936,0
25231,-30,-8302,610,-56,44,17,-11183,-7,-5,-1,0,37094,318,27,79,0,0,0,0,0,0,0,0,-32314,0,0,0,4012,0,33956,0
25241,-30,-8276,608,-55,40,21,-11182,5,1,-1,0,37097,315,27,79,0,0,0,0,0,0,0,0,-32315,0,0,0,4012,0,33976,0
25251,-46,-8276,602,-55,42,18,-11182,0,-3,0,0,37104,317,27,79,0,0,0,0,0,0,0,0,-32315,0,0,0,4010,0,33996,0
25261,-44,-8278,590,-50,43,18,-11183,-1,0,0,0,37102,324,27,79,0,0,0,0,0,0,0,0,-32315,0,0,0,4010,0,34016,0
25271,-18,-8264,602,-51,40,15,-11183,-4,2,0,0,37099,328,27,79,0,0,0,0,0,0,0,0,-32314,0,0,0,4011,0,34036,0
25281,-44,-8254,606,-53,41,13,-11182,1,-1,0,0,37099,327,27,79,0,0,0,0,0,0,0,0,-32315,0,0,0,4010,0,34056,0
25291,-44,-8294,596,-52,44,14,-11182,-2,1,-1,0,37099,327,27,79,0,0,0,0,0,0,0,0,-32315,0,0,0,4012,0,34076,0
25301,-44,-8250,626,-51,38,19,-11182,0,-2,1,0,37100,329,27,79,0,0,0,0,0,0,0,0,-32315,0,0,0,4011,0,34097,0
25311,-28,-8268,614,-49,43,14,-11182,5,-1,0,0,37100,333,27,79,0,0,0,0,0,0,0,0,-32315,0,0,0,4012,0,34117,0
25321,-26,-8264,622,-57,37,12,-11182,3,1,0,0,37098,326,27,79,0,0,0,0,0,0,0,0,-32314,0,0,0,4012,0,34137,0
25331,16,-8282,602,-55,39,17,-11184,-11,3,-1,0,37098,328,27,79,0,0,0,0,0,0,0,0,-32315,0,0,0,4010,0,34157,0
25341,-52,-8300,604,-53,39,21,-11184,-6,-1,0,0,37097,331,27,79,0,0,0,0,0,0,0,0,-32315,0,0,0,4012,0,34177,0
25351,6,-8282,616,-53,42,19,-11182,-3,-3,0,0,37098,333,27,79,0,0,0,0,0,0,0,0,-32315,0,0,0,4011,0,34197,0
25361,-36,-8256,624,-53,37,17,-11182,0,-4,-1,0,37104,332,27,79,0,0,0,0,0,0,0,0,-32315,0,0,0,4011,0,34217,0
25371,-26,-8288,604,-54,41,24,-11181,9,1,-2,0,37105,326,27,79,0,0,0,0,0,0,0,0,-32315,0,0,0,4011,0,34237,0
25381,-32,-8280,610,-52,42,25,-11181,0,1,-3,0,37105,332,27,79,0,0,0,0,0,0,0,0,-32314,0,0,0,4012,0,34258,0
25391,-22,-8248,618,-55,41,22,-11180,8,0,-4,0,37097,325,27,79,0,0,0,0,0,0,0,0,-32315,0,0,0,4012,0,34278,0
25401,-50,-8260,632,-53,46,22,-11180,10,-3,-3,0,37097,327,27,79,0,0,0,0,0,0,0,0,-32315,0,0,0,4010,0,34298,0
25411,-48,-8246,618,-57,43,20,-11180,3,1,-4,0,37095,319,27,79,0,0,0,0,0,0,0,0,-32315,0,0,0,4011,0,34318,0
25421,-30,-8280,592,-55,40,19,-11181,-3,2,-4,0,37097,324,27,79,0,0,0,0,0,0,0,0,-32315,0,0,0,4012,0,34338,0
25431,66,-8264,590,-54,51,16,-11180,-3,3,-8,0,37095,325,27,79,0,0,0,0,0,0,0,0,-32315,0,0,0,4012,0,34358,0
25441,-36,-8252,634,-53,43,23,-11177,2,1,-8,0,37097,320,27,79,0,0,0,0,0,0,0,0,-32315,0,0,0,4012,0,34378,0
25451,-44,-8296,478,-58,38,22,-11174,5,4,-9,0,37098,311,27,79,0,0,0,0,0,0,0,0,-32315,0,0,0,4012,0,34398,0
25461,-28,-8194,610,-53,42,26,-11173,4,-2,-11,0,37105,312,27,79,0,0,0,0,0,0,0,0,-32315,0,0,0,4013,0,34418,0
25471,-100,-8248,612,-49,33,27,-11171,7,2,-13,0,37106,313,27,79,0,0,0,0,0,0,0,0,-32315,0,0,0,4012,0,34438,0
25481,-40,-8308,588,-55,38,24,-11168,6,5,-15,0,37104,320,27,79,0,0,0,0,0,0,0,0,-32315,0,0,0,4012,0,34459,0
25491,-40,-8274,586,-52,36,27,-11166,3,-3,-20,0,37099,328,27,79,0,0,0,0,0,0,0,0,-32314,0,0,0,4013,0,34479,0
25501,2,-8224,624,-57,41,32,-11161,15,3,-26,0,37101,327,27,79,0,0,0,0,0,0,0,0,-32315,0,0,0,4013,0,34499,0
25511,-22,-8256,636,-50,33,36,-11155,13,6,-30,0,37102,328,27,79,0,0,0,0,0,0,0,0,-32315,0,0,0,4013,0,34519,0
25521,-16,-8290,606,-56,32,41,-11149,10,5,-32,0,37102,320,27,79,0,0,0,0,0,0,0,0,-32315,0,0,0,4013,0,34539,0
25531,-12,-8222,620,-57,37,40,-11145,6,1,-24,0,37103,306,27,79,0,0,0,0,0,0,0,0,-32315,0,0,0,4014,0,34559,0
25541,-110,-8314,596,-58,45,30,-11143,6,-10,-10,0,37104,312,27,79,0,0,0,0,0,0,0,0,-32315,0,0,0,4014,0,34579,0
25551,-84,-8292,616,-59,46,23,-11140,4,-13,-7,0,37104,311,27,79,0,0,0,0,0,0,0,0,-32315,0,0,0,4014,0,34599,0
25561,-28,-8258,588,-53,44,24,-11141,7,4,-3,0,37104,309,27,79,0,0,0,0,0,0,0,0,-32315,0,0,0,4014,0,34619,0
25571,-28,-8292,586,-53,45,28,-11140,11,1,-4,0,37105,308,27,79,0,0,0,0,0,0,0,0,-32315,0,0,0,4014,0,34639,0
25581,-92,-8260,626,-50,35,28,-11139,9,-1,-6,0,37106,307,27,79,0,0,0,0,0,0,0,0,-32315,0,0,0,4014,0,34659,0
25591,-60,-8244,606,-51,44,22,-11141,-6,-1,-5,0,37105,302,27,79,0,0,0,0,0,0,0,0,-32315,0,0,0,4015,0,34679,0
25601,-40,-8292,584,-54,44,19,-11140,3,-2,-2,0,37105,309,27,79,0,0,0,0,0,0,0,0,-32315,0,0,0,4014,0,34699,0
25611,-54,-8256,592,-52,42,17,-11140,-2,-4,-1,0,37106,304,27,79,0,0,0,0,0,0,0,0,-32314,0,0,0,4014,0,34719,0
25621,-34,-8282,608,-56,40,19,-11139,8,-5,-3,0,37106,310,27,79,0,0,0,0,0,0,0,0,-32315,0,0,0,4015,0,34739,0
25631,-30,-8262,606,-48,45,19,-11139,0,-1,-2,0,37103,308,27,79,0,0,0,0,0,0,0,0,-32315,0,0,0,4014,0,34759,0
25641,-58,-8282,616,-56,44,18,-11139,0,-5,-1,0,37104,306,27,79,0,0,0,0,0,0,0,0,-32315,0,0,0,4015,0,34779,0
25651,-36,-8280,588,-52,41,16,-11139,-5,-3,-1,0,37106,312,27,79,0,0,0,0,0,0,0,0,-32315,0,0,0,4015,0,34799,0
25661,-44,-8274,588,-55,42,19,-11138,2,3,0,0,37109,315,27,79,0,0,0,0,0,0,0,0,-32315,0,0,0,4015,0,34820,0
25671,-46,-8264,580,-53,41,17,-11139,-7,-1,-4,0,37112,314,27,79,0,0,0,0,0,0,0,0,-32315,0,0,0,4014,0,34840,0
25681,-62,-8248,614,-51,38,18,-11138,-3,0,-2,0,37112,316,27,79,0,0,0,0,0,0,0,0,-32315,0,0,0,4015,0,34860,0
25691,-56,-8282,600,-54,40,16,-11138,4,3,0,0,37113,323,27,79,0,0,0,0,0,0,0,0,-32315,0,0,0,4015,0,34880,0
25701,-52,-8264,586,-53,42,13,-11139,0,6,0,0,37113,316,27,79,0,0,0,0,0,0,0,0,-32315,0,0,0,4014,0,34900,0
25711,-48,-8260,610,-48,36,13,-11138,2,-1,0,0,37106,312,27,79,0,0,0,0,0,0,0,0,-32315,0,0,0,4014,0,34920,0
25721,-20,-8254,592,-45,40,12,-11139,-11,1,0,0,37105,314,27,79,0,0,0,0,0,0,0,0,-32314,0,0,0,4014,0,34940,0
25731,-34,-8268,600,-50,41,10,-11138,5,4,0,0,37105,319,27,79,0,0,0,0,0,0,0,0,-32315,0,0,0,4014,0,34960,0
25741,-42,-8284,602,-50,41,10,-11137,5,-1,0,0,37108,313,27,79,0,0,0,0,0,0,0,0,-32315,0,0,0,4014,0,34981,0
25751,-44,-8268,606,-50,35,14,-11138,-7,-2,0,0,37110,306,27,79,0,0,0,0,0,0,0,0,-32315,0,0,0,4015,0,35001,0
25761,-14,-8292,596,-50,40,19,-11137,0,-5,0,0,37110,305,27,79,0,0,0,0,0,0,0,0,-32315,0,0,0,4015,0,35021,0
25771,-32,-8296,604,-54,38,15,-11137,1,2,1,0,37112,318,27,79,0,0,0,0,0,0,0,0,-32315,0,0,0,4015,0,35041,0
25781,-38,-8270,594,-49,36,18,-11137,5,-1,-2,0,37115,318,27,79,0,0,0,0,0,0,0,0,-32315,0,0,0,4014,0,35061,0
25791,-62,-8282,584,-52,45,18,-11138,3,-2,0,0,37117,319,27,79,0,0,0,0,0,0,0,0,-32315,0,0,0,4015,0,35081,0
25801,-18,-8268,608,-48,39,19,-11139,-2,2,1,0,37118,326,27,79,0,0,0,0,0,0,0,0,-32315,0,0,0,4015,0,35101,0
25811,-62,-8274,590,-49,41,14,-11138,-2,3,-1,0,37114,313,27,79,0,0,0,0,0,0,0,0,-32315,0,0,0,4015,0,35121,0
25821,-60,-8282,596,-54,43,18,-11138,2,8,0,0,37112,310,27,79,0,0,0,0,0,0,0,0,-32315,0,0,0,4015,0,35141,0
25831,-38,-8288,604,-53,46,16,-11138,3,-2,-2,0,37113,300,27,79,0,0,0,0,0,0,0,0,-32314,0,0,0,4015,0,35161,0
25841,-44,-8272,600,-52,40,14,-11137,5,3,0,0,37114,299,27,79,0,0,0,0,0,0,0,0,-32315,0,0,0,4015,0,35181,0
25851,-52,-8292,586,-55,38,14,-11139,1,2,0,0,37116,297,27,79,0,0,0,0,0,0,0,0,-32315,0,0,0,4015,0,35201,0
25861,-40,-8264,616,-53,36,12,-11138,-1,-1,0,0,37116,300,27,79,0,0,0,0,0,0,0,0,-32315,0,0,0,4015,0,35221,0
25871,-46,-8268,580,-52,39,13,-11138,0,-2,-2,0,37118,308,27,79,0,0,0,0,0,0,0,0,-32315,0,0,0,4014,0,35241,0
25881,-12,-8308,610,-51,44,12,-11138,-6,-1,0,0,37121,310,27,79,0,0,0,0,0,0,0,0,-32315,0,0,0,4014,0,35261,0
25891,-50,-8270,602,-47,38,10,-11136,12,1,-2,0,37119,306,27,79,0,0,0,0,0,0,0,0,-32315,0,0,0,4014,0,35281,0
25901,-50,-8276,602,-48,40,11,-11139,-6,-4,0,0,37119,309,27,79,0,0,0,0,0,0,0,0,-32315,0,0,0,4015,0,35302,0
25911,-46,-8266,596,-50,38,14,-11137,-4,1,0,0,37115,316,27,79,0,0,0,0,0,0,0,0,-32315,0,0,0,4014,0,35322,0
25921,-30,-8250,596,-49,36,11,-11138,-6,-1,0,0,37112,314,27,79,0,0,0,0,0,0,0,0,-32315,0,0,0,4014,0,35342,0
25931,-56,-8246,592,-47,42,12,-11139,-8,-4,0,0,37111,321,27,79,0,0,0,0,0,0,0,0,-32315,0,0,0,4015,0,35362,0
25941,-10,-8264,608,-47,37,8,-11137,0,2,-1,0,37108,318,27,79,0,0,0,0,0,0,0,0,-32316,0,0,0,4015,0,35382,0
25951,-66,-8278,600,-51,40,13,-11137,0,2,1,0,37106,320,27,79,0,0,0,0,0,0,0,0,-32315,0,0,0,4015,0,35402,0
25961,-34,-8256,610,-47,38,11,-11139,0,-4,1,0,37106,315,27,79,0,0,0,0,0,0,0,0,-32314,0,0,0,4015,0,35422,0
25971,-12,-8280,600,-49,36,16,-11138,0,1,0,0,37107,306,27,79,0,0,0,0,0,0,0,0,-32315,0,0,0,4015,0,35442,0
25981,-46,-8292,600,-54,42,14,-11139,-3,-3,1,0,37107,311,27,79,0,0,0,0,0,0,0,0,-32315,0,0,0,4015,0,35462,0
25991,-48,-8260,608,-47,37,14,-11139,-5,-3,0,0,37106,312,27,79,0,0,0,0,0,0,0,0,-32315,0,0,0,4015,0,35482,0
26001,-26,-8286,602,-55,42,11,-11137,9,-2,0,0,37107,322,27,79,0,0,0,0,0,0,0,0,-32315,0,0,0,4015,0,35502,0
26011,-46,-8278,604,-52,38,11,-11138,0,-2,1,0,37108,319,27,79,0,0,0,0,0,0,0,0,-32315,0,0,0,4015,0,35522,0
26021,-44,-8294,600,-48,36,15,-11137,7,0,0,0,37119,319,27,79,0,0,0,0,0,0,0,0,-32315,0,0,0,4014,0,35542,0
26031,-26,-8270,604,-48,43,14,-11137,-5,1,0,0,37127,313,27,79,0,0,0,0,0,0,0,0,-32315,0,0,0,4014,0,35562,0
26041,-36,-8290,598,-50,38,14,-11136,3,0,-1,0,37131,311,27,79,0,0,0,0,0,0,0,0,-32315,0,0,0,4016,0,35582,0
26051,-46,-8286,604,-49,41,17,-11137,-5,3,0,0,37123,308,27,79,0,0,0,0,0,0,0,0,-32315,0,0,0,4014,0,35602,0
26061,-52,-8300,596,-52,40,16,-11138,2,1,2,0,37112,310,27,79,0,0,0,0,0,0,0,0,-32315,0,0,0,4014,0,35622,0
26071,-32,-8286,614,-52,41,13,-11137,1,4,0,0,37104,313,27,79,0,0,0,0,0,0,0,0,-32315,0,0,0,4014,0,35642,0
26081,-26,-8262,586,-49,43,16,-11138,-7,0,-1,0,37103,316,27,79,0,0,0,0,0,0,0,0,-32314,0,0,0,4014,0,35662,0
26091,-60,-8280,582,-51,42,18,-11138,-3,0,0,0,37108,306,27,79,0,0,0,0,0,0,0,0,-32315,0,0,0,4014,0,35682,0
26101,-56,-8276,600,-52,37,15,-11139,-4,-2,0,0,37110,305,27,79,0,0,0,0,0,0,0,0,-32315,0,0,0,4015,0,35702,0
26111,-26,-8290,608,-51,37,18,-11138,9,0,0,0,37110,305,27,79,0,0,0,0,0,0,0,0,-32315,0,0,0,4014,0,35722,0
26121,-44,-8274,610,-55,36,14,-11138,-11,3,0,0,37102,304,27,79,0,0,0,0,0,0,0,0,-32315,0,0,0,4014,0,35742,0
26131,-18,-8282,610,-53,36,12,-11138,-2,-3,0,0,37102,311,27,79,0,0,0,0,0,0,0,0,-32315,0,0,0,4014,0,35762,0
26141,-54,-8260,608,-49,39,18,-11138,-5,5,0,0,37101,310,27,79,0,0,0,0,0,0,0,0,-32315,0,0,0,4015,0,35782,0
26151,-48,-8300,594,-50,40,13,-11137,5,-1,1,0,37101,318,27,79,0,0,0,0,0,0,0,0,-32315,0,0,0,4015,0,35802,0
26161,-58,-8296,610,-52,39,16,-11137,1,-3,0,0,37101,318,27,79,0,0,0,0,0,0,0,0,-32314,0,0,0,4014,0,35822,0
26171,-24,-8286,600,-54,38,13,-11136,-1,2,-2,0,37098,312,27,79,0,0,0,0,0,0,0,0,-32315,0,0,0,4015,0,35842,0
26181,-40,-8306,600,-48,42,15,-11138,0,0,-1,0,37098,309,27,79,0,0,0,0,0,0,0,0,-32315,0,0,0,4014,0,35862,0
26191,-26,-8260,608,-44,48,17,-11137,0,1,2,0,37099,303,27,79,0,0,0,0,0,0,0,0,-32315,0,0,0,4015,0,35883,0
26201,-22,-8256,600,-57,37,19,-11138,0,-1,0,0,37102,306,27,79,0,0,0,0,0,0,0,0,-32315,0,0,0,4015,0,35903,0
26211,-54,-8278,610,-53,43,17,-11138,0,-6,0,0,37103,312,27,79,0,0,0,0,0,0,0,0,-32315,0,0,0,4014,0,35924,0
26221,-52,-8304,590,-54,37,13,-11138,1,1,0,0,37102,317,27,79,0,0,0,0,0,0,0,0,-32315,0,0,0,4014,0,35944,0
26231,-62,-8268,598,-52,38,11,-11137,5,1,0,0,37098,307,27,79,0,0,0,0,0,0,0,0,-32315,0,0,0,4015,0,35964,0
26241,-40,-8280,616,-52,41,16,-11137,0,0,-1,0,37099,310,27,79,0,0,0,0,0,0,0,0,-32315,0,0,0,4015,0,35985,0
26251,-42,-8290,594,-56,41,13,-11137,2,3,0,0,37101,305,27,79,0,0,0,0,0,0,0,0,-32314,0,0,0,4016,0,36005,0
26261,-36,-8288,602,-54,39,20,-11138,3,-2,0,0,37100,307,27,79,0,0,0,0,0,0,0,0,-32315,0,0,0,4015,0,36025,0
26271,-28,-8298,588,-51,38,18,-11139,-12,3,0,0,37097,307,27,79,0,0,0,0,0,0,0,0,-32314,0,0,0,4015,0,36045,0
26281,-38,-8262,612,-56,41,21,-11136,5,-2,0,0,37096,310,27,79,0,0,0,0,0,0,0,0,-32315,0,0,0,4016,0,36065,0
26291,-46,-8284,610,-56,38,18,-11138,1,1,0,0,37097,316,27,79,0,0,0,0,0,0,0,0,-32315,0,0,0,4015,0,36085,0
26301,-42,-8262,600,-51,40,19,-11137,5,1,0,0,37099,316,27,79,0,0,0,0,0,0,0,0,-32315,0,0,0,4015,0,36105,0
26311,-40,-8276,610,-54,38,20,-11138,0,1,0,0,37104,310,27,79,0,0,0,0,0,0,0,0,-32315,0,0,0,4015,0,36125,0
26321,-28,-8274,598,-57,40,19,-11137,-5,-2,0,0,37103,310,27,79,0,0,0,0,0,0,0,0,-32315,0,0,0,4015,0,36145,0
26331,-58,-8266,594,-54,42,14,-11137,6,-2,0,0,37101,307,27,79,0,0,0,0,0,0,0,0,-32315,0,0,0,4015,0,36165,0
26341,-34,-8282,608,-51,41,18,-11138,0,0,0,0,37096,301,27,79,0,0,0,0,0,0,0,0,-32315,0,0,0,4014,0,36185,0
26351,-32,-8266,602,-51,44,18,-11138,-7,-3,0,0,37097,306,27,79,0,0,0,0,0,0,0,0,-32315,0,0,0,4015,0,36205,0
26361,-50,-8276,594,-53,41,21,-11137,-8,-4,0,0,37098,304,27,79,0,0,0,0,0,0,0,0,-32315,0,0,0,4015,0,36225,0
26371,-42,-8288,594,-56,40,14,-11138,-8,-2,0,0,37096,309,27,79,0,0,0,0,0,0,0,0,-32314,0,0,0,4014,0,36245,0
26381,-50,-8300,584,-53,38,16,-11136,5,-4,-1,0,37095,305,27,79,0,0,0,0,0,0,0,0,-32315,0,0,0,4015,0,36265,0
26391,-54,-8248,604,-55,39,10,-11135,12,3,0,0,37095,308,27,79,0,0,0,0,0,0,0,0,-32315,0,0,0,4014,0,36285,0
26401,-50,-8306,582,-59,40,14,-11136,5,-2,2,0,37096,304,27,79,0,0,0,0,0,0,0,0,-32315,0,0,0,4015,0,36305,0
26411,-30,-8276,600,-55,38,13,-11137,-4,-3,0,0,37102,316,27,79,0,0,0,0,0,0,0,0,-32315,0,0,0,4014,0,36325,0
26421,-20,-8272,610,-52,40,11,-11138,0,-1,0,0,37104,315,27,79,0,0,0,0,0,0,0,0,-32315,0,0,0,4015,0,36345,0
26431,-54,-8296,584,-52,43,13,-11138,1,-1,0,0,37105,319,27,79,0,0,0,0,0,0,0,0,-32315,0,0,0,4015,0,36365,0
26441,-36,-8260,618,-56,44,13,-11137,2,0,-1,0,37102,320,27,79,0,0,0,0,0,0,0,0,-32315,0,0,0,4016,0,36385,0
26451,-24,-8256,602,-58,37,16,-11138,-4,-2,0,0,37098,307,27,79,0,0,0,0,0,0,0,0,-32315,0,0,0,4015,0,36405,0
26461,-26,-8322,590,-53,42,17,-11137,-1,-1,0,0,37098,312,27,79,0,0,0,0,0,0,0,0,-32315,0,0,0,4015,0,36425,0
26471,-46,-8282,578,-52,43,16,-11138,-3,4,0,0,37098,307,27,79,0,0,0,0,0,0,0,0,-32315,0,0,0,4015,0,36445,0
26481,-44,-8254,632,-52,39,20,-11139,-8,-3,-1,0,37099,308,27,79,0,0,0,0,0,0,0,0,-32315,0,0,0,4014,0,36465,0
26491,-30,-8304,610,-52,40,22,-11138,0,7,2,0,37100,303,27,79,0,0,0,0,0,0,0,0,-32315,0,0,0,4015,0,36485,0
26501,-40,-8254,592,-54,43,15,-11136,9,3,0,0,37101,306,27,79,0,0,0,0,0,0,0,0,-32315,0,0,0,4014,0,36505,0
26511,-50,-8272,604,-51,45,20,-11137,-1,1,-2,0,37101,312,27,79,0,0,0,0,0,0,0,0,-32315,0,0,0,4015,0,36525,0
26521,-18,-8280,628,-53,38,18,-11137,2,3,0,0,37108,314,27,79,0,0,0,0,0,0,0,0,-32315,0,0,0,4015,0,36545,0
26531,-34,-8282,578,-57,43,15,-11137,2,0,0,0,37110,305,27,79,0,0,0,0,0,0,0,0,-32315,0,0,0,4015,0,36565,0
26541,-70,-8252,594,-55,45,14,-11136,0,2,0,0,37110,298,27,79,0,0,0,0,0,0,0,0,-32315,0,0,0,4015,0,36585,0
26551,-20,-8286,598,-58,42,18,-11137,0,1,0,0,37103,295,27,79,0,0,0,0,0,0,0,0,-32315,0,0,0,4016,0,36605,0
26561,-54,-8306,594,-57,44,15,-11138,-4,2,0,0,37107,293,27,79,0,0,0,0,0,0,0,0,-32315,0,0,0,4015,0,36625,0
26571,-20,-8262,582,-54,38,20,-11135,2,-7,0,0,37111,302,27,79,0,0,0,0,0,0,0,0,-32315,0,0,0,4015,0,36645,0
26581,-50,-8280,580,-56,44,17,-11137,1,5,0,0,37110,302,27,79,0,0,0,0,0,0,0,0,-32315,0,0,0,4015,0,36665,0
26591,-26,-8276,616,-53,42,16,-11138,0,5,0,0,37107,302,27,79,0,0,0,0,0,0,0,0,-32314,0,0,0,4015,0,36685,0
26601,-64,-8256,588,-55,36,16,-11138,-7,3,0,0,37107,298,27,79,0,0,0,0,0,0,0,0,-32315,0,0,0,4014,0,36705,0
26611,-22,-8278,592,-58,42,19,-11137,1,3,0,0,37108,313,27,79,0,0,0,0,0,0,0,0,-32315,0,0,0,4015,0,36725,0
26621,-58,-8270,600,-53,40,14,-11136,-1,2,1,0,37113,317,27,79,0,0,0,0,0,0,0,0,-32315,0,0,0,4015,0,36745,0
26631,-56,-8292,594,-52,41,15,-11137,-4,2,0,0,37107,327,27,79,0,0,0,0,0,0,0,0,-32315,0,0,0,4014,0,36765,0
26641,-52,-8282,600,-49,43,13,-11136,-5,-2,0,0,37104,311,27,79,0,0,0,0,0,0,0,0,-32315,0,0,0,4014,0,36785,0
26651,-54,-8300,600,-55,40,15,-11136,3,3,0,0,37105,310,27,79,0,0,0,0,0,0,0,0,-32315,0,0,0,4014,0,36805,0
26661,-46,-8268,588,-53,38,17,-11135,2,3,0,0,37104,309,27,79,0,0,0,0,0,0,0,0,-32315,0,0,0,4016,0,36825,0
26671,-54,-8246,590,-51,38,12,-11136,3,7,0,0,37102,309,27,79,0,0,0,0,0,0,0,0,-32315,0,0,0,4015,0,36845,0
26681,-54,-8304,598,-54,44,14,-11135,9,3,0,0,37099,309,27,79,0,0,0,0,0,0,0,0,-32315,0,0,0,4014,0,36865,0
26691,-38,-8254,578,-53,42,14,-11136,7,-2,0,0,37102,305,27,79,0,0,0,0,0,0,0,0,-32315,0,0,0,4014,0,36885,0
26701,-72,-8268,608,-57,41,14,-11136,0,-4,0,0,37106,306,27,79,0,0,0,0,0,0,0,0,-32314,0,0,0,4015,0,36905,0
26711,-16,-8274,608,-50,41,18,-11137,-4,4,0,0,37104,301,27,79,0,0,0,0,0,0,0,0,-32314,0,0,0,4015,0,36925,0
26721,-26,-8270,600,-56,39,18,-11134,8,0,0,0,37104,306,27,79,0,0,0,0,0,0,0,0,-32315,0,0,0,4015,0,36945,0
26731,-30,-8276,594,-50,38,15,-11134,3,-6,0,0,37113,302,27,79,0,0,0,0,0,0,0,0,-32314,0,0,0,4015,0,36965,0
26741,-46,-8308,592,-51,41,15,-11137,-6,0,0,0,37114,309,27,79,0,0,0,0,0,0,0,0,-32315,0,0,0,4014,0,36986,0
26751,-34,-8286,584,-50,39,14,-11136,-2,-3,1,0,37115,304,27,79,0,0,0,0,0,0,0,0,-32315,0,0,0,4015,0,37006,0
26761,-52,-8272,608,-53,40,15,-11137,-1,1,1,0,37107,312,27,79,0,0,0,0,0,0,0,0,-32315,0,0,0,4015,0,37026,0
26771,-36,-8262,602,-56,38,20,-11136,0,1,0,0,37107,305,27,79,0,0,0,0,0,0,0,0,-32315,0,0,0,4015,0,37046,0
26781,-44,-8276,584,-52,39,22,-11134,3,-1,-2,0,37109,308,27,79,0,0,0,0,0,0,0,0,-32314,0,0,0,4016,0,37066,0
26791,-56,-8292,604,-54,41,19,-11136,-4,-2,-1,0,37108,308,27,79,0,0,0,0,0,0,0,0,-32315,0,0,0,4015,0,37086,0
26801,-46,-8248,598,-51,39,18,-11135,0,-2,-1,0,37108,315,27,79,0,0,0,0,0,0,0,0,-32314,0,0,0,4014,0,37106,0
26811,-66,-8234,596,-51,40,19,-11136,-5,-1,-2,0,37108,314,27,79,0,0,0,0,0,0,0,0,-32314,0,0,0,4014,0,37126,0
26821,-46,-8284,592,-53,37,16,-11136,-4,-1,0,0,37111,315,27,79,0,0,0,0,0,0,0,0,-32314,0,0,0,4014,0,37147,0
26831,-60,-8298,596,-53,42,17,-11135,-1,-2,-1,0,37121,316,27,79,0,0,0,0,0,0,0,0,-32315,0,0,0,4016,0,37167,0
26841,-84,-8272,608,-51,38,12,-11135,-1,-5,0,0,37121,310,27,79,0,0,0,0,0,0,0,0,-32314,0,0,0,4016,0,37187,0
26851,-54,-8272,622,-54,39,12,-11135,-3,1,0,0,37119,305,27,79,0,0,0,0,0,0,0,0,-32315,0,0,0,4015,0,37207,0
26861,-36,-8298,578,-53,40,13,-11135,-1,0,0,0,37110,301,27,79,0,0,0,0,0,0,0,0,-32314,0,0,0,4014,0,37227,0
26871,-44,-8298,594,-57,38,13,-11136,-8,-6,0,0,37109,308,27,79,0,0,0,0,0,0,0,0,-32314,0,0,0,4015,0,37247,0
26881,-42,-8250,594,-55,39,19,-11135,0,-1,0,0,37109,307,27,79,0,0,0,0,0,0,0,0,-32315,0,0,0,4015,0,37267,0
26891,-38,-8284,600,-59,42,14,-11134,-1,0,-1,0,37109,303,27,79,0,0,0,0,0,0,0,0,-32315,0,0,0,4015,0,37287,0
26901,-26,-8272,592,-51,44,16,-11136,4,-2,-1,0,37110,304,27,79,0,0,0,0,0,0,0,0,-32315,0,0,0,4015,0,37308,0
26911,-60,-8282,602,-52,41,17,-11136,-2,-1,0,0,37111,310,27,79,0,0,0,0,0,0,0,0,-32315,0,0,0,4015,0,37328,0
26921,-24,-8304,584,-54,34,23,-11135,-2,-2,0,0,37110,314,27,79,0,0,0,0,0,0,0,0,-32315,0,0,0,4015,0,37348,0
26931,-18,-8268,566,-56,43,19,-11134,-1,1,-1,0,37114,309,27,79,0,0,0,0,0,0,0,0,-32315,0,0,0,4015,0,37368,0
26941,-62,-8274,588,-49,45,18,-11136,-7,-6,0,0,37113,307,27,79,0,0,0,0,0,0,0,0,-32315,0,0,0,4015,0,37388,0
26951,-62,-8290,598,-50,39,12,-11134,5,2,0,0,37116,310,27,79,0,0,0,0,0,0,0,0,-32315,0,0,0,4016,0,37408,0
26961,-36,-8254,602,-53,38,15,-11134,-4,-3,0,0,37112,320,27,79,0,0,0,0,0,0,0,0,-32314,0,0,0,4015,0,37428,0
26971,-66,-8264,608,-58,41,17,-11134,-6,0,-1,0,37108,317,27,79,0,0,0,0,0,0,0,0,-32314,0,0,0,4015,0,37448,0
26981,-46,-8292,594,-57,36,15,-11133,-6,4,-2,0,37106,307,27,79,0,0,0,0,0,0,0,0,-32315,0,0,0,4015,0,37468,0
26991,-36,-8288,590,-54,44,11,-11134,4,-1,0,0,37105,311,27,79,0,0,0,0,0,0,0,0,-32315,0,0,0,4015,0,37488,0
27001,-52,-8254,602,-59,40,13,-11133,0,8,0,0,37104,310,27,79,0,0,0,0,0,0,0,0,-32315,0,0,0,4015,0,37508,0
27011,-30,-8286,590,-51,38,18,-11133,2,-2,0,0,37102,310,27,79,0,0,0,0,0,0,0,0,-32315,0,0,0,4016,0,37529,0
27021,-32,-8304,596,-57,36,18,-11134,-9,1,-1,0,37104,308,27,79,0,0,0,0,0,0,0,0,-32314,0,0,0,4016,0,37549,0
27031,-50,-8288,570,-51,44,16,-11134,4,-7,0,0,37107,305,27,79,0,0,0,0,0,0,0,0,-32315,0,0,0,4014,0,37569,0
27041,-48,-8306,556,-52,39,17,-11133,5,3,0,0,37109,291,27,79,0,0,0,0,0,0,0,0,-32314,0,0,0,4015,0,37590,0
27051,-30,-8280,584,-53,39,19,-11132,5,4,0,0,37106,298,27,79,0,0,0,0,0,0,0,0,-32315,0,0,0,4016,0,37610,0
27061,-58,-8270,596,-53,38,16,-11133,-2,1,-1,0,37107,292,27,79,0,0,0,0,0,0,0,0,-32314,0,0,0,4015,0,37630,0
27071,-66,-8282,598,-54,42,16,-11133,-3,-3,0,0,37106,295,27,79,0,0,0,0,0,0,0,0,-32315,0,0,0,4015,0,37650,0
27081,-56,-8270,604,-51,38,11,-11133,-2,0,-2,0,37105,303,27,79,0,0,0,0,0,0,0,0,-32314,0,0,0,4015,0,37670,0
27091,-64,-8300,578,-53,38,12,-11133,-4,-6,0,0,37104,307,27,79,0,0,0,0,0,0,0,0,-32315,0,0,0,4014,0,37690,0
27101,-44,-8276,592,-50,46,15,-11133,4,-1,0,0,37102,314,27,79,0,0,0,0,0,0,0,0,-32315,0,0,0,4015,0,37710,0
27111,-42,-8288,562,-53,41,9,-11135,-11,-1,0,0,37102,313,27,79,0,0,0,0,0,0,0,0,-32315,0,0,0,4016,0,37730,0
27121,-56,-8266,584,-49,35,12,-11133,2,-2,0,0,37103,305,27,79,0,0,0,0,0,0,0,0,-32315,0,0,0,4015,0,37750,0
27131,-26,-8276,572,-48,39,7,-11133,0,2,1,0,37100,301,27,79,0,0,0,0,0,0,0,0,-32315,0,0,0,4016,0,37770,0
27141,-12,-8270,604,-51,39,15,-11132,1,-3,-1,0,37100,300,27,79,0,0,0,0,0,0,0,0,-32314,0,0,0,4016,0,37790,0
27151,-20,-8288,616,-57,39,10,-11134,-3,0,1,0,37108,301,27,79,0,0,0,0,0,0,0,0,-32315,0,0,0,4015,0,37810,0
27161,-68,-8296,596,-51,43,13,-11132,0,-5,0,0,37108,308,27,79,0,0,0,0,0,0,0,0,-32315,0,0,0,4015,0,37830,0
27171,-40,-8272,580,-54,39,20,-11134,-4,0,1,0,37108,313,27,79,0,0,0,0,0,0,0,0,-32315,0,0,0,4016,0,37850,0
27181,-12,-8264,594,-52,49,15,-11133,1,-6,-1,0,37097,310,27,79,0,0,0,0,0,0,0,0,-32314,0,0,0,4016,0,37870,0
27191,-60,-8294,588,-46,39,18,-11134,-5,0,0,0,37096,304,27,79,0,0,0,0,0,0,0,0,-32315,0,0,0,4015,0,37890,0
27201,-30,-8298,594,-60,41,15,-11133,-9,-1,0,0,37098,297,27,79,0,0,0,0,0,0,0,0,-32315,0,0,0,4015,0,37910,0
27211,-42,-8274,602,-49,42,15,-11135,-5,4,0,0,37100,302,27,79,0,0,0,0,0,0,0,0,-32315,0,0,0,4017,0,37930,0
27221,-52,-8310,590,-53,40,18,-11134,-5,-3,0,0,37100,303,27,79,0,0,0,0,0,0,0,0,-32314,0,0,0,4017,0,37950,0
27231,-56,-8266,612,-54,36,18,-11132,2,3,-2,0,37096,299,27,79,0,0,0,0,0,0,0,0,-32315,0,0,0,4015,0,37970,0
27241,-60,-8294,602,-53,40,14,-11134,-1,-1,0,0,37096,297,27,79,0,0,0,0,0,0,0,0,-32315,0,0,0,4015,0,37990,0
27251,-56,-8270,618,-49,40,13,-11133,5,2,2,0,37101,301,27,79,0,0,0,0,0,0,0,0,-32315,0,0,0,4015,0,38010,0
27261,-42,-8270,596,-54,42,10,-11133,1,2,0,0,37106,290,27,79,0,0,0,0,0,0,0,0,-32315,0,0,0,4015,0,38030,0
27271,-48,-8268,582,-47,37,14,-11133,0,-1,0,0,37105,293,27,79,0,0,0,0,0,0,0,0,-32314,0,0,0,4015,0,38050,0
27281,-38,-8292,582,-52,42,15,-11132,1,0,0,0,37104,288,27,79,0,0,0,0,0,0,0,0,-32315,0,0,0,4017,0,38070,0
27291,-64,-8270,576,-48,41,9,-11133,0,0,0,0,37103,298,27,79,0,0,0,0,0,0,0,0,-32314,0,0,0,4016,0,38090,0
27301,-24,-8296,596,-51,41,14,-11134,-1,2,2,0,37115,308,27,79,0,0,0,0,0,0,0,0,-32315,0,0,0,4016,0,38110,0
27311,-38,-8294,580,-51,36,13,-11134,0,5,0,0,37114,310,27,79,0,0,0,0,0,0,0,0,-32315,0,0,0,4015,0,38130,0
27321,-56,-8284,588,-47,47,15,-11133,3,-3,-1,0,37113,318,27,79,0,0,0,0,0,0,0,0,-32314,0,0,0,4017,0,38150,0
27331,-50,-8294,602,-54,36,18,-11135,-7,3,0,0,37104,309,27,79,0,0,0,0,0,0,0,0,-32314,0,0,0,4015,0,38170,0
27341,-52,-8278,588,-51,40,14,-11132,1,-6,0,0,37096,306,27,79,0,0,0,0,0,0,0,0,-32315,0,0,0,4015,0,38190,0
27351,-28,-8290,588,-52,44,16,-11134,2,-1,2,0,37095,311,27,79,0,0,0,0,0,0,0,0,-32314,0,0,0,4016,0,38210,0
27361,-36,-8254,596,-50,41,15,-11133,7,3,1,0,37099,295,27,79,0,0,0,0,0,0,0,0,-32314,0,0,0,4016,0,38230,0
27371,-48,-8276,570,-50,40,12,-11133,0,0,0,0,37100,297,27,79,0,0,0,0,0,0,0,0,-32315,0,0,0,4017,0,38250,0
27381,-56,-8292,590,-47,37,11,-11132,3,-5,-1,0,37099,297,27,79,0,0,0,0,0,0,0,0,-32315,0,0,0,4016,0,38270,0
27391,-54,-8292,570,-52,43,15,-11135,0,-2,-1,0,37094,308,27,79,0,0,0,0,0,0,0,0,-32314,0,0,0,4015,0,38290,0
27401,-30,-8262,568,-51,44,17,-11132,3,-4,1,0,37096,319,27,79,0,0,0,0,0,0,0,0,-32315,0,0,0,4015,0,38310,0
27411,-40,-8298,594,-46,40,17,-11134,-13,-3,0,0,37098,316,27,79,0,0,0,0,0,0,0,0,-32315,0,0,0,4015,0,38330,0
27421,-32,-8282,618,-52,44,11,-11133,3,1,0,0,37097,316,27,79,0,0,0,0,0,0,0,0,-32315,0,0,0,4016,0,38350,0
27431,-26,-8252,594,-49,36,16,-11134,-6,-1,0,0,37095,310,27,79,0,0,0,0,0,0,0,0,-32314,0,0,0,4015,0,38370,0
27441,-48,-8258,584,-50,36,12,-11134,0,0,0,0,37095,313,27,79,0,0,0,0,0,0,0,0,-32315,0,0,0,4016,0,38390,0
27451,-66,-8284,586,-49,42,17,-11134,3,-1,3,0,37099,303,27,79,0,0,0,0,0,0,0,0,-32315,0,0,0,4014,0,38410,0
27461,-44,-8286,608,-51,38,18,-11131,5,-2,1,0,37102,300,27,79,0,0,0,0,0,0,0,0,-32315,0,0,0,4016,0,38430,0
27471,-54,-8284,588,-51,37,13,-11133,6,-2,0,0,37103,306,27,79,0,0,0,0,0,0,0,0,-32315,0,0,0,4016,0,38450,0
27481,-42,-8282,600,-54,38,12,-11133,5,2,0,0,37102,306,27,79,0,0,0,0,0,0,0,0,-32314,0,0,0,4016,0,38470,0
27491,-30,-8274,600,-51,43,15,-11134,0,-3,0,0,37099,303,27,79,0,0,0,0,0,0,0,0,-32315,0,0,0,4016,0,38491,0
27501,-52,-8280,576,-52,40,18,-11132,5,1,-2,0,37099,297,27,79,0,0,0,0,0,0,0,0,-32315,0,0,0,4017,0,38511,0
27511,-30,-8256,590,-53,40,13,-11132,2,2,-1,0,37098,307,27,79,0,0,0,0,0,0,0,0,-32315,0,0,0,4016,0,38531,0
27521,-42,-8274,600,-53,39,21,-11134,-3,-3,1,0,37098,303,27,79,0,0,0,0,0,0,0,0,-32314,0,0,0,4015,0,38551,0
27531,-54,-8274,610,-55,39,14,-11133,-1,3,0,0,37100,304,27,79,0,0,0,0,0,0,0,0,-32315,0,0,0,4015,0,38571,0
27541,-46,-8304,570,-49,42,17,-11133,-7,-3,0,0,37104,301,27,79,0,0,0,0,0,0,0,0,-32315,0,0,0,4017,0,38591,0
27551,-72,-8288,594,-48,40,10,-11133,0,-3,0,0,37105,305,27,79,0,0,0,0,0,0,0,0,-32315,0,0,0,4015,0,38611,0
27561,-44,-8288,590,-52,45,16,-11133,1,-2,-1,0,37105,307,27,79,0,0,0,0,0,0,0,0,-32315,0,0,0,4017,0,38631,0
27571,-54,-8268,570,-50,39,12,-11133,3,-2,0,0,37104,312,27,79,0,0,0,0,0,0,0,0,-32315,0,0,0,4015,0,38651,0
27581,-38,-8242,592,-47,41,10,-11134,-1,11,0,0,37107,307,27,79,0,0,0,0,0,0,0,0,-32315,0,0,0,4016,0,38671,0
27591,-66,-8278,598,-48,43,16,-11132,0,-1,0,0,37106,311,27,79,0,0,0,0,0,0,0,0,-32314,0,0,0,4016,0,38691,0
27601,-46,-8292,596,-48,43,15,-11133,-7,1,1,0,37104,308,27,79,0,0,0,0,0,0,0,0,-32315,0,0,0,4017,0,38711,0
27611,-44,-8282,590,-51,41,11,-11132,0,-2,0,0,37103,311,27,79,0,0,0,0,0,0,0,0,-32315,0,0,0,4015,0,38731,0
27621,-40,-8246,594,-51,41,12,-11135,-3,3,0,0,37104,312,27,79,0,0,0,0,0,0,0,0,-32314,0,0,0,4016,0,38751,0
27631,-42,-8288,578,-50,39,17,-11134,-1,4,0,0,37103,304,27,79,0,0,0,0,0,0,0,0,-32315,0,0,0,4015,0,38771,0
27641,-62,-8296,618,-51,37,17,-11134,-1,0,0,0,37103,310,27,79,0,0,0,0,0,0,0,0,-32315,0,0,0,4015,0,38791,0
27651,-50,-8286,594,-51,42,15,-11133,2,7,0,0,37101,307,27,79,0,0,0,0,0,0,0,0,-32315,0,0,0,4016,0,38811,0
27661,-34,-8284,598,-54,39,18,-11133,-4,2,0,0,37106,313,27,79,0,0,0,0,0,0,0,0,-32315,0,0,0,4015,0,38831,0
