state_time,accelx,accely,accelz,gyrox,gyroy,gyroz,mot_ang,mot_vel,mot_acc,mot_cur,mot_volt,batt_volt,batt_curr,temperature,status_mn,status_ex,status_re,genvar_0,genvar_1,genvar_2,genvar_3,genvar_4,genvar_5,genvar_6,genvar_7,genvar_8,genvar_9,ank_ang,ank_vel,sys_time,event flags
18402,-360,-8290,542,-56,47,16,9876,3,-1,0,0,37556,317,26,79,0,0,0,0,0,0,0,0,-32317,0,0,0,4128,0,6788,0
18412,-344,-8310,532,-52,39,15,9877,0,1,0,0,37549,318,26,79,0,0,0,0,0,0,0,0,-32316,0,0,0,4128,0,18422,0
18422,-376,-8276,544,-56,40,18,9876,1,2,5,0,37544,326,26,79,0,0,0,0,0,0,0,0,-32317,0,0,0,4129,0,18442,0
18432,-358,-8280,532,-52,45,14,9878,3,-6,1,0,37533,328,26,79,0,0,0,0,0,0,0,0,-32316,0,0,0,4128,0,18462,0
18442,-346,-8300,528,-51,36,15,9876,2,0,0,0,37530,334,26,79,0,0,0,0,0,0,0,0,-32317,0,0,0,4128,0,18482,0
18452,-330,-8282,524,-54,38,19,9876,0,-3,0,0,37528,326,26,79,0,0,0,0,0,0,0,0,-32316,0,0,0,4129,0,18503,0
18462,-340,-8292,540,-48,38,10,9875,0,0,0,0,37529,333,26,79,0,0,0,0,0,0,0,0,-32316,0,0,0,4129,0,18522,0
18472,-332,-8260,546,-54,36,15,9876,-6,3,0,0,37531,331,26,79,0,0,0,0,0,0,0,0,-32316,0,0,0,4128,0,18544,0
18482,-334,-8266,564,-51,41,14,9875,-9,-6,-1,0,37531,336,26,79,0,0,0,0,0,0,0,0,-32317,0,0,0,4129,0,18564,0
18492,-344,-8286,528,-53,43,15,9876,1,0,2,0,37528,334,26,79,0,0,0,0,0,0,0,0,-32317,0,0,0,4128,0,18584,0
18502,-320,-8278,530,-53,42,14,9876,7,1,0,0,37523,335,26,79,0,0,0,0,0,0,0,0,-32316,0,0,0,4128,0,18606,0
18512,-354,-8264,524,-56,38,17,9877,0,-4,0,0,37523,329,26,79,0,0,0,0,0,0,0,0,-32317,0,0,0,4128,0,18627,0
18522,-334,-8282,520,-57,44,13,9877,7,-3,1,0,37525,327,26,79,0,0,0,0,0,0,0,0,-32317,0,0,0,4129,0,18647,0
18532,-350,-8272,540,-49,43,17,9875,-1,2,-1,0,37532,329,26,79,0,0,0,0,0,0,0,0,-32316,0,0,0,4129,0,18667,0
18542,-352,-8256,530,-52,38,12,9876,-2,-3,0,0,37530,324,26,79,0,0,0,0,0,0,0,0,-32316,0,0,0,4129,0,18687,0
18552,-342,-8278,534,-48,41,17,9877,0,0,-1,0,37532,323,26,79,0,0,0,0,0,0,0,0,-32317,0,0,0,4130,0,18707,0
18562,-330,-8248,522,-51,45,14,9875,-4,-2,0,0,37527,332,26,79,0,0,0,0,0,0,0,0,-32317,0,0,0,4129,0,18727,0
18572,-378,-8258,538,-51,44,16,9876,3,4,0,0,37528,328,26,79,0,0,0,0,0,0,0,0,-32317,0,0,0,4129,0,18747,0
18582,-378,-8258,536,-55,36,11,9875,-5,-4,-1,0,37523,321,26,79,0,0,0,0,0,0,0,0,-32317,0,0,0,4128,0,18767,0
18592,-382,-8282,558,-50,40,9,9876,-2,2,0,0,37523,324,26,79,0,0,0,0,0,0,0,0,-32316,0,0,0,4129,0,18787,0
18602,-346,-8274,550,-54,40,9,9876,2,-1,0,0,37526,328,26,79,0,0,0,0,0,0,0,0,-32317,0,0,0,4129,0,18807,0
18612,-320,-8284,522,-48,37,8,9876,-2,-1,0,0,37530,332,26,79,0,0,0,0,0,0,0,0,-32317,0,0,0,4129,0,18827,0
18622,-322,-8270,506,-49,36,9,9876,0,2,0,0,37527,331,26,79,0,0,0,0,0,0,0,0,-32316,0,0,0,4129,0,18847,0
18632,-324,-8254,522,-42,38,9,9876,6,-1,-3,0,37532,326,26,79,0,0,0,0,0,0,0,0,-32316,0,0,0,4129,0,18867,0
18642,-340,-8276,536,-43,39,9,9875,2,1,0,0,37532,327,26,79,0,0,0,0,0,0,0,0,-32316,0,0,0,4129,0,18887,0
18652,-338,-8282,558,-49,42,12,9875,0,1,0,0,37535,337,26,79,0,0,0,0,0,0,0,0,-32317,0,0,0,4128,0,18907,0
18662,-300,-8268,586,-52,41,15,9875,-4,-5,0,0,37529,344,26,79,0,0,0,0,0,0,0,0,-32317,0,0,0,4129,0,18927,0
18672,-352,-8306,544,-54,39,15,9876,-5,-1,-1,0,37527,340,26,79,0,0,0,0,0,0,0,0,-32316,0,0,0,4129,0,18947,0
18682,-334,-8274,538,-55,44,15,9875,1,3,-1,0,37527,328,26,79,0,0,0,0,0,0,0,0,-32317,0,0,0,4128,0,18967,0
18692,-342,-8286,534,-59,45,20,9876,4,0,0,0,37529,323,26,79,0,0,0,0,0,0,0,0,-32316,0,0,0,4128,0,18987,0
18702,-342,-8252,494,-58,41,20,9876,4,-3,0,0,37530,331,26,79,0,0,0,0,0,0,0,0,-32316,0,0,0,4129,0,19007,0
18712,-348,-8278,502,-47,37,23,9876,1,-2,0,0,37528,326,26,79,0,0,0,0,0,0,0,0,-32316,0,0,0,4129,0,19027,0
18722,-344,-8268,540,-51,41,23,9876,4,2,0,0,37527,319,26,79,0,0,0,0,0,0,0,0,-32317,0,0,0,4130,0,19047,0
18732,-336,-8254,542,-49,40,21,9876,0,1,-2,0,37529,312,26,79,0,0,0,0,0,0,0,0,-32317,0,0,0,4129,0,19067,0
18742,-350,-8314,530,-53,41,25,9876,-1,-3,0,0,37536,328,26,79,0,0,0,0,0,0,0,0,-32317,0,0,0,4129,0,19087,0
18752,-378,-8280,554,-50,44,17,9876,0,0,-1,0,37536,334,26,79,0,0,0,0,0,0,0,0,-32317,0,0,0,4130,0,19107,0
18762,-382,-8268,566,-46,40,15,9876,-2,-6,1,0,37535,340,26,79,0,0,0,0,0,0,0,0,-32317,0,0,0,4129,0,19127,0
18772,-358,-8296,510,-49,46,14,9876,1,0,0,0,37529,329,26,79,0,0,0,0,0,0,0,0,-32317,0,0,0,4129,0,19147,0
18782,-346,-8296,518,-53,42,13,9875,-4,5,-1,0,37530,330,26,79,0,0,0,0,0,0,0,0,-32316,0,0,0,4129,0,19167,0
18792,-356,-8260,500,-47,44,13,9877,10,-3,-1,0,37532,330,26,79,0,0,0,0,0,0,0,0,-32316,0,0,0,4129,0,19187,0
18802,-354,-8310,500,-47,41,8,9874,-4,-1,0,0,37532,327,26,79,0,0,0,0,0,0,0,0,-32316,0,0,0,4129,0,19207,0
18812,-344,-8268,546,-45,42,10,9876,0,1,0,0,37534,332,26,79,0,0,0,0,0,0,0,0,-32316,0,0,0,4129,0,19227,0
18822,-340,-8278,536,-45,39,12,9875,0,4,0,0,37533,335,26,79,0,0,0,0,0,0,0,0,-32316,0,0,0,4129,0,19247,0
18832,-350,-8296,542,-47,43,6,9877,4,1,-1,0,37534,337,26,79,0,0,0,0,0,0,0,0,-32316,0,0,0,4130,0,19267,0
18842,-360,-8280,544,-50,38,11,9877,1,2,2,0,37537,329,26,79,0,0,0,0,0,0,0,0,-32317,0,0,0,4129,0,19287,0
18852,-364,-8314,560,-49,39,6,9876,-3,-2,0,0,37537,328,26,79,0,0,0,0,0,0,0,0,-32316,0,0,0,4129,0,19307,0
18862,-322,-8284,538,-45,44,9,9876,-1,2,0,0,37539,331,26,79,0,0,0,0,0,0,0,0,-32317,0,0,0,4129,0,19327,0
18872,-338,-8276,528,-45,44,17,9877,-2,-4,-2,0,37534,334,26,79,0,0,0,0,0,0,0,0,-32317,0,0,0,4129,0,19347,0
18882,-326,-8270,546,-47,37,8,9877,1,3,0,0,37531,332,26,79,0,0,0,0,0,0,0,0,-32316,0,0,0,4129,0,19367,0
18892,-336,-8282,538,-48,39,13,9877,3,5,1,0,37532,328,26,79,0,0,0,0,0,0,0,0,-32317,0,0,0,4128,0,19387,0
18902,-328,-8292,520,-56,42,11,9877,5,1,0,0,37534,338,26,79,0,0,0,0,0,0,0,0,-32317,0,0,0,4130,0,19407,0
18912,-336,-8250,546,-48,44,16,9877,5,3,0,0,37536,337,26,79,0,0,0,0,0,0,0,0,-32317,0,0,0,4129,0,19426,0
18922,-336,-8314,538,-48,38,19,9875,-5,-2,0,0,37534,339,26,79,0,0,0,0,0,0,0,0,-32316,0,0,0,4129,0,19446,0
18932,-324,-8288,560,-47,43,18,9877,-2,2,0,0,37533,332,26,79,0,0,0,0,0,0,0,0,-32316,0,0,0,4129,0,19464,0
18942,-356,-8278,560,-49,44,16,9876,0,2,0,0,37539,334,26,79,0,0,0,0,0,0,0,0,-32316,0,0,0,4129,0,19484,0
18952,-332,-8296,540,-47,43,19,9877,3,4,-1,0,37539,340,26,79,0,0,0,0,0,0,0,0,-32317,0,0,0,4129,0,19504,0
18962,-330,-8258,526,-50,46,18,9874,-5,-4,0,0,37538,342,26,79,0,0,0,0,0,0,0,0,-32316,0,0,0,4129,0,19524,0
18972,-344,-8242,526,-42,41,13,9877,5,5,-1,0,37534,339,26,79,0,0,0,0,0,0,0,0,-32317,0,0,0,4129,0,19544,0
18982,-342,-8286,532,-51,40,13,9877,0,5,0,0,37533,333,26,79,0,0,0,0,0,0,0,0,-32317,0,0,0,4129,0,19564,0
18992,-330,-8264,520,-42,39,10,9876,0,1,0,0,37533,335,26,79,0,0,0,0,0,0,0,0,-32316,0,0,0,4129,0,19584,0
19002,-344,-8266,552,-51,42,16,9877,1,-1,-1,0,37531,340,26,79,0,0,0,0,0,0,0,0,-32317,0,0,0,4129,0,19604,0
19012,-360,-8296,554,-46,38,12,9876,3,-1,0,0,37527,339,26,79,0,0,0,0,0,0,0,0,-32316,0,0,0,4129,0,19624,0
19022,-350,-8250,530,-47,38,14,9877,0,6,0,0,37527,334,26,79,0,0,0,0,0,0,0,0,-32317,0,0,0,4128,0,19644,0
19032,-372,-8278,548,-52,43,10,9876,0,5,0,0,37526,330,26,79,0,0,0,0,0,0,0,0,-32316,0,0,0,4129,0,19664,0
19042,-358,-8268,544,-48,43,14,9876,3,1,1,0,37528,333,26,79,0,0,0,0,0,0,0,0,-32316,0,0,0,4128,0,19684,0
19052,-326,-8292,532,-42,43,10,9876,-3,-3,0,0,37532,348,26,79,0,0,0,0,0,0,0,0,-32317,0,0,0,4128,0,19704,0
19062,-328,-8278,550,-47,42,15,9875,0,-2,0,0,37535,345,26,79,0,0,0,0,0,0,0,0,-32317,0,0,0,4129,0,19724,0
19072,-318,-8294,536,-53,35,13,9875,-1,-1,1,0,37533,342,26,79,0,0,0,0,0,0,0,0,-32317,0,0,0,4128,0,19744,0
19082,-354,-8288,548,-50,40,19,9875,-1,-2,0,0,37527,330,26,79,0,0,0,0,0,0,0,0,-32316,0,0,0,4129,0,19764,0
19092,-338,-8282,544,-53,35,20,9876,-2,0,0,0,37526,332,26,79,0,0,0,0,0,0,0,0,-32317,0,0,0,4129,0,19784,0
19102,-334,-8266,530,-52,43,17,9876,-2,1,0,0,37528,329,26,79,0,0,0,0,0,0,0,0,-32316,0,0,0,4128,0,19804,0
19112,-350,-8316,546,-50,43,17,9876,-3,2,0,0,37530,328,26,79,0,0,0,0,0,0,0,0,-32316,0,0,0,4127,0,19824,0
19122,-346,-8272,544,-53,44,15,9877,8,-2,0,0,37529,328,26,79,0,0,0,0,0,0,0,0,-32317,0,0,0,4129,0,19844,0
19132,-344,-8256,528,-56,43,14,9876,1,4,-1,0,37528,329,26,79,0,0,0,0,0,0,0,0,-32316,0,0,0,4129,0,19864,0
19142,-326,-8380,546,-51,40,13,9874,-6,-3,1,0,37529,322,26,79,0,0,0,0,0,0,0,0,-32316,0,0,0,4129,0,19884,0
19152,-368,-8152,730,-49,40,23,9876,8,-2,-1,0,37533,323,25,79,0,0,0,0,0,0,0,0,-32316,0,0,0,4129,0,19904,0
19162,-392,-8036,472,-69,53,23,9876,2,-1,0,0,37540,320,25,79,0,0,0,0,0,0,0,0,-32316,0,0,0,4128,0,19924,0
19172,-330,-8292,144,-42,48,7,9876,3,1,0,0,37534,318,26,79,0,0,0,0,0,0,0,0,-32317,0,0,0,4128,0,19944,0
19182,-392,-8118,166,-12,26,23,9876,2,6,-2,0,37531,315,26,79,0,0,0,0,0,0,0,0,-32316,0,0,0,4128,0,19964,0
19192,-480,-8356,468,15,22,11,9876,-1,0,1,0,37527,325,26,79,0,0,0,0,0,0,0,0,-32316,0,0,0,4128,0,19984,0
19202,-482,-8356,644,0,19,-9,9876,0,-5,0,0,37530,324,26,79,0,0,0,0,0,0,0,0,-32316,0,0,0,4128,0,20004,0
19212,-436,-8382,784,-17,23,-24,9876,-1,4,-1,0,37529,327,26,79,0,0,0,0,0,0,0,0,-32317,0,0,0,4129,0,20024,0
19222,-420,-8344,762,-31,34,-25,9876,0,-2,1,0,37523,333,26,79,0,0,0,0,0,0,0,0,-32317,0,0,0,4128,0,20044,0
19232,-252,-8272,778,-43,30,-46,9875,-1,-2,-1,0,37518,335,26,79,0,0,0,0,0,0,0,0,-32317,0,0,0,4128,0,20064,0
19242,-300,-8272,622,-55,41,-32,9877,-1,-1,2,0,37520,338,26,79,0,0,0,0,0,0,0,0,-32317,0,0,0,4126,0,20084,0
19252,-194,-8234,480,-70,32,-5,9876,0,0,-1,0,37523,329,26,79,0,0,0,0,0,0,0,0,-32316,0,0,0,4126,0,20104,0
19262,-196,-8332,448,-49,37,4,9877,5,-1,2,0,37528,333,26,79,0,0,0,0,0,0,0,0,-32316,0,0,0,4126,0,20124,0
19272,-182,-8230,510,-39,38,16,9875,-5,0,0,0,37526,336,26,79,0,0,0,0,0,0,0,0,-32317,0,0,0,4126,0,20144,0
19282,-168,-8182,616,-46,42,46,9876,6,5,0,0,37526,339,26,79,0,0,0,0,0,0,0,0,-32317,0,0,0,4127,0,20164,0
19292,-230,-8388,762,-69,49,60,9877,11,2,0,0,37521,333,26,79,0,0,0,0,0,0,0,0,-32317,0,0,0,4126,0,20184,0
19302,-232,-8302,820,-81,55,68,9875,-7,-1,0,0,37522,327,25,79,0,0,0,0,0,0,0,0,-32317,0,0,0,4128,0,20204,0
19312,-308,-8202,662,-103,63,92,9877,3,0,0,0,37522,323,26,79,0,0,0,0,0,0,0,0,-32317,0,0,0,4127,0,20224,0
19322,-256,-8354,564,-109,65,96,9876,1,0,1,0,37519,323,26,79,0,0,0,0,0,0,0,0,-32316,0,0,0,4129,0,20244,0
19332,-156,-8278,472,-116,62,103,9877,2,-3,-1,0,37517,319,26,79,0,0,0,0,0,0,0,0,-32317,0,0,0,4129,0,20264,0
19342,-124,-8278,248,-103,59,143,9876,1,0,0,0,37517,326,26,79,0,0,0,0,0,0,0,0,-32317,0,0,0,4131,0,20284,0
19352,-76,-8212,482,-84,41,192,9876,-3,1,0,0,37518,326,26,79,0,0,0,0,0,0,0,0,-32316,0,0,0,4133,0,20304,0
19362,-146,-8258,504,-77,38,209,9875,-2,2,0,0,37520,322,26,79,0,0,0,0,0,0,0,0,-32317,0,0,0,4136,0,20324,0
19372,-308,-8222,550,-84,40,233,9875,-6,-2,0,0,37522,311,26,79,0,0,0,0,0,0,0,0,-32316,0,0,0,4140,0,20344,0
19382,-472,-8262,642,-90,36,244,9875,-5,-2,-1,0,37521,312,26,79,0,0,0,0,0,0,0,0,-32316,0,0,0,4141,0,20364,0
19392,-452,-8308,652,-96,37,216,9876,-2,0,-1,0,37522,314,26,79,0,0,0,0,0,0,0,0,-32317,0,0,0,4145,0,20384,0
19402,-648,-8298,654,-100,35,199,9877,1,1,0,0,37520,324,26,79,0,0,0,0,0,0,0,0,-32316,0,0,0,4149,0,20405,0
19412,-668,-8266,584,-123,48,164,9876,-1,1,0,256,37268,72,25,144,0,0,0,0,0,0,0,0,-32294,0,0,0,4191,0,20428,0
19422,-678,-8298,586,-133,51,111,9875,-7,1,1,0,37519,326,26,79,0,0,0,0,0,0,0,0,-32316,0,0,0,4153,0,20444,0
19432,-700,-8282,488,-121,61,53,9875,-5,1,-1,0,37519,323,26,79,0,0,0,0,0,0,0,0,-32317,0,0,0,4153,0,20464,0
19442,-638,-8272,364,-116,59,36,9876,1,3,1,0,37518,323,26,79,0,0,0,0,0,0,0,0,-32316,0,0,0,4153,0,20484,0
19452,-488,-8326,216,-88,54,12,9876,-2,2,0,0,37521,330,26,79,0,0,0,0,0,0,0,0,-32316,0,0,0,4153,0,20504,0
19462,-422,-8326,196,-63,46,4,9875,-7,-3,1,0,37519,331,26,79,0,0,0,0,0,0,0,0,-32317,0,0,0,4154,0,20524,0
19472,-420,-8196,186,-22,27,19,9876,5,3,0,0,37520,328,26,79,0,0,0,0,0,0,0,0,-32316,0,0,0,4153,0,20544,0
19482,-478,-8320,284,0,26,6,9875,-2,2,-2,0,37522,330,26,79,0,0,0,0,0,0,0,0,-32317,0,0,0,4153,0,20564,0
19492,-528,-8262,506,12,24,-7,9876,-1,5,0,0,37524,331,26,79,0,0,0,0,0,0,0,0,-32316,0,0,0,4154,0,20584,0
19502,-518,-8238,616,6,22,-14,9876,2,-1,0,0,37525,336,26,79,0,0,0,0,0,0,0,0,-32316,0,0,0,4153,0,20604,0
19512,-562,-8300,682,-12,23,-32,9875,-1,-1,-1,0,37522,328,26,79,0,0,0,0,0,0,0,0,-32316,0,0,0,4153,0,20625,0
19522,-562,-8304,764,-19,26,-52,9875,0,0,1,0,37520,324,26,79,0,0,0,0,0,0,0,0,-32316,0,0,0,4152,0,20644,0
19532,-600,-8256,690,-40,42,-77,9876,-2,-3,-2,0,37521,326,26,79,0,0,0,0,0,0,0,0,-32317,0,0,0,4151,0,20665,0
19542,-494,-8290,622,-56,53,-98,9876,3,0,-2,0,37524,330,26,79,0,0,0,0,0,0,0,0,-32317,0,0,0,4149,0,20684,0
19552,-414,-8222,490,-63,48,-113,9876,2,-2,-1,0,37523,325,26,79,0,0,0,0,0,0,0,0,-32316,0,0,0,4148,0,20705,0
19562,-330,-8248,422,-50,55,-108,9876,-3,-3,0,0,37524,321,26,79,0,0,0,0,0,0,0,0,-32317,0,0,0,4145,0,20725,0
19572,-180,-8262,322,-34,40,-70,9875,-9,-1,-1,0,37526,328,26,79,0,0,0,0,0,0,0,0,-32316,0,0,0,4145,0,20745,0
19582,-124,-8270,314,-21,34,-52,9876,-1,0,-1,0,37532,331,26,79,0,0,0,0,0,0,0,0,-32317,0,0,0,4143,0,20765,0
19592,-268,-8238,402,-9,24,-17,9876,0,-1,1,0,37528,331,26,79,0,0,0,0,0,0,0,0,-32317,0,0,0,4142,0,20785,0
19602,-304,-8250,478,2,30,8,9876,0,3,0,0,37528,331,26,79,0,0,0,0,0,0,0,0,-32317,0,0,0,4142,0,20805,0
19612,-302,-8288,618,-3,29,6,9875,-7,-3,0,0,37525,336,26,79,0,0,0,0,0,0,0,0,-32317,0,0,0,4142,0,20826,0
19622,-364,-8288,674,-16,29,11,9875,-3,4,1,0,37527,339,26,79,0,0,0,0,0,0,0,0,-32316,0,0,0,4143,0,20845,0
19632,-358,-8254,676,-33,42,26,9875,-8,-2,-2,0,37527,326,26,79,0,0,0,0,0,0,0,0,-32317,0,0,0,4142,0,20865,0
19642,-332,-8286,664,-42,41,19,9877,4,2,0,0,37526,325,26,79,0,0,0,0,0,0,0,0,-32316,0,0,0,4143,0,20885,0
19652,-320,-8292,588,-56,40,26,9875,-1,2,0,0,37528,327,26,79,0,0,0,0,0,0,0,0,-32317,0,0,0,4143,0,20906,0
19662,-340,-8242,556,-61,44,40,9876,1,-2,-1,0,37539,331,26,79,0,0,0,0,0,0,0,0,-32317,0,0,0,4142,0,20926,0
19672,-348,-8266,502,-62,44,38,9876,3,4,0,0,37541,325,26,79,0,0,0,0,0,0,0,0,-32316,0,0,0,4143,0,20945,0
19682,-358,-8320,476,-60,46,40,9876,-3,-1,0,0,37544,321,26,79,0,0,0,0,0,0,0,0,-32317,0,0,0,4143,0,20966,0
19692,-386,-8246,476,-55,43,54,9876,0,-1,0,0,37538,320,26,79,0,0,0,0,0,0,0,0,-32317,0,0,0,4143,0,20985,0
19702,-402,-8294,506,-55,43,55,9876,-3,-1,0,0,37534,324,26,79,0,0,0,0,0,0,0,0,-32317,0,0,0,4143,0,21006,0
19712,-450,-8296,536,-54,42,38,9875,-7,0,-1,0,37534,325,26,79,0,0,0,0,0,0,0,0,-32317,0,0,0,4144,0,21026,0
19722,-470,-8246,514,-50,40,39,9876,-1,1,0,0,37529,321,26,79,0,0,0,0,0,0,0,0,-32316,0,0,0,4145,0,21046,0
19732,-428,-8306,526,-53,41,36,9878,7,1,-1,0,37527,323,26,79,0,0,0,0,0,0,0,0,-32316,0,0,0,4145,0,21066,0
19742,-410,-8298,546,-46,43,22,9875,0,-1,0,0,37530,325,26,79,0,0,0,0,0,0,0,0,-32317,0,0,0,4145,0,21086,0
19752,-440,-8238,512,-47,36,18,9876,0,2,0,0,37533,330,26,79,0,0,0,0,0,0,0,0,-32316,0,0,0,4144,0,21106,0
19762,-446,-8286,476,-41,42,24,9876,0,2,0,0,37532,332,26,79,0,0,0,0,0,0,0,0,-32316,0,0,0,4145,0,21126,0
19772,-426,-8294,516,-39,32,13,9877,7,3,1,0,37529,329,26,79,0,0,0,0,0,0,0,0,-32316,0,0,0,4145,0,21146,0
19782,-400,-8262,492,-40,37,9,9876,4,3,-2,0,37528,325,26,79,0,0,0,0,0,0,0,0,-32316,0,0,0,4146,0,21166,0
19792,-408,-8268,524,-34,36,16,9876,-4,-8,-2,0,37535,328,26,79,0,0,0,0,0,0,0,0,-32317,0,0,0,4145,0,21186,0
19802,-406,-8312,550,-35,31,1,9876,0,-4,1,0,37537,329,26,79,0,0,0,0,0,0,0,0,-32316,0,0,0,4145,0,21206,0
19812,-418,-8314,578,-38,39,3,9876,0,0,-1,0,37534,328,26,79,0,0,0,0,0,0,0,0,-32317,0,0,0,4145,0,21226,0
19822,-416,-8262,562,-34,36,4,9875,-3,0,1,0,37529,327,26,79,0,0,0,0,0,0,0,0,-32317,0,0,0,4145,0,21246,0
19832,-402,-8288,540,-43,39,-3,9876,0,1,-3,0,37531,322,26,79,0,0,0,0,0,0,0,0,-32317,0,0,0,4144,0,21266,0
19842,-392,-8300,526,-39,38,-7,9876,2,1,0,0,37536,328,26,79,0,0,0,0,0,0,0,0,-32317,0,0,0,4145,0,21286,0
19852,-384,-8286,508,-41,38,0,9876,-4,2,1,0,37538,326,26,79,0,0,0,0,0,0,0,0,-32317,0,0,0,4144,0,21306,0
19862,-404,-8282,516,-38,33,-2,9876,-6,5,0,0,37539,325,26,79,0,0,0,0,0,0,0,0,-32316,0,0,0,4145,0,21326,0
19872,-370,-8284,508,-32,43,-5,9875,5,2,0,0,37540,327,26,79,0,0,0,0,0,0,0,0,-32317,0,0,0,4145,0,21346,0
19882,-388,-8280,536,-33,42,-4,9876,-4,1,0,0,37542,330,26,79,0,0,0,0,0,0,0,0,-32316,0,0,0,4143,0,21366,0
19892,-410,-8272,534,-30,42,-3,9876,2,2,1,0,37541,323,26,79,0,0,0,0,0,0,0,0,-32316,0,0,0,4143,0,21386,0
19902,-380,-8314,538,-33,41,-7,9877,7,1,0,0,37545,329,26,79,0,0,0,0,0,0,0,0,-32316,0,0,0,4143,0,21406,0
19912,-386,-8266,538,-32,39,-1,9877,3,4,0,0,37544,331,26,79,0,0,0,0,0,0,0,0,-32317,0,0,0,4144,0,21426,0
19922,-398,-8268,560,-36,39,-6,9877,0,4,1,0,37543,332,26,79,0,0,0,0,0,0,0,0,-32317,0,0,0,4143,0,21446,0
19932,-402,-8332,552,-40,40,-12,9875,1,-1,0,0,37532,329,26,79,0,0,0,0,0,0,0,0,-32316,0,0,0,4143,0,21466,0
19942,-428,-8266,572,-41,40,-13,9876,-5,1,0,0,37530,325,26,79,0,0,0,0,0,0,0,0,-32316,0,0,0,4142,0,21486,0
19952,-396,-8254,538,-42,41,-13,9876,-3,-5,1,0,37528,325,26,79,0,0,0,0,0,0,0,0,-32317,0,0,0,4142,0,21506,0
19962,-366,-8290,560,-41,43,-23,9876,3,3,0,0,37528,326,26,79,0,0,0,0,0,0,0,0,-32317,0,0,0,4142,0,21526,0
19972,-414,-8228,526,-45,40,-27,9876,0,3,0,0,37529,330,26,79,0,0,0,0,0,0,0,0,-32317,0,0,0,4140,0,21546,0
19982,-386,-8256,506,-42,42,-17,9876,-1,-2,-1,0,37530,335,26,79,0,0,0,0,0,0,0,0,-32317,0,0,0,4142,0,21566,0
19992,-336,-8290,508,-33,43,-23,9876,2,-2,-2,0,37530,339,26,79,0,0,0,0,0,0,0,0,-32316,0,0,0,4140,0,21586,0
20002,-356,-8276,522,-36,42,-26,9875,0,-2,0,0,37530,329,26,79,0,0,0,0,0,0,0,0,-32317,0,0,0,4140,0,21606,0
20012,-340,-8254,560,-32,40,-10,9876,-1,-1,0,0,37536,343,26,79,0,0,0,0,0,0,0,0,-32317,0,0,0,4137,0,21626,0
20022,-362,-8272,576,-38,37,-17,9876,-1,-5,0,0,37536,335,26,79,0,0,0,0,0,0,0,0,-32317,0,0,0,4138,0,21646,0
20032,-418,-8310,564,-37,35,-24,9875,-6,-2,0,0,37534,338,26,79,0,0,0,0,0,0,0,0,-32317,0,0,0,4137,0,21666,0
20042,-434,-8272,566,-40,37,-22,9876,6,-1,0,0,37527,328,26,79,0,0,0,0,0,0,0,0,-32317,0,0,0,4137,0,21686,0
20052,-366,-8300,554,-43,42,-32,9877,5,6,0,0,37530,332,26,79,0,0,0,0,0,0,0,0,-32317,0,0,0,4137,0,21706,0
20062,-376,-8258,570,-41,40,-38,9875,-3,-3,0,0,37531,335,26,79,0,0,0,0,0,0,0,0,-32317,0,0,0,4136,0,21726,0
20072,-372,-8276,556,-39,37,-29,9876,-7,1,0,0,37531,333,26,79,0,0,0,0,0,0,0,0,-32316,0,0,0,4135,0,21746,0
20082,-316,-8286,562,-41,37,-28,9876,0,0,-1,0,37528,333,26,79,0,0,0,0,0,0,0,0,-32317,0,0,0,4135,0,21766,0
20092,-334,-8292,578,-51,39,-33,9876,1,2,-1,0,37527,334,26,79,0,0,0,0,0,0,0,0,-32317,0,0,0,4133,0,21786,0
20102,-342,-8254,560,-45,42,-22,9876,-2,2,0,0,37527,335,26,79,0,0,0,0,0,0,0,0,-32317,0,0,0,4132,0,21806,0
20112,-328,-8278,576,-44,46,-19,9876,1,-1,0,0,37533,326,26,79,0,0,0,0,0,0,0,0,-32317,0,0,0,4132,0,21826,0
20122,-276,-8316,582,-53,40,-12,9877,9,0,0,0,37532,325,26,79,0,0,0,0,0,0,0,0,-32317,0,0,0,4131,0,21846,0
20132,-312,-8274,550,-52,34,3,9876,4,3,0,0,37532,317,26,79,0,0,0,0,0,0,0,0,-32316,0,0,0,4131,0,21866,0
20142,-288,-8264,534,-54,42,4,9876,1,3,0,0,37525,318,26,79,0,0,0,0,0,0,0,0,-32317,0,0,0,4132,0,21886,0
20152,-272,-8294,552,-48,39,11,9877,5,6,0,0,37526,318,26,79,0,0,0,0,0,0,0,0,-32317,0,0,0,4131,0,21907,0
20162,-328,-8246,576,-51,37,13,9876,-1,0,0,0,37526,318,26,79,0,0,0,0,0,0,0,0,-32317,0,0,0,4131,0,21927,0
20172,-356,-8264,574,-55,39,27,9875,4,-2,0,0,37527,317,26,79,0,0,0,0,0,0,0,0,-32317,0,0,0,4132,0,21947,0
20182,-348,-8306,600,-63,42,20,9875,-7,3,0,0,37526,320,26,79,0,0,0,0,0,0,0,0,-32317,0,0,0,4131,0,21967,0
20192,-376,-8238,548,-62,43,17,9875,-3,-3,0,0,37523,326,26,79,0,0,0,0,0,0,0,0,-32317,0,0,0,4132,0,21987,0
20202,-362,-8260,546,-65,38,18,9877,3,3,0,0,37528,326,26,79,0,0,0,0,0,0,0,0,-32317,0,0,0,4131,0,22007,0
20212,-356,-8316,536,-59,40,17,9876,4,5,1,0,37530,326,26,79,0,0,0,0,0,0,0,0,-32316,0,0,0,4131,0,22027,0
20222,-388,-8258,542,-59,40,14,9877,7,-3,-1,0,37536,330,26,79,0,0,0,0,0,0,0,0,-32317,0,0,0,4131,0,22047,0
20232,-382,-8288,530,-53,40,10,9876,3,-1,0,0,37532,337,26,79,0,0,0,0,0,0,0,0,-32317,0,0,0,4132,0,22067,0
20242,-326,-8278,534,-54,40,13,9876,6,7,-1,0,37529,338,26,79,0,0,0,0,0,0,0,0,-32316,0,0,0,4132,0,22087,0
20252,-350,-8274,556,-56,38,12,9876,-3,-1,0,0,37523,326,26,79,0,0,0,0,0,0,0,0,-32316,0,0,0,4131,0,22107,0
20262,-336,-8254,554,-57,41,14,9876,-4,0,0,0,37525,317,26,79,0,0,0,0,0,0,0,0,-32316,0,0,0,4132,0,22127,0
20272,-350,-8280,554,-62,45,15,9876,2,-2,0,0,37525,326,26,79,0,0,0,0,0,0,0,0,-32317,0,0,0,4131,0,22147,0
20282,-356,-8282,544,-58,35,12,9876,1,-4,0,0,37522,329,26,79,0,0,0,0,0,0,0,0,-32316,0,0,0,4132,0,22167,0
20292,-340,-8278,538,-55,41,13,9876,5,-2,-1,0,37521,327,26,79,0,0,0,0,0,0,0,0,-32317,0,0,0,4131,0,22187,0
20302,-370,-8272,568,-59,38,14,9876,-3,2,0,0,37522,323,26,79,0,0,0,0,0,0,0,0,-32317,0,0,0,4131,0,22207,0
20312,-338,-8274,548,-60,41,12,9876,2,2,0,0,37522,321,26,79,0,0,0,0,0,0,0,0,-32316,0,0,0,4131,0,22227,0
20322,-372,-8278,554,-58,45,14,9876,2,5,0,0,37523,324,26,79,0,0,0,0,0,0,0,0,-32317,0,0,0,4132,0,22247,0
20332,-336,-8282,538,-55,41,11,9875,0,-3,0,0,37522,322,26,79,0,0,0,0,0,0,0,0,-32316,0,0,0,4131,0,22267,0
20342,-336,-8282,548,-57,43,6,9876,1,-3,0,0,37523,319,26,79,0,0,0,0,0,0,0,0,-32316,0,0,0,4131,0,22287,0
20352,-312,-8274,580,-62,37,17,9877,4,2,-2,0,37523,323,26,79,0,0,0,0,0,0,0,0,-32316,0,0,0,4131,0,22307,0
20362,-314,-8276,566,-58,40,18,9876,0,1,0,0,37521,318,26,79,0,0,0,0,0,0,0,0,-32316,0,0,0,4131,0,22327,0
20372,-294,-8310,544,-58,45,19,9877,6,1,-2,0,37517,321,26,79,0,0,0,0,0,0,0,0,-32316,0,0,0,4131,0,22347,0
20382,-322,-8294,548,-60,40,22,9875,-6,0,0,0,37517,320,26,79,0,0,0,0,0,0,0,0,-32317,0,0,0,4132,0,22367,0
20392,-350,-8284,546,-63,43,26,9875,-3,-1,0,0,37519,324,26,79,0,0,0,0,0,0,0,0,-32316,0,0,0,4131,0,22387,0
20402,-338,-8298,544,-60,44,28,9876,2,-2,0,0,37520,325,26,79,0,0,0,0,0,0,0,0,-32316,0,0,0,4131,0,22407,0
20412,-358,-8258,540,-60,38,31,9876,0,1,0,0,37518,324,26,79,0,0,0,0,0,0,0,0,-32316,0,0,0,4132,0,22427,0
20422,-360,-8260,538,-55,43,33,9874,1,-1,0,0,37525,317,26,79,0,0,0,0,0,0,0,0,-32316,0,0,0,4131,0,22447,0
20432,-358,-8306,528,-63,44,32,9876,-5,2,0,0,37526,319,26,79,0,0,0,0,0,0,0,0,-32316,0,0,0,4132,0,22467,0
20442,-358,-8254,560,-60,45,24,9876,-2,0,-1,0,37527,319,26,79,0,0,0,0,0,0,0,0,-32316,0,0,0,4131,0,22487,0
20452,-362,-8270,514,-63,41,25,9876,-1,3,2,0,37516,330,26,79,0,0,0,0,0,0,0,0,-32316,0,0,0,4131,0,22507,0
20462,-370,-8290,526,-59,45,24,9877,3,1,0,0,37514,327,26,79,0,0,0,0,0,0,0,0,-32316,0,0,0,4132,0,22527,0
20472,-360,-8286,512,-57,41,23,9875,-7,-4,0,0,37517,316,26,79,0,0,0,0,0,0,0,0,-32316,0,0,0,4132,0,22547,0
20482,-372,-8286,522,-53,37,24,9875,-7,-4,0,0,37519,311,26,79,0,0,0,0,0,0,0,0,-32317,0,0,0,4132,0,22567,0
20492,-368,-8292,510,-54,43,21,9875,-3,2,-1,0,37522,320,26,79,0,0,0,0,0,0,0,0,-32316,0,0,0,4133,0,22587,0
20502,-352,-8276,528,-54,43,20,9878,10,4,0,0,37522,325,26,79,0,0,0,0,0,0,0,0,-32317,0,0,0,4133,0,22607,0
20512,-382,-8294,512,-52,43,16,9875,-3,0,0,0,37522,318,26,79,0,0,0,0,0,0,0,0,-32316,0,0,0,4132,0,22627,0
20522,-362,-8284,532,-55,39,16,9877,2,-2,-1,0,37526,307,26,79,0,0,0,0,0,0,0,0,-32316,0,0,0,4133,0,22647,0
20532,-336,-8288,552,-47,43,13,9875,-3,0,-1,0,37529,313,26,79,0,0,0,0,0,0,0,0,-32317,0,0,0,4132,0,22667,0
20542,-356,-8278,532,-45,43,18,9876,0,-2,0,0,37532,321,26,79,0,0,0,0,0,0,0,0,-32316,0,0,0,4133,0,22687,0
20552,-350,-8284,560,-53,36,16,9876,0,-2,0,0,37528,325,26,79,0,0,0,0,0,0,0,0,-32316,0,0,0,4132,0,22707,0
20562,-348,-8280,534,-45,39,16,9876,-1,2,0,0,37527,325,26,79,0,0,0,0,0,0,0,0,-32316,0,0,0,4131,0,22727,0
20572,-372,-8264,530,-45,38,15,9876,-2,3,0,0,37527,328,26,79,0,0,0,0,0,0,0,0,-32316,0,0,0,4133,0,22748,0
20582,-382,-8302,542,-48,40,12,9876,1,-1,0,0,37528,329,26,79,0,0,0,0,0,0,0,0,-32316,0,0,0,4133,0,22768,0
20592,-334,-8286,534,-45,41,11,9877,5,-5,0,0,37528,328,26,79,0,0,0,0,0,0,0,0,-32316,0,0,0,4133,0,22788,0
20602,-372,-8258,534,-50,43,14,9875,-2,-2,0,0,37526,330,26,79,0,0,0,0,0,0,0,0,-32316,0,0,0,4133,0,22809,0
20612,-344,-8274,538,-45,40,10,9876,0,3,0,0,37524,339,26,79,0,0,0,0,0,0,0,0,-32316,0,0,0,4133,0,22829,0
20622,-376,-8276,550,-52,45,10,9876,0,3,-1,0,37523,342,26,79,0,0,0,0,0,0,0,0,-32316,0,0,0,4132,0,22849,0
20632,-354,-8272,532,-42,47,8,9876,-3,-1,-1,0,37526,340,26,79,0,0,0,0,0,0,0,0,-32316,0,0,0,4131,0,22869,0
20642,-320,-8278,520,-45,42,11,9877,4,-6,-1,0,37526,333,26,79,0,0,0,0,0,0,0,0,-32317,0,0,0,4133,0,22889,0
20652,-294,-8296,536,-42,44,15,9875,-5,1,0,0,37526,334,26,79,0,0,0,0,0,0,0,0,-32316,0,0,0,4133,0,22909,0
20662,-328,-8276,530,-42,42,16,9876,0,0,2,0,37525,331,26,79,0,0,0,0,0,0,0,0,-32316,0,0,0,4132,0,22929,0
20672,-366,-8270,534,-41,39,19,9875,-3,-4,0,0,37524,330,26,79,0,0,0,0,0,0,0,0,-32316,0,0,0,4132,0,22949,0
20682,-356,-8268,528,-39,38,20,9877,4,-3,-1,0,37525,330,26,79,0,0,0,0,0,0,0,0,-32316,0,0,0,4133,0,22969,0
20692,-376,-8292,566,-41,41,11,9876,-1,-2,0,0,37526,331,26,79,0,0,0,0,0,0,0,0,-32316,0,0,0,4132,0,22989,0
20702,-380,-8298,540,-43,44,10,9877,-1,-3,0,0,37528,338,26,79,0,0,0,0,0,0,0,0,-32316,0,0,0,4134,0,23009,0
20712,-348,-8276,530,-35,40,11,9877,9,5,-1,0,37531,338,26,79,0,0,0,0,0,0,0,0,-32316,0,0,0,4133,0,23029,0
20722,-340,-8284,538,-40,44,11,9876,1,0,-1,0,37529,339,26,79,0,0,0,0,0,0,0,0,-32317,0,0,0,4132,0,23049,0
20732,-364,-8250,534,-42,39,14,9876,4,3,1,0,37534,329,26,79,0,0,0,0,0,0,0,0,-32316,0,0,0,4133,0,23070,0
20742,-340,-8274,534,-42,39,12,9877,7,4,0,0,37534,337,26,79,0,0,0,0,0,0,0,0,-32316,0,0,0,4132,0,23090,0
20752,-336,-8290,544,-36,41,9,9875,0,2,0,0,37536,335,26,79,0,0,0,0,0,0,0,0,-32316,0,0,0,4133,0,23110,0
20762,-320,-8300,538,-45,44,12,9876,-2,2,0,0,37535,339,26,79,0,0,0,0,0,0,0,0,-32316,0,0,0,4133,0,23130,0
20772,-332,-8276,564,-46,44,18,9876,0,3,-1,0,37529,326,26,79,0,0,0,0,0,0,0,0,-32316,0,0,0,4132,0,23150,0
20782,-350,-8264,570,-40,46,14,9877,5,-2,-1,0,37528,325,26,79,0,0,0,0,0,0,0,0,-32316,0,0,0,4132,0,23170,0
20792,-354,-8282,536,-43,40,18,9875,0,2,-1,0,37530,322,26,79,0,0,0,0,0,0,0,0,-32316,0,0,0,4132,0,23189,0
20802,-370,-8294,548,-43,38,18,9876,-1,-3,0,0,37531,326,26,79,0,0,0,0,0,0,0,0,-32316,0,0,0,4134,0,23210,0
20812,-340,-8282,548,-44,40,16,9876,1,-3,1,0,37531,326,26,79,0,0,0,0,0,0,0,0,-32316,0,0,0,4134,0,23230,0
20822,-370,-8258,548,-44,42,18,9876,1,1,-1,0,37530,327,26,79,0,0,0,0,0,0,0,0,-32316,0,0,0,4132,0,23250,0
20832,-362,-8278,552,-45,38,17,9875,3,3,-1,0,37531,332,26,79,0,0,0,0,0,0,0,0,-32317,0,0,0,4132,0,23270,0
20842,-344,-8270,574,-48,43,19,9877,5,-2,0,0,37541,329,26,79,0,0,0,0,0,0,0,0,-32317,0,0,0,4133,0,23290,0
20852,-348,-8256,544,-48,38,19,9876,3,0,0,0,37543,325,26,79,0,0,0,0,0,0,0,0,-32316,0,0,0,4133,0,23310,0
20862,-364,-8282,528,-55,43,19,9877,1,0,0,0,37539,328,26,79,0,0,0,0,0,0,0,0,-32316,0,0,0,4133,0,23330,0
20872,-362,-8280,546,-47,43,16,9876,-3,-1,0,0,37532,333,26,79,0,0,0,0,0,0,0,0,-32317,0,0,0,4132,0,23350,0
20882,-392,-8304,552,-54,41,15,9877,1,1,0,0,37532,336,26,79,0,0,0,0,0,0,0,0,-32317,0,0,0,4134,0,23370,0
20892,-364,-8266,554,-48,39,17,9876,-1,-4,0,0,37533,327,26,79,0,0,0,0,0,0,0,0,-32317,0,0,0,4134,0,23390,0
20902,-358,-8276,538,-51,42,15,9876,1,-2,0,0,37534,322,26,79,0,0,0,0,0,0,0,0,-32316,0,0,0,4132,0,23410,0
20912,-344,-8278,558,-47,43,17,9876,-1,2,1,0,37535,327,26,79,0,0,0,0,0,0,0,0,-32316,0,0,0,4133,0,23430,0
20922,-360,-8262,554,-45,42,15,9876,5,1,0,0,37534,333,26,79,0,0,0,0,0,0,0,0,-32316,0,0,0,4134,0,23450,0
20932,-372,-8274,556,-47,39,16,9875,0,3,0,0,37533,332,26,79,0,0,0,0,0,0,0,0,-32316,0,0,0,4132,0,23470,0
20942,-358,-8266,556,-48,41,14,9876,3,4,1,0,37542,337,26,79,0,0,0,0,0,0,0,0,-32317,0,0,0,4132,0,23490,0
20952,-370,-8286,542,-45,41,16,9875,-2,-2,0,0,37553,330,26,79,0,0,0,0,0,0,0,0,-32316,0,0,0,4133,0,23510,0
20962,-344,-8296,544,-53,37,16,9876,3,2,3,0,37568,321,26,79,0,0,0,0,0,0,0,0,-32317,0,0,0,4132,0,23530,0
20972,-350,-8254,548,-53,41,16,9876,3,2,0,0,37557,313,26,79,0,0,0,0,0,0,0,0,-32317,0,0,0,4132,0,23550,0
20982,-356,-8268,560,-45,44,17,9875,0,-2,0,0,37547,317,26,79,0,0,0,0,0,0,0,0,-32317,0,0,0,4132,0,23570,0
20992,-364,-8254,590,-45,45,14,9876,0,0,0,0,37533,331,26,79,0,0,0,0,0,0,0,0,-32317,0,0,0,4132,0,23590,0
21002,-334,-8248,558,-53,39,19,9877,2,0,0,0,37529,330,26,79,0,0,0,0,0,0,0,0,-32316,0,0,0,4133,0,23610,0
21012,-372,-8288,560,-50,41,15,9878,7,4,1,0,37530,327,26,79,0,0,0,0,0,0,0,0,-32316,0,0,0,4132,0,23630,0
21022,-366,-8282,544,-50,44,16,9876,0,4,0,0,37531,324,26,79,0,0,0,0,0,0,0,0,-32316,0,0,0,4132,0,23650,0
21032,-366,-8296,556,-53,36,11,9877,0,2,-1,0,37532,326,26,79,0,0,0,0,0,0,0,0,-32316,0,0,0,4132,0,23670,0
21042,-368,-8292,522,-53,45,15,9876,1,2,0,0,37529,325,26,79,0,0,0,0,0,0,0,0,-32316,0,0,0,4133,0,23690,0
21052,-366,-8282,536,-60,38,12,9876,-9,1,-3,0,37532,327,26,79,0,0,0,0,0,0,0,0,-32317,0,0,0,4133,0,23710,0
21062,-360,-8274,554,-55,39,17,9876,2,-1,0,0,37532,333,26,79,0,0,0,0,0,0,0,0,-32316,0,0,0,4132,0,23730,0
21072,-356,-8302,538,-52,45,14,9876,4,1,-1,0,37532,335,26,79,0,0,0,0,0,0,0,0,-32316,0,0,0,4133,0,23750,0
21082,-352,-8276,550,-56,43,16,9876,-1,3,0,0,37527,326,26,79,0,0,0,0,0,0,0,0,-32316,0,0,0,4132,0,23770,0
21092,-370,-8252,544,-56,45,16,9876,-5,2,2,0,37525,324,26,79,0,0,0,0,0,0,0,0,-32316,0,0,0,4132,0,23790,0
21102,-378,-8298,548,-56,37,17,9875,-4,-5,-1,0,37523,318,26,79,0,0,0,0,0,0,0,0,-32316,0,0,0,4133,0,23810,0
21112,-372,-8274,552,-55,43,17,9876,-1,-1,1,0,37524,323,26,79,0,0,0,0,0,0,0,0,-32316,0,0,0,4132,0,23830,0
21122,-360,-8288,540,-53,39,18,9876,-5,1,0,0,37526,320,26,79,0,0,0,0,0,0,0,0,-32317,0,0,0,4134,0,23850,0
21132,-374,-8280,560,-59,41,17,9876,-5,-4,-1,0,37526,326,26,79,0,0,0,0,0,0,0,0,-32316,0,0,0,4132,0,23870,0
21142,-344,-8308,544,-57,39,12,9875,0,-4,2,0,37524,331,26,79,0,0,0,0,0,0,0,0,-32316,0,0,0,4133,0,23890,0
21152,-340,-8282,548,-54,42,14,9875,-11,-3,1,0,37530,326,26,79,0,0,0,0,0,0,0,0,-32316,0,0,0,4133,0,23910,0
21162,-344,-8298,544,-54,43,13,9875,0,-4,0,0,37532,335,26,79,0,0,0,0,0,0,0,0,-32317,0,0,0,4132,0,23930,0
21172,-330,-8276,564,-51,46,11,9876,-2,3,-1,0,37533,325,26,79,0,0,0,0,0,0,0,0,-32317,0,0,0,4133,0,23950,0
21182,-362,-8278,568,-54,45,14,9876,0,3,-2,0,37529,331,26,79,0,0,0,0,0,0,0,0,-32317,0,0,0,4132,0,23970,0
21192,-348,-8312,554,-58,42,16,9876,0,-2,2,0,37523,322,26,79,0,0,0,0,0,0,0,0,-32316,0,0,0,4132,0,23990,0
21202,-364,-8290,562,-60,37,13,9875,1,2,0,0,37525,325,26,79,0,0,0,0,0,0,0,0,-32317,0,0,0,4132,0,24010,0
21212,-338,-8272,552,-58,43,16,9875,-6,1,-1,0,37529,325,26,79,0,0,0,0,0,0,0,0,-32316,0,0,0,4132,0,24030,0
21222,-366,-8288,546,-62,43,17,9876,2,-3,1,0,37529,323,26,79,0,0,0,0,0,0,0,0,-32317,0,0,0,4133,0,24050,0
21232,-360,-8304,530,-56,39,16,9878,8,3,-1,0,37528,328,26,79,0,0,0,0,0,0,0,0,-32317,0,0,0,4132,0,24070,0
21242,-368,-8272,526,-56,33,18,9876,-2,2,0,0,37526,323,26,79,0,0,0,0,0,0,0,0,-32316,0,0,0,4132,0,24090,0
21252,-346,-8280,530,-55,39,18,9876,-1,5,1,0,37527,322,26,79,0,0,0,0,0,0,0,0,-32316,0,0,0,4132,0,24110,0
21262,-342,-8302,542,-55,42,19,9876,0,-1,2,0,37534,329,26,79,0,0,0,0,0,0,0,0,-32317,0,0,0,4132,0,24130,0
21272,-368,-8232,546,-59,44,17,9875,-4,3,0,0,37533,328,26,79,0,0,0,0,0,0,0,0,-32317,0,0,0,4132,0,24150,0
21282,-352,-8264,546,-52,44,21,9876,2,2,0,0,37529,323,26,79,0,0,0,0,0,0,0,0,-32317,0,0,0,4133,0,24170,0
21292,-372,-8300,546,-50,40,22,9877,8,-1,1,0,37523,322,26,79,0,0,0,0,0,0,0,0,-32317,0,0,0,4132,0,24190,0
21302,-352,-8292,542,-53,42,21,9876,3,0,0,0,37518,322,26,79,0,0,0,0,0,0,0,0,-32316,0,0,0,4132,0,24210,0
21312,-338,-8266,526,-56,41,17,9877,7,2,-1,0,37517,325,26,79,0,0,0,0,0,0,0,0,-32316,0,0,0,4132,0,24230,0
21322,-326,-8270,536,-55,40,16,9877,0,-5,0,0,37517,328,26,79,0,0,0,0,0,0,0,0,-32316,0,0,0,4133,0,24250,0
21332,-362,-8274,524,-51,46,18,9876,2,4,-2,0,37519,332,26,79,0,0,0,0,0,0,0,0,-32316,0,0,0,4133,0,24270,0
21342,-364,-8286,530,-49,39,16,9876,2,1,1,0,37518,327,26,79,0,0,0,0,0,0,0,0,-32316,0,0,0,4132,0,24290,0
21352,-362,-8274,532,-49,43,10,9876,0,2,0,0,37519,329,26,79,0,0,0,0,0,0,0,0,-32316,0,0,0,4132,0,24310,0
21362,-368,-8296,530,-52,44,13,9875,5,3,0,0,37526,330,26,79,0,0,0,0,0,0,0,0,-32316,0,0,0,4132,0,24330,0
21372,-364,-8270,542,-47,39,8,9875,-6,2,2,0,37526,332,26,79,0,0,0,0,0,0,0,0,-32316,0,0,0,4132,0,24350,0
21382,-342,-8244,542,-42,37,11,9876,3,-2,0,0,37523,327,26,79,0,0,0,0,0,0,0,0,-32316,0,0,0,4132,0,24370,0
21392,-352,-8292,528,-49,38,12,9876,-1,-2,0,0,37523,325,26,79,0,0,0,0,0,0,0,0,-32316,0,0,0,4133,0,24390,0
21402,-362,-8272,560,-45,40,6,9876,1,3,-1,0,37517,325,26,79,0,0,0,0,0,0,0,0,-32316,0,0,0,4133,0,24410,0
21412,-334,-8304,550,-48,43,12,9876,1,-1,0,0,37518,331,26,79,0,0,0,0,0,0,0,0,-32316,0,0,0,4132,0,24430,0
21422,-324,-8282,566,-53,40,11,9877,0,2,1,0,37519,328,26,79,0,0,0,0,0,0,0,0,-32316,0,0,0,4132,0,24450,0
21432,-358,-8272,534,-47,43,19,9875,-2,0,-2,0,37519,325,26,79,0,0,0,0,0,0,0,0,-32317,0,0,0,4132,0,24470,0
21442,-352,-8270,538,-52,41,15,9875,-1,-3,1,0,37519,326,26,79,0,0,0,0,0,0,0,0,-32316,0,0,0,4132,0,24490,0
21452,-344,-8260,552,-51,47,18,9877,4,3,-2,0,37520,330,26,79,0,0,0,0,0,0,0,0,-32317,0,0,0,4133,0,24510,0
21462,-334,-8274,532,-48,47,19,9876,4,0,0,0,37521,329,26,79,0,0,0,0,0,0,0,0,-32316,0,0,0,4132,0,24530,0
21472,-356,-8296,536,-43,41,17,9874,-9,0,0,0,37522,328,26,79,0,0,0,0,0,0,0,0,-32316,0,0,0,4132,0,24550,0
21482,-374,-8290,528,-49,43,17,9877,0,1,0,0,37522,328,26,79,0,0,0,0,0,0,0,0,-32317,0,0,0,4133,0,24570,0
21492,-368,-8312,522,-46,41,20,9876,2,-5,1,0,37522,328,26,79,0,0,0,0,0,0,0,0,-32317,0,0,0,4132,0,24590,0
21502,-386,-8296,522,-49,41,13,9876,-2,-2,0,0,37522,332,26,79,0,0,0,0,0,0,0,0,-32317,0,0,0,4132,0,24610,0
21512,-384,-8284,550,-44,39,9,9877,9,1,-2,0,37521,331,26,79,0,0,0,0,0,0,0,0,-32317,0,0,0,4133,0,24630,0
21522,-364,-8270,542,-43,42,6,9876,6,-2,-3,0,37521,338,26,79,0,0,0,0,0,0,0,0,-32316,0,0,0,4132,0,24650,0
21532,-358,-8264,520,-46,41,7,9876,-3,3,1,0,37521,338,26,79,0,0,0,0,0,0,0,0,-32316,0,0,0,4132,0,24670,0
21542,-350,-8292,552,-42,44,10,9876,-1,3,2,0,37526,333,26,79,0,0,0,0,0,0,0,0,-32316,0,0,0,4132,0,24690,0
21552,-348,-8290,554,-41,37,4,9876,0,-1,0,0,37525,324,26,79,0,0,0,0,0,0,0,0,-32316,0,0,0,4132,0,24710,0
21562,-366,-8276,550,-46,39,5,9876,1,-1,2,0,37522,326,26,79,0,0,0,0,0,0,0,0,-32316,0,0,0,4132,0,24730,0
21572,-356,-8280,568,-47,39,7,9876,5,3,-1,0,37525,325,26,79,0,0,0,0,0,0,0,0,-32316,0,0,0,4132,0,24750,0
21582,-350,-8276,534,-46,40,4,9876,1,0,-1,0,37529,326,26,79,0,0,0,0,0,0,0,0,-32317,0,0,0,4132,0,24770,0
21592,-328,-8262,548,-45,46,7,9875,-4,-4,0,0,37532,327,26,79,0,0,0,0,0,0,0,0,-32317,0,0,0,4132,0,24790,0
21602,-342,-8290,538,-48,36,9,9877,-2,-4,-1,0,37529,326,26,79,0,0,0,0,0,0,0,0,-32316,0,0,0,4131,0,24811,0
21612,-370,-8272,566,-52,40,9,9875,-4,5,1,0,37521,329,26,79,0,0,0,0,0,0,0,0,-32317,0,0,0,4132,0,24831,0
21622,-344,-8284,562,-49,40,11,9877,5,0,0,0,37522,326,26,79,0,0,0,0,0,0,0,0,-32316,0,0,0,4132,0,24851,0
21632,-320,-8296,556,-43,41,15,9875,-3,6,-1,0,37526,324,26,79,0,0,0,0,0,0,0,0,-32316,0,0,0,4132,0,24871,0
21642,-334,-8288,576,-52,40,16,9875,0,0,0,0,37526,322,26,79,0,0,0,0,0,0,0,0,-32316,0,0,0,4132,0,24891,0
21652,-350,-8260,558,-55,42,19,9876,2,0,1,0,37525,337,26,79,0,0,0,0,0,0,0,0,-32316,0,0,0,4131,0,24911,0
21662,-336,-8274,532,-53,42,21,9876,-1,-3,0,0,37526,347,26,79,0,0,0,0,0,0,0,0,-32316,0,0,0,4131,0,24931,0
21672,-336,-8246,560,-53,42,18,9875,-9,-2,-1,0,37528,344,26,79,0,0,0,0,0,0,0,0,-32316,0,0,0,4132,0,24951,0
21682,-334,-8276,544,-56,40,21,9876,4,2,1,0,37534,340,26,79,0,0,0,0,0,0,0,0,-32316,0,0,0,4132,0,24971,0
21692,-328,-8276,554,-51,45,23,9876,0,-2,0,0,37533,333,26,79,0,0,0,0,0,0,0,0,-32316,0,0,0,4131,0,24991,0
21702,-350,-8274,540,-57,40,25,9877,2,2,-2,0,37531,336,26,79,0,0,0,0,0,0,0,0,-32317,0,0,0,4133,0,25011,0
21712,-372,-8268,566,-53,36,21,9875,-9,-2,0,0,37526,336,26,79,0,0,0,0,0,0,0,0,-32317,0,0,0,4132,0,25031,0
21722,-356,-8292,552,-48,40,20,9876,2,-1,0,0,37526,333,26,79,0,0,0,0,0,0,0,0,-32316,0,0,0,4131,0,25051,0
21732,-358,-8296,566,-52,38,20,9874,-12,1,-1,0,37525,331,26,79,0,0,0,0,0,0,0,0,-32316,0,0,0,4132,0,25071,0
21742,-348,-8278,560,-47,40,17,9876,-3,1,1,0,37524,327,26,79,0,0,0,0,0,0,0,0,-32316,0,0,0,4132,0,25091,0
21752,-376,-8292,516,-50,40,20,9875,-2,6,0,0,37526,327,26,79,0,0,0,0,0,0,0,0,-32317,0,0,0,4132,0,25111,0
21762,-372,-8276,532,-50,38,18,9876,-3,-2,0,0,37529,327,26,79,0,0,0,0,0,0,0,0,-32316,0,0,0,4132,0,25131,0
21772,-368,-8238,556,-54,42,12,9876,-4,-3,0,0,37528,330,26,79,0,0,0,0,0,0,0,0,-32316,0,0,0,4133,0,25151,0
21782,-370,-8262,524,-46,42,13,9876,1,0,0,0,37526,323,26,79,0,0,0,0,0,0,0,0,-32317,0,0,0,4132,0,25171,0
21792,-362,-8282,518,-49,38,10,9877,-1,2,1,0,37532,317,26,79,0,0,0,0,0,0,0,0,-32317,0,0,0,4132,0,25191,0
21802,-386,-8262,526,-41,38,5,9876,1,1,0,0,37536,320,26,79,0,0,0,0,0,0,0,0,-32317,0,0,0,4133,0,25211,0
21812,-366,-8302,518,-45,41,5,9876,-3,3,0,0,37537,329,26,79,0,0,0,0,0,0,0,0,-32317,0,0,0,4132,0,25231,0
21822,-378,-8298,526,-40,38,6,9875,1,-3,0,0,37531,341,26,79,0,0,0,0,0,0,0,0,-32317,0,0,0,4132,0,25251,0
21832,-368,-8270,538,-38,39,1,9875,1,-4,0,0,37531,340,26,79,0,0,0,0,0,0,0,0,-32317,0,0,0,4132,0,25271,0
21842,-362,-8302,558,-39,39,3,9876,11,4,0,0,37533,331,26,79,0,0,0,0,0,0,0,0,-32316,0,0,0,4131,0,25291,0
21852,-344,-8276,552,-41,38,0,9876,-1,1,0,0,37534,330,26,79,0,0,0,0,0,0,0,0,-32317,0,0,0,4132,0,25311,0
21862,-366,-8270,556,-37,35,5,9875,4,3,0,0,37532,335,26,79,0,0,0,0,0,0,0,0,-32316,0,0,0,4132,0,25331,0
21872,-342,-8282,554,-37,39,3,9875,-1,-2,0,0,37534,333,26,79,0,0,0,0,0,0,0,0,-32316,0,0,0,4131,0,25351,0
21882,-338,-8306,550,-40,39,3,9877,5,6,-1,0,37538,329,26,79,0,0,0,0,0,0,0,0,-32316,0,0,0,4131,0,25371,0
21892,-346,-8276,540,-44,44,5,9876,-1,-3,1,0,37546,323,26,79,0,0,0,0,0,0,0,0,-32317,0,0,0,4131,0,25391,0
21902,-354,-8314,556,-40,44,4,9877,7,3,0,0,37544,324,26,79,0,0,0,0,0,0,0,0,-32316,0,0,0,4131,0,25411,0
21912,-350,-8264,570,-44,43,7,9875,-7,-3,0,0,37541,330,26,79,0,0,0,0,0,0,0,0,-32317,0,0,0,4131,0,25431,0
21922,-342,-8254,580,-49,39,9,9875,-9,-5,0,0,37536,334,26,79,0,0,0,0,0,0,0,0,-32316,0,0,0,4131,0,25451,0
21932,-328,-8296,564,-41,42,11,9876,0,-3,-1,0,37536,331,26,79,0,0,0,0,0,0,0,0,-32316,0,0,0,4131,0,25471,0
21942,-312,-8280,562,-43,46,12,9876,1,-1,1,0,37532,334,26,79,0,0,0,0,0,0,0,0,-32316,0,0,0,4131,0,25491,0
21952,-306,-8274,542,-50,47,21,9875,0,-1,0,0,37529,341,26,79,0,0,0,0,0,0,0,0,-32316,0,0,0,4131,0,25511,0
21962,-336,-8298,546,-46,41,20,9876,8,-2,0,0,37527,341,26,79,0,0,0,0,0,0,0,0,-32317,0,0,0,4131,0,25531,0
21972,-352,-8274,562,-49,42,23,9876,0,3,0,0,37526,337,26,79,0,0,0,0,0,0,0,0,-32316,0,0,0,4131,0,25551,0
21982,-372,-8274,558,-45,42,18,9876,-4,-3,0,0,37528,331,26,79,0,0,0,0,0,0,0,0,-32317,0,0,0,4131,0,25571,0
21992,-358,-8272,574,-49,46,14,9876,4,0,0,0,37532,336,26,79,0,0,0,0,0,0,0,0,-32316,0,0,0,4131,0,25591,0
22002,-332,-8270,568,-55,37,17,9876,7,3,-1,0,37531,334,26,79,0,0,0,0,0,0,0,0,-32317,0,0,0,4131,0,25612,0
22012,-364,-8278,558,-55,42,9,9877,3,7,0,0,37531,331,26,79,0,0,0,0,0,0,0,0,-32317,0,0,0,4131,0,25632,0
22022,-356,-8282,544,-55,37,16,9877,0,4,0,0,37527,330,26,79,0,0,0,0,0,0,0,0,-32316,0,0,0,4131,0,25652,0
22032,-346,-8288,570,-56,41,14,9875,1,-7,-2,0,37529,329,26,79,0,0,0,0,0,0,0,0,-32316,0,0,0,4131,0,25672,0
22042,-332,-8262,578,-56,40,18,9876,1,2,2,0,37529,325,26,79,0,0,0,0,0,0,0,0,-32317,0,0,0,4131,0,25692,0
22052,-306,-8310,570,-57,39,21,9875,-3,2,0,0,37528,323,26,79,0,0,0,0,0,0,0,0,-32317,0,0,0,4131,0,25712,0
22062,-334,-8288,572,-57,39,24,9877,0,2,1,0,37527,321,26,79,0,0,0,0,0,0,0,0,-32317,0,0,0,4132,0,25732,0
22072,-330,-8272,558,-61,44,26,9876,-3,0,0,0,37526,321,26,79,0,0,0,0,0,0,0,0,-32316,0,0,0,4131,0,25752,0
22082,-374,-8276,534,-60,42,27,9877,1,0,-2,0,37526,325,26,79,0,0,0,0,0,0,0,0,-32316,0,0,0,4131,0,25772,0
22092,-354,-8282,522,-56,46,27,9876,3,-3,0,0,37526,329,26,79,0,0,0,0,0,0,0,0,-32316,0,0,0,4131,0,25792,0
22102,-338,-8254,516,-50,39,27,9876,1,0,0,0,37531,336,26,79,0,0,0,0,0,0,0,0,-32316,0,0,0,4131,0,25812,0
22112,-350,-8296,534,-50,43,26,9876,6,0,0,0,37532,333,26,79,0,0,0,0,0,0,0,0,-32317,0,0,0,4131,0,25832,0
22122,-366,-8274,564,-56,34,24,9876,-1,0,0,0,37531,329,26,79,0,0,0,0,0,0,0,0,-32317,0,0,0,4131,0,25852,0
22132,-374,-8250,572,-49,42,26,9876,2,-1,-3,0,37529,326,26,79,0,0,0,0,0,0,0,0,-32317,0,0,0,4131,0,25872,0
22142,-392,-8252,566,-51,40,21,9876,1,3,0,0,37528,336,26,79,0,0,0,0,0,0,0,0,-32316,0,0,0,4132,0,25892,0
22152,-384,-8296,566,-52,41,17,9876,4,1,0,0,37525,342,26,79,0,0,0,0,0,0,0,0,-32316,0,0,0,4131,0,25912,0
22162,-362,-8270,504,-54,38,14,9876,3,3,0,0,37523,344,26,79,0,0,0,0,0,0,0,0,-32317,0,0,0,4131,0,25932,0
22172,-358,-8264,526,-52,39,13,9876,0,0,0,0,37523,334,26,79,0,0,0,0,0,0,0,0,-32317,0,0,0,4132,0,25952,0
22182,-358,-8286,528,-54,44,10,9875,7,2,-1,0,37526,330,26,79,0,0,0,0,0,0,0,0,-32317,0,0,0,4131,0,25972,0
22192,-368,-8268,568,-48,46,13,9876,2,3,0,0,37525,329,26,79,0,0,0,0,0,0,0,0,-32316,0,0,0,4132,0,25992,0
22202,-352,-8258,548,-54,42,8,9876,0,1,-1,0,37524,323,26,79,0,0,0,0,0,0,0,0,-32316,0,0,0,4132,0,26012,0
22212,-360,-8292,582,-57,38,13,9877,0,-1,-1,0,37525,326,26,79,0,0,0,0,0,0,0,0,-32317,0,0,0,4131,0,26032,0
22222,-332,-8262,554,-54,40,17,9875,-6,2,0,0,37540,321,26,79,0,0,0,0,0,0,0,0,-32316,0,0,0,4131,0,26052,0
22232,-336,-8278,542,-50,41,14,9877,-2,-1,-3,0,37545,322,26,79,0,0,0,0,0,0,0,0,-32317,0,0,0,4131,0,26072,0
22242,-318,-8272,548,-56,45,19,9875,-6,-1,1,0,37539,332,26,79,0,0,0,0,0,0,0,0,-32316,0,0,0,4131,0,26092,0
22252,-308,-8286,556,-52,42,19,9876,2,2,0,0,37529,328,26,79,0,0,0,0,0,0,0,0,-32316,0,0,0,4132,0,26112,0
22262,-336,-8258,564,-49,43,22,9875,-2,-2,0,0,37523,325,26,79,0,0,0,0,0,0,0,0,-32316,0,0,0,4131,0,26132,0
22272,-348,-8288,550,-50,43,32,9876,0,0,0,0,37524,321,26,79,0,0,0,0,0,0,0,0,-32316,0,0,0,4131,0,26152,0
22282,-342,-8278,572,-52,42,28,9876,0,-2,-1,0,37522,330,26,79,0,0,0,0,0,0,0,0,-32316,0,0,0,4132,0,26172,0
22292,-366,-8284,542,-54,44,26,9875,-4,2,0,0,37521,336,26,79,0,0,0,0,0,0,0,0,-32316,0,0,0,4132,0,26192,0
22302,-372,-8312,572,-54,41,29,9878,5,4,0,0,37521,334,26,79,0,0,0,0,0,0,0,0,-32316,0,0,0,4132,0,26212,0
22312,-406,-8266,544,-59,42,31,9876,-4,-3,0,0,37527,326,26,79,0,0,0,0,0,0,0,0,-32316,0,0,0,4132,0,26232,0
22322,-374,-8272,542,-57,41,23,9876,-8,-1,0,0,37529,327,26,79,0,0,0,0,0,0,0,0,-32316,0,0,0,4132,0,26252,0
22332,-368,-8276,536,-56,39,20,9877,6,0,-1,0,37527,329,26,79,0,0,0,0,0,0,0,0,-32317,0,0,0,4131,0,26272,0
22342,-396,-8284,534,-56,35,20,9876,0,-1,0,0,37526,325,26,79,0,0,0,0,0,0,0,0,-32316,0,0,0,4131,0,26292,0
22352,-362,-8280,526,-55,38,13,9876,1,2,-1,0,37519,331,26,79,0,0,0,0,0,0,0,0,-32316,0,0,0,4131,0,26312,0
22362,-344,-8290,512,-53,49,11,9875,-1,1,0,0,37519,334,26,79,0,0,0,0,0,0,0,0,-32316,0,0,0,4132,0,26332,0
22372,-342,-8276,532,-51,42,17,9876,-1,3,0,0,37514,333,26,79,0,0,0,0,0,0,0,0,-32316,0,0,0,4132,0,26352,0
22382,-336,-8260,544,-56,32,19,9877,11,5,-3,0,37514,323,26,79,0,0,0,0,0,0,0,0,-32316,0,0,0,4132,0,26372,0
22392,-344,-8288,542,-53,34,15,9875,-5,1,0,0,37514,318,26,79,0,0,0,0,0,0,0,0,-32317,0,0,0,4132,0,26392,0
22402,-348,-8268,536,-50,46,19,9877,12,0,0,0,37517,322,26,79,0,0,0,0,0,0,0,0,-32317,0,0,0,4133,0,26412,0
22412,-366,-8266,548,-52,38,17,9877,0,1,1,0,37515,327,26,79,0,0,0,0,0,0,0,0,-32317,0,0,0,4132,0,26432,0
22422,-364,-8290,536,-50,42,16,9876,4,4,4,0,37520,317,26,79,0,0,0,0,0,0,0,0,-32316,0,0,0,4132,0,26452,0
22432,-356,-8252,538,-54,44,14,9876,0,3,-2,0,37520,318,26,79,0,0,0,0,0,0,0,0,-32316,0,0,0,4132,0,26472,0
22442,-374,-8252,558,-43,40,15,9876,0,2,0,0,37522,326,26,79,0,0,0,0,0,0,0,0,-32316,0,0,0,4132,0,26492,0
22452,-354,-8288,544,-52,38,9,9875,1,1,1,0,37520,336,26,79,0,0,0,0,0,0,0,0,-32316,0,0,0,4132,0,26512,0
22462,-366,-8294,536,-46,40,11,9876,0,1,1,0,37517,336,26,79,0,0,0,0,0,0,0,0,-32316,0,0,0,4132,0,26532,0
22472,-364,-8282,526,-46,41,11,9877,5,0,0,0,37518,329,26,79,0,0,0,0,0,0,0,0,-32316,0,0,0,4132,0,26552,0
22482,-370,-8312,528,-45,39,12,9876,-2,0,-2,0,37521,332,26,79,0,0,0,0,0,0,0,0,-32316,0,0,0,4132,0,26573,0
22492,-366,-8290,520,-51,41,9,9875,-3,-1,1,0,37520,331,26,79,0,0,0,0,0,0,0,0,-32316,0,0,0,4132,0,26593,0
22502,-380,-8270,550,-43,43,6,9875,-3,-1,0,0,37520,327,26,79,0,0,0,0,0,0,0,0,-32316,0,0,0,4132,0,26617,0
22512,-334,-8276,542,-45,37,7,9875,0,1,0,0,37519,320,26,79,0,0,0,0,0,0,0,0,-32317,0,0,0,4132,0,26638,0
22522,-362,-8266,568,-47,38,6,9875,-8,-1,0,0,37522,315,26,79,0,0,0,0,0,0,0,0,-32316,0,0,0,4132,0,26658,0
22532,-360,-8260,560,-44,40,8,9877,5,-3,-3,0,37531,313,26,79,0,0,0,0,0,0,0,0,-32316,0,0,0,4131,0,26678,0
22542,-350,-8288,556,-46,41,6,9877,4,-5,0,0,37534,316,26,79,0,0,0,0,0,0,0,0,-32317,0,0,0,4131,0,26698,0
22552,-364,-8306,556,-45,38,4,9876,4,-6,0,0,37535,320,26,79,0,0,0,0,0,0,0,0,-32316,0,0,0,4131,0,26718,0
22562,-362,-8290,548,-41,39,6,9875,-4,-1,0,0,37527,325,26,79,0,0,0,0,0,0,0,0,-32317,0,0,0,4132,0,26738,0
22572,-338,-8294,536,-46,40,9,9875,-7,1,-1,0,37525,322,26,79,0,0,0,0,0,0,0,0,-32316,0,0,0,4131,0,26758,0
22582,-338,-8302,550,-42,39,11,9876,-4,2,-3,0,37525,333,26,79,0,0,0,0,0,0,0,0,-32316,0,0,0,4132,0,26778,0
22592,-384,-8292,550,-45,38,10,9875,0,1,-1,0,37528,330,26,79,0,0,0,0,0,0,0,0,-32317,0,0,0,4132,0,26798,0
22602,-400,-8278,546,-40,40,6,9875,-2,6,0,0,37525,332,26,79,0,0,0,0,0,0,0,0,-32316,0,0,0,4131,0,26819,0
22612,-380,-8292,562,-45,44,3,9875,-3,3,0,0,37523,333,26,79,0,0,0,0,0,0,0,0,-32316,0,0,0,4131,0,26839,0
22622,-384,-8270,534,-45,41,-8,9877,1,-3,0,0,37522,329,26,79,0,0,0,0,0,0,0,0,-32316,0,0,0,4132,0,26859,0
22632,-376,-8308,540,-43,42,-10,9875,0,2,1,0,37531,334,26,79,0,0,0,0,0,0,0,0,-32317,0,0,0,4131,0,26879,0
22642,-356,-8270,548,-42,38,-12,9876,0,-6,0,0,37532,326,26,79,0,0,0,0,0,0,0,0,-32316,0,0,0,4131,0,26899,0
22652,-370,-8258,550,-44,43,-13,9875,0,-2,1,0,37532,326,26,79,0,0,0,0,0,0,0,0,-32316,0,0,0,4131,0,26919,0
22662,-364,-8312,548,-39,42,-15,9876,0,0,-2,0,37523,331,26,79,0,0,0,0,0,0,0,0,-32316,0,0,0,4129,0,26939,0
22672,-322,-8322,548,-40,41,-18,9875,-1,0,0,0,37523,332,26,79,0,0,0,0,0,0,0,0,-32316,0,0,0,4129,0,26959,0
22682,-296,-8282,558,-45,45,-14,9875,-2,2,-4,0,37524,328,26,79,0,0,0,0,0,0,0,0,-32316,0,0,0,4129,0,26979,0
22692,-302,-8258,550,-41,38,-5,9876,3,-5,0,0,37525,327,26,79,0,0,0,0,0,0,0,0,-32316,0,0,0,4128,0,26999,0
22702,-298,-8300,548,-45,39,3,9876,-3,-5,0,0,37527,323,26,79,0,0,0,0,0,0,0,0,-32316,0,0,0,4128,0,27019,0
22712,-294,-8260,540,-45,41,6,9876,0,-1,0,0,37528,323,26,79,0,0,0,0,0,0,0,0,-32316,0,0,0,4128,0,27039,0
22722,-288,-8296,554,-43,43,9,9876,-7,-2,1,0,37528,322,26,79,0,0,0,0,0,0,0,0,-32316,0,0,0,4128,0,27059,0
22732,-312,-8296,566,-41,37,19,9876,0,-1,-1,0,37532,327,26,79,0,0,0,0,0,0,0,0,-32316,0,0,0,4127,0,27079,0
22742,-314,-8260,560,-50,41,21,9877,1,-2,1,0,37535,328,26,79,0,0,0,0,0,0,0,0,-32316,0,0,0,4128,0,27099,0
22752,-336,-8276,578,-50,41,16,9875,-5,3,1,0,37535,327,26,79,0,0,0,0,0,0,0,0,-32316,0,0,0,4128,0,27119,0
22762,-372,-8288,572,-47,41,19,9877,7,0,-1,0,37536,327,26,79,0,0,0,0,0,0,0,0,-32316,0,0,0,4128,0,27139,0
22772,-352,-8258,576,-49,45,17,9876,-4,4,1,0,37529,328,26,79,0,0,0,0,0,0,0,0,-32316,0,0,0,4128,0,27159,0
22782,-356,-8272,556,-47,49,17,9875,-3,2,0,0,37529,334,26,79,0,0,0,0,0,0,0,0,-32316,0,0,0,4128,0,27179,0
22792,-356,-8268,546,-50,34,21,9876,-5,-7,0,0,37527,333,26,79,0,0,0,0,0,0,0,0,-32316,0,0,0,4129,0,27199,0
22802,-336,-8282,544,-53,41,17,9876,-1,1,0,0,37527,329,26,79,0,0,0,0,0,0,0,0,-32316,0,0,0,4129,0,27219,0
22812,-354,-8276,522,-44,44,23,9876,0,-2,0,0,37527,332,26,79,0,0,0,0,0,0,0,0,-32316,0,0,0,4128,0,27239,0
22822,-370,-8282,530,-50,44,20,9876,-4,0,0,0,37528,330,26,79,0,0,0,0,0,0,0,0,-32317,0,0,0,4128,0,27259,0
22832,-362,-8310,552,-55,42,17,9876,-1,3,-1,0,37529,322,26,79,0,0,0,0,0,0,0,0,-32316,0,0,0,4129,0,27279,0
22842,-366,-8262,560,-49,35,14,9875,0,1,2,0,37535,330,26,79,0,0,0,0,0,0,0,0,-32316,0,0,0,4128,0,27299,0
22852,-364,-8326,566,-53,45,19,9876,0,-4,1,0,37536,328,26,79,0,0,0,0,0,0,0,0,-32316,0,0,0,4128,0,27319,0
22862,-344,-8286,552,-57,46,12,9876,-6,-5,-2,0,37536,327,26,79,0,0,0,0,0,0,0,0,-32316,0,0,0,4129,0,27339,0
22872,-354,-8280,562,-54,41,10,9876,-2,-5,0,0,37530,321,26,79,0,0,0,0,0,0,0,0,-32316,0,0,0,4128,0,27359,0
22882,-334,-8306,558,-52,39,12,9877,10,0,-1,0,37531,318,26,79,0,0,0,0,0,0,0,0,-32316,0,0,0,4129,0,27379,0
22892,-354,-8290,548,-54,38,16,9876,8,2,0,0,37531,326,26,79,0,0,0,0,0,0,0,0,-32316,0,0,0,4128,0,27399,0
22902,-344,-8250,568,-51,38,13,9877,2,4,2,0,37534,326,26,79,0,0,0,0,0,0,0,0,-32316,0,0,0,4128,0,27419,0
22912,-346,-8322,552,-53,42,14,9876,-3,0,-1,0,37532,320,26,79,0,0,0,0,0,0,0,0,-32316,0,0,0,4128,0,27439,0
22922,-334,-8302,548,-57,41,13,9877,2,1,0,0,37532,323,26,79,0,0,0,0,0,0,0,0,-32317,0,0,0,4128,0,27459,0
22932,-356,-8254,558,-53,39,12,9875,-1,-2,0,0,37532,323,26,79,0,0,0,0,0,0,0,0,-32317,0,0,0,4128,0,27479,0
22942,-336,-8300,568,-54,37,15,9876,0,4,1,0,37540,333,26,79,0,0,0,0,0,0,0,0,-32316,0,0,0,4127,0,27499,0
22952,-326,-8262,564,-56,39,13,9876,-4,3,0,0,37538,330,26,79,0,0,0,0,0,0,0,0,-32316,0,0,0,4128,0,27519,0
22962,-336,-8278,564,-56,42,14,9876,0,-1,0,0,37535,325,26,79,0,0,0,0,0,0,0,0,-32316,0,0,0,4128,0,27539,0
22972,-338,-8274,542,-54,44,19,9875,3,-1,-1,0,37528,322,26,79,0,0,0,0,0,0,0,0,-32316,0,0,0,4128,0,27559,0
22982,-328,-8242,580,-54,42,16,9876,0,-1,0,0,37528,322,26,79,0,0,0,0,0,0,0,0,-32316,0,0,0,4128,0,27579,0
22992,54,-8230,560,-63,45,14,9843,-171,-77,-756,-728,37530,328,26,79,0,0,0,0,0,0,0,0,-32316,0,0,0,4129,0,27599,0
23002,-184,-8178,548,-64,48,34,9646,-544,-426,-927,-1688,37525,331,26,79,0,0,0,0,0,0,0,0,-32316,0,0,0,4129,0,27619,0
23012,-596,-8296,556,-77,58,28,9271,-940,-669,-1046,-2648,37515,333,26,79,0,0,0,0,0,0,0,0,-32316,0,0,0,4129,0,27639,0
23022,-492,-8320,638,-73,68,15,8717,-1331,-688,-1057,-3368,37500,352,26,79,0,0,0,0,0,0,0,0,-32316,0,0,0,4129,0,27659,0
23032,-274,-8236,596,-69,83,10,8012,-1641,-627,-1012,-4088,37489,384,26,79,0,0,0,0,0,0,0,0,-32316,0,0,0,4128,0,27679,0
23042,-336,-8278,452,-63,74,16,7195,-1860,-486,-957,-4776,37485,408,26,79,0,0,0,0,0,0,0,0,-32316,0,0,0,4129,0,27699,0
23052,-416,-8276,498,-46,64,18,6320,-1940,-310,-929,-5304,37474,426,26,79,0,0,0,0,0,0,0,0,-32316,0,0,0,4128,0,27719,0
23062,-436,-8276,566,-21,73,17,5386,-2106,-217,-994,-5776,37461,438,26,79,0,0,0,0,0,0,0,0,-32316,0,0,0,4128,0,27739,0
23072,-436,-8266,462,-25,42,-2,4367,-2287,-283,-1065,-5912,37451,457,26,79,0,0,0,0,0,0,0,0,-32316,0,0,0,4129,0,27759,0
23082,-336,-8244,614,-9,36,4,3272,-2465,-306,-1042,-6232,37439,468,26,79,0,0,0,0,0,0,0,0,-32317,0,0,0,4130,0,27779,0
23092,-180,-8294,532,2,-9,17,2064,-2751,-376,-1051,-6712,37431,476,26,79,0,0,0,0,0,0,0,0,-32316,0,0,0,4129,0,27799,0
23102,-342,-8316,514,-8,-31,21,703,-3087,-528,-1152,-6848,37417,495,26,79,0,0,0,0,0,0,0,0,-32316,0,0,0,4129,0,27819,0
23112,-564,-8218,636,-43,34,13,-735,-3145,-424,-975,-6848,37407,510,26,79,0,0,0,0,0,0,0,0,-32316,0,0,0,4129,0,27839,0
23122,-346,-8230,570,-62,18,3,-2079,-2877,93,-731,-7584,37408,499,26,79,0,0,0,0,0,0,0,0,-32317,0,0,0,4129,0,27859,0
23132,-302,-8298,514,-103,27,9,-3374,-2870,281,-958,-7728,37412,480,26,79,0,0,0,0,0,0,0,0,-32316,0,0,0,4129,0,27879,0
23142,-298,-8284,544,-108,30,17,-4715,-2989,-44,-1098,-7712,37411,481,26,79,0,0,0,0,0,0,0,0,-32316,0,0,0,4129,0,27899,0
23152,-216,-8300,522,-108,50,19,-6156,-3274,-300,-1018,-8112,37400,502,26,79,0,0,0,0,0,0,0,0,-32317,0,0,0,4129,0,27919,0
23162,-258,-8290,528,-112,84,23,-7782,-3697,-571,-1154,-8440,37383,531,26,79,0,0,0,0,0,0,0,0,-32317,0,0,0,4129,0,27939,0
23172,56,-8050,584,-65,126,-34,-9481,-3684,-106,-897,-8912,37375,537,26,79,0,0,0,0,0,0,0,0,-32316,0,0,0,4129,0,27959,0
23182,-32768,-13852,-1518,-287,287,-2759,-10891,-2740,612,-1162,-5936,37369,554,26,79,0,0,0,0,0,0,0,0,-32317,0,0,0,4057,-12,27979,0
23192,-17260,-6178,2632,-765,3805,-2560,-11514,-744,1696,-1085,-480,37386,495,26,79,0,0,0,0,0,0,0,0,-32316,0,0,0,3968,-7,27999,0
23202,12982,-12326,-2742,-86,1068,-1352,-11348,672,3103,-770,296,37424,396,26,79,0,0,0,0,0,0,0,0,-32316,0,0,0,3963,1,28019,0
23212,19196,-8746,136,-46,-1130,365,-11058,472,1771,-1054,-168,37461,310,26,79,0,0,0,0,0,0,0,0,-32317,0,0,0,3986,1,28039,0
23222,5936,-8202,-1494,5,-1295,1014,-11059,-117,-394,-988,-520,37491,264,26,79,0,0,0,0,0,0,0,0,-32316,0,0,0,3993,0,28059,0
23232,-6768,-8088,-1454,363,-1471,805,-11076,60,-607,-1075,-128,37499,268,26,79,0,0,0,0,0,0,0,0,-32317,0,0,0,4005,1,28079,0
23242,-6260,-9902,-146,308,-1045,547,-10939,382,303,-971,8,37504,269,26,79,0,0,0,0,0,0,0,0,-32316,0,0,0,4033,3,28099,0
23252,140,-9252,718,225,455,16,-10762,337,394,-983,-104,37511,282,26,79,0,0,0,0,0,0,0,0,-32316,0,0,0,4048,1,28119,0
23262,2300,-8972,30,241,308,-168,-10744,-89,-235,-949,-560,37515,289,26,79,0,0,0,0,0,0,0,0,-32316,0,0,0,4049,0,28139,0
23272,-414,-7972,1390,164,186,-242,-10845,-250,-564,-982,-768,37512,307,26,79,0,0,0,0,0,0,0,0,-32316,0,0,0,4038,-1,28159,0
23282,-2116,-8192,1930,65,277,-272,-10925,-117,-187,-1051,-384,37511,320,26,79,0,0,0,0,0,0,0,0,-32316,0,0,0,4029,-1,28179,0
23292,588,-8276,2202,-134,267,-249,-10937,-11,185,-1012,-312,37504,312,26,79,0,0,0,0,0,0,0,0,-32316,0,0,0,4025,0,28199,0
23302,1018,-8290,1774,-249,279,-183,-10958,-62,119,-989,-384,37502,313,26,79,0,0,0,0,0,0,0,0,-32316,0,0,0,4021,0,28219,0
23312,548,-8222,406,-295,179,-100,-10988,-58,-49,-999,-384,37501,311,26,79,0,0,0,0,0,0,0,0,-32316,0,0,0,4015,0,28239,0
23322,-28,-8356,-340,-239,172,-62,-11014,-38,-12,-1008,-328,37498,301,26,79,0,0,0,0,0,0,0,0,-32316,0,0,0,4012,0,28259,0
23332,440,-8154,-538,-108,195,35,-11011,12,78,-1004,-296,37501,295,26,79,0,0,0,0,0,0,0,0,-32316,0,0,0,4012,0,28279,0
23342,534,-8402,-218,-32,155,57,-11012,0,43,-999,-288,37503,286,26,79,0,0,0,0,0,0,0,0,-32316,0,0,0,4008,0,28299,0
23352,402,-8266,606,12,62,118,-11008,9,-4,-1004,-296,37505,281,26,79,0,0,0,0,0,0,0,0,-32317,0,0,0,4010,0,28319,0
23362,-128,-8356,940,-11,42,148,-11007,4,4,-1000,-288,37509,276,26,79,0,0,0,0,0,0,0,0,-32316,0,0,0,4011,0,28339,0
23372,-398,-8356,1146,-79,83,123,-11000,25,4,-998,-272,37511,278,26,79,0,0,0,0,0,0,0,0,-32317,0,0,0,4011,0,28359,0
23382,-372,-8198,1042,-132,160,91,-10994,14,6,-997,-296,37511,277,26,79,0,0,0,0,0,0,0,0,-32316,0,0,0,4011,0,28379,0
23392,-320,-8300,598,-149,148,63,-10993,3,-8,-1002,-304,37505,280,26,79,0,0,0,0,0,0,0,0,-32317,0,0,0,4010,0,28399,0
23402,-272,-8324,324,-134,121,58,-10990,8,-4,-1007,-272,37504,287,26,79,0,0,0,0,0,0,0,0,-32316,0,0,0,4009,0,28419,0
23412,-104,-8360,228,-92,63,40,-10986,11,7,-1002,-272,37506,285,26,79,0,0,0,0,0,0,0,0,-32316,0,0,0,4009,0,28439,0
23422,-204,-8248,268,-64,35,56,-10977,22,7,-999,-256,37508,286,26,79,0,0,0,0,0,0,0,0,-32317,0,0,0,4010,0,28459,0
23432,-292,-8264,452,-45,31,53,-10972,24,4,-1002,-264,37506,278,26,79,0,0,0,0,0,0,0,0,-32316,0,0,0,4010,0,28479,0
23442,-196,-8320,552,-49,39,31,-10966,1,-1,-1000,-272,37505,281,26,79,0,0,0,0,0,0,0,0,-32316,0,0,0,4011,0,28499,0
23452,-228,-8240,538,-47,44,13,-10967,-7,-12,-1002,-264,37505,287,26,79,0,0,0,0,0,0,0,0,-32317,0,0,0,4011,0,28519,0
23462,-186,-8228,450,-37,37,19,-10964,7,-7,-997,-272,37507,286,26,79,0,0,0,0,0,0,0,0,-32316,0,0,0,4012,0,28539,0
23472,-36,-8344,450,-29,31,3,-10966,-11,-2,-998,-256,37508,298,26,79,0,0,0,0,0,0,0,0,-32316,0,0,0,4011,0,28559,0
23482,-134,-8298,610,-26,32,4,-10965,0,-2,-1000,-280,37508,297,26,79,0,0,0,0,0,0,0,0,-32316,0,0,0,4011,0,28579,0
23492,-228,-8246,656,-39,39,11,-10966,0,-2,-999,-256,37509,297,26,79,0,0,0,0,0,0,0,0,-32316,0,0,0,4011,0,28599,0
23502,-190,-8344,678,-45,42,-14,-10966,-3,5,-1000,-272,37520,289,26,79,0,0,0,0,0,0,0,0,-32316,0,0,0,4011,0,28619,0
23512,-122,-8268,588,-46,39,-17,-10967,-5,-6,-995,-280,37532,297,26,79,0,0,0,0,0,0,0,0,-32316,0,0,0,4011,0,28639,0
23522,-140,-8270,452,-48,33,-7,-10967,-5,0,-999,-272,37539,308,26,79,0,0,0,0,0,0,0,0,-32316,0,0,0,4012,0,28659,0
23532,-130,-8290,396,-34,31,-13,-10967,-1,3,-1003,-272,37531,312,26,79,0,0,0,0,0,0,0,0,-32316,0,0,0,4011,0,28679,0
23542,-96,-8248,460,-34,31,-15,-10968,-3,2,-999,-288,37521,304,26,79,0,0,0,0,0,0,0,0,-32316,0,0,0,4011,0,28699,0
23552,-120,-8270,532,-25,32,0,-10969,1,-2,-999,-288,37515,302,26,79,0,0,0,0,0,0,0,0,-32316,0,0,0,4011,0,28719,0
23562,-34,-8338,664,-28,36,-1,-10969,0,2,-1000,-288,37515,297,26,79,0,0,0,0,0,0,0,0,-32316,0,0,0,4011,0,28739,0
23572,-32,-8308,704,-43,29,-12,-10970,8,-4,-998,-288,37513,297,26,79,0,0,0,0,0,0,0,0,-32316,0,0,0,4010,0,28759,0
23582,-100,-8252,612,-52,35,6,-10971,-1,-5,-1003,-288,37516,295,26,79,0,0,0,0,0,0,0,0,-32316,0,0,0,4010,0,28779,0
23592,-62,-8296,562,-57,36,13,-10971,-5,-3,-1000,-288,37517,299,26,79,0,0,0,0,0,0,0,0,-32316,0,0,0,4011,0,28799,0
23602,-22,-8264,574,-54,38,11,-10972,3,3,-997,-288,37518,292,26,79,0,0,0,0,0,0,0,0,-32316,0,0,0,4011,0,28820,0
23612,-132,-8240,496,-49,41,22,-10971,2,-5,-1002,-296,37511,290,26,79,0,0,0,0,0,0,0,0,-32317,0,0,0,4010,0,28840,0
23622,-116,-8262,490,-46,38,26,-10971,-2,-2,-999,-288,37511,283,26,79,0,0,0,0,0,0,0,0,-32316,0,0,0,4010,0,28860,0
23632,-174,-8296,550,-41,40,18,-10970,3,0,-1002,-304,37514,288,26,79,0,0,0,0,0,0,0,0,-32316,0,0,0,4011,0,28880,0
23642,-116,-8240,582,-29,46,18,-10971,3,1,-1002,-280,37517,287,26,79,0,0,0,0,0,0,0,0,-32316,0,0,0,4011,0,28900,0
23652,-140,-8298,584,-43,45,19,-10970,3,0,-1004,-296,37514,284,26,79,0,0,0,0,0,0,0,0,-32316,0,0,0,4011,0,28920,0
23662,-154,-8308,622,-49,43,12,-10971,0,5,-1001,-304,37512,281,26,79,0,0,0,0,0,0,0,0,-32316,0,0,0,4010,0,28940,0
23672,-134,-8230,590,-48,41,10,-10971,-7,2,-1003,-288,37516,279,26,79,0,0,0,0,0,0,0,0,-32316,0,0,0,4010,0,28960,0
23682,-108,-8320,546,-51,37,29,-10970,7,8,-1000,-304,37523,295,26,79,0,0,0,0,0,0,0,0,-32316,0,0,0,4011,0,28980,0
23692,-86,-8302,530,-44,46,14,-10971,0,2,-1002,-280,37522,305,26,79,0,0,0,0,0,0,0,0,-32316,0,0,0,4011,0,29000,0
23702,-122,-8274,554,-47,42,12,-10971,3,3,-1002,-296,37520,307,26,79,0,0,0,0,0,0,0,0,-32316,0,0,0,4011,0,29020,0
23712,-200,-8230,530,-49,40,19,-10970,-2,-2,-1001,-304,37516,300,26,79,0,0,0,0,0,0,0,0,-32316,0,0,0,4010,0,29040,0
23722,-132,-8326,540,-45,43,14,-10969,8,6,-1001,-288,37520,302,26,79,0,0,0,0,0,0,0,0,-32317,0,0,0,4010,0,29060,0
23732,-160,-8264,572,-45,41,10,-10969,3,-3,-1001,-280,37522,306,26,79,0,0,0,0,0,0,0,0,-32316,0,0,0,4010,0,29080,0
23742,-124,-8266,598,-50,43,17,-10971,3,1,-1002,-288,37520,304,26,79,0,0,0,0,0,0,0,0,-32316,0,0,0,4010,0,29100,0
23752,-92,-8336,552,-47,35,14,-10971,-1,5,-999,-296,37518,300,26,79,0,0,0,0,0,0,0,0,-32316,0,0,0,4010,0,29120,0
23762,-54,-8306,594,-51,41,8,-10970,4,-2,-996,-288,37519,294,26,79,0,0,0,0,0,0,0,0,-32316,0,0,0,4010,0,29140,0
23772,-86,-8278,574,-49,38,16,-10971,0,3,-1001,-280,37520,300,26,79,0,0,0,0,0,0,0,0,-32316,0,0,0,4010,0,29160,0
23782,-136,-8282,522,-45,42,19,-10972,-3,0,-1004,-288,37519,294,26,79,0,0,0,0,0,0,0,0,-32316,0,0,0,4010,0,29180,0
23792,-82,-8268,546,-47,43,5,-10971,-1,3,-1002,-288,37524,290,26,79,0,0,0,0,0,0,0,0,-32317,0,0,0,4010,0,29200,0
23802,-134,-8264,562,-40,40,20,-10972,-5,-4,-1003,-288,37526,282,26,79,0,0,0,0,0,0,0,0,-32316,0,0,0,4011,0,29220,0
23812,-124,-8302,526,-40,39,19,-10971,3,-5,-999,-288,37527,294,26,79,0,0,0,0,0,0,0,0,-32317,0,0,0,4011,0,29240,0
23822,-112,-8282,580,-39,41,8,-10970,3,-7,-1002,-280,37520,289,26,79,0,0,0,0,0,0,0,0,-32317,0,0,0,4011,0,29260,0
23832,-140,-8268,586,-47,37,13,-10971,-1,7,-1003,-304,37520,292,26,79,0,0,0,0,0,0,0,0,-32316,0,0,0,4010,0,29280,0
23842,-202,-8296,576,-45,41,15,-10972,-3,-4,-1002,-280,37520,294,26,79,0,0,0,0,0,0,0,0,-32316,0,0,0,4010,0,29300,0
23852,-128,-8292,582,-47,37,2,-10971,3,3,-1002,-288,37524,300,26,79,0,0,0,0,0,0,0,0,-32316,0,0,0,4010,0,29320,0
23862,-134,-8264,594,-47,41,4,-10971,0,-1,-998,-280,37525,301,26,79,0,0,0,0,0,0,0,0,-32316,0,0,0,4010,0,29340,0
23872,-70,-8286,594,-57,36,12,-10972,-3,2,-1001,-288,37525,293,26,79,0,0,0,0,0,0,0,0,-32316,0,0,0,4010,0,29360,0
23882,-106,-8294,584,-52,42,4,-10971,11,4,-1001,-288,37524,291,26,79,0,0,0,0,0,0,0,0,-32316,0,0,0,4010,0,29380,0
23892,-116,-8268,550,-48,37,3,-10970,0,10,-1002,-288,37524,294,26,79,0,0,0,0,0,0,0,0,-32316,0,0,0,4011,0,29400,0
23902,-156,-8292,516,-50,40,17,-10972,6,1,-1000,-288,37531,288,26,79,0,0,0,0,0,0,0,0,-32316,0,0,0,4009,0,29420,0
23912,-106,-8304,558,-45,38,8,-10972,7,8,-996,-288,37531,285,26,79,0,0,0,0,0,0,0,0,-32316,0,0,0,4010,0,29440,0
23922,-104,-8262,584,-42,38,6,-10973,0,3,-1001,-296,37531,274,26,79,0,0,0,0,0,0,0,0,-32317,0,0,0,4011,0,29460,0
23932,-132,-8262,552,-50,33,15,-10973,-4,1,-1001,-288,37528,279,26,79,0,0,0,0,0,0,0,0,-32316,0,0,0,4011,0,29480,0
23942,-64,-8266,588,-49,40,16,-10973,4,0,-1001,-288,37529,286,26,79,0,0,0,0,0,0,0,0,-32316,0,0,0,4010,0,29500,0
23952,-60,-8280,574,-49,40,12,-10973,0,6,-1000,-288,37527,293,26,79,0,0,0,0,0,0,0,0,-32316,0,0,0,4010,0,29520,0
23962,-106,-8266,550,-50,37,19,-10973,0,1,-1003,-288,37524,289,26,79,0,0,0,0,0,0,0,0,-32316,0,0,0,4009,0,29540,0
23972,-98,-8300,550,-55,39,20,-10973,3,-1,-1000,-304,37526,291,26,79,0,0,0,0,0,0,0,0,-32316,0,0,0,4009,0,29560,0
23982,-120,-8278,582,-52,42,13,-10975,-5,-5,-1002,-296,37526,289,26,79,0,0,0,0,0,0,0,0,-32317,0,0,0,4010,0,29580,0
23992,-124,-8254,574,-53,42,16,-10974,0,1,-1005,-296,37528,299,26,79,0,0,0,0,0,0,0,0,-32317,0,0,0,4010,0,29600,0
24002,-136,-8310,578,-51,43,25,-10973,2,5,-1003,-280,37527,300,26,79,0,0,0,0,0,0,0,0,-32316,0,0,0,4010,0,29620,0
24012,-186,-8296,596,-60,41,18,-10974,-7,-2,-999,-288,37528,295,26,79,0,0,0,0,0,0,0,0,-32316,0,0,0,4010,0,29640,0
24022,-72,-8292,576,-61,44,21,-10975,-6,-13,-997,-288,37522,292,26,79,0,0,0,0,0,0,0,0,-32316,0,0,0,4010,0,29660,0
24032,-102,-8276,554,-59,37,29,-10972,-1,1,-1003,-288,37521,294,26,79,0,0,0,0,0,0,0,0,-32316,0,0,0,4011,0,29680,0
24042,-48,-8292,586,-63,43,20,-10975,-9,-5,-1000,-288,37518,304,26,79,0,0,0,0,0,0,0,0,-32316,0,0,0,4010,0,29700,0
24052,-76,-8268,574,-58,44,27,-10972,2,0,-999,-288,37520,302,26,79,0,0,0,0,0,0,0,0,-32316,0,0,0,4009,0,29720,0
24062,-146,-8280,576,-61,47,30,-10973,-7,-3,-999,-280,37520,301,26,79,0,0,0,0,0,0,0,0,-32316,0,0,0,4010,0,29740,0
24072,-132,-8256,578,-59,42,27,-10972,3,-3,-998,-296,37517,296,26,79,0,0,0,0,0,0,0,0,-32316,0,0,0,4010,0,29760,0
24082,-194,-8312,580,-61,45,23,-10971,10,8,-1001,-304,37517,295,26,79,0,0,0,0,0,0,0,0,-32316,0,0,0,4010,0,29780,0
24092,-146,-8254,534,-62,43,28,-10971,2,-1,-1005,-296,37519,290,26,79,0,0,0,0,0,0,0,0,-32316,0,0,0,4010,0,29800,0
24102,-154,-8286,538,-59,42,21,-10971,4,0,-1002,-288,37520,298,26,79,0,0,0,0,0,0,0,0,-32316,0,0,0,4010,0,29820,0
24112,-114,-8266,556,-62,47,13,-10971,2,4,-1002,-304,37522,308,26,79,0,0,0,0,0,0,0,0,-32316,0,0,0,4011,0,29840,0
24122,-142,-8270,604,-62,48,22,-10971,1,3,-1004,-296,37520,305,26,79,0,0,0,0,0,0,0,0,-32316,0,0,0,4011,0,29860,0
24132,-110,-8274,556,-68,45,25,-10971,2,1,-1003,-296,37522,297,26,79,0,0,0,0,0,0,0,0,-32316,0,0,0,4010,0,29880,0
24142,-72,-8314,544,-60,45,25,-10971,1,2,-1005,-288,37518,286,26,79,0,0,0,0,0,0,0,0,-32316,0,0,0,4011,0,29900,0
24152,-102,-8268,546,-59,45,32,-10971,-3,1,-1002,-280,37518,290,26,79,0,0,0,0,0,0,0,0,-32316,0,0,0,4011,0,29920,0
24162,-112,-8278,556,-66,45,30,-10970,0,1,-998,-296,37514,293,26,79,0,0,0,0,0,0,0,0,-32316,0,0,0,4011,0,29940,0
24172,-112,-8310,554,-57,48,29,-10971,-3,-6,-1004,-296,37514,290,26,79,0,0,0,0,0,0,0,0,-32316,0,0,0,4011,0,29960,0
24182,-136,-8266,554,-61,50,38,-10968,3,-4,-1001,-280,37517,291,26,79,0,0,0,0,0,0,0,0,-32316,0,0,0,4011,0,29980,0
24192,-110,-8258,566,-59,46,35,-10969,3,2,-1004,-288,37520,296,26,79,0,0,0,0,0,0,0,0,-32316,0,0,0,4010,0,30000,0
24202,-160,-8282,562,-62,46,31,-10969,0,4,-1003,-280,37516,302,26,79,0,0,0,0,0,0,0,0,-32316,0,0,0,4010,0,30020,0
24212,-120,-8276,532,-58,48,31,-10969,-4,-3,-998,-280,37519,311,26,79,0,0,0,0,0,0,0,0,-32316,0,0,0,4011,0,30040,0
24222,-174,-8282,516,-54,43,34,-10967,2,2,-1001,-280,37520,305,26,79,0,0,0,0,0,0,0,0,-32316,0,0,0,4011,0,30060,0
24232,-180,-8298,518,-50,50,38,-10966,0,4,-1008,-280,37522,306,26,79,0,0,0,0,0,0,0,0,-32316,0,0,0,4011,0,30080,0
24242,-112,-8282,550,-54,48,33,-10966,4,-2,-1001,-264,37519,300,26,79,0,0,0,0,0,0,0,0,-32316,0,0,0,4011,0,30100,0
24252,-122,-8308,590,-54,45,38,-10966,-4,1,-998,-264,37511,300,26,79,0,0,0,0,0,0,0,0,-32316,0,0,0,4011,0,30120,0
24262,-140,-8264,578,-53,46,35,-10965,-1,0,-1003,-272,37509,297,26,79,0,0,0,0,0,0,0,0,-32316,0,0,0,4012,0,30140,0
24272,-148,-8298,538,-52,50,28,-10963,5,2,-1000,-264,37509,294,26,79,0,0,0,0,0,0,0,0,-32316,0,0,0,4012,0,30160,0
24282,-168,-8268,540,-46,43,32,-10963,-1,-3,-999,-272,37511,295,26,79,0,0,0,0,0,0,0,0,-32316,0,0,0,4011,0,30180,0
24292,-200,-8314,530,-43,44,20,-10962,4,-1,-1002,-256,37510,302,26,79,0,0,0,0,0,0,0,0,-32316,0,0,0,4012,0,30200,0
24302,-268,-8290,542,-36,36,12,-10961,-6,-2,-1001,-272,37510,302,26,79,0,0,0,0,0,0,0,0,-32316,0,0,0,4012,0,30220,0
24312,-270,-8258,468,-34,32,0,-10961,5,1,-999,-264,37509,300,26,79,0,0,0,0,0,0,0,0,-32317,0,0,0,4011,0,30240,0
24322,-228,-8304,516,-30,36,-5,-10963,-9,-2,-1001,-264,37519,299,26,79,0,0,0,0,0,0,0,0,-32316,0,0,0,4012,0,30260,0
24332,-246,-8258,534,-18,24,-20,-10963,-5,-4,-1001,-272,37518,295,26,79,0,0,0,0,0,0,0,0,-32316,0,0,0,4012,0,30280,0
24342,-166,-8250,548,-20,29,-23,-10964,2,1,-1000,-264,37517,295,26,79,0,0,0,0,0,0,0,0,-32316,0,0,0,4012,0,30300,0
24352,-130,-8296,528,-26,26,-30,-10963,-1,0,-1004,-264,37510,295,26,79,0,0,0,0,0,0,0,0,-32316,0,0,0,4012,0,30320,0
24362,-114,-8302,552,-16,20,-35,-10965,-5,3,-998,-256,37510,296,26,79,0,0,0,0,0,0,0,0,-32316,0,0,0,4012,0,30340,0
24372,-80,-8262,554,-18,29,-31,-10967,-3,-1,-1004,-264,37510,301,26,79,0,0,0,0,0,0,0,0,-32316,0,0,0,4012,0,30360,0
24382,-64,-8292,574,-23,31,-30,-10967,0,-1,-998,-280,37508,300,26,79,0,0,0,0,0,0,0,0,-32316,0,0,0,4011,0,30380,0
24392,-36,-8296,554,-18,21,-19,-10970,-7,3,-997,-280,37508,297,26,79,0,0,0,0,0,0,0,0,-32316,0,0,0,4011,0,30400,0
24402,-106,-8328,604,-9,26,-11,-10969,0,0,-1001,-296,37509,297,26,79,0,0,0,0,0,0,0,0,-32316,0,0,0,4011,0,30420,0
24412,-44,-8164,328,5,18,-11,-10971,-1,5,-999,-288,37509,301,26,79,0,0,0,0,0,0,0,0,-32316,0,0,0,4011,0,30440,0
24422,-102,-8332,530,-10,18,-13,-10972,-4,-4,-999,-280,37517,296,26,79,0,0,0,0,0,0,0,0,-32316,0,0,0,4011,0,30460,0
24432,-82,-8248,686,-6,35,-6,-10975,-5,5,-1001,-296,37517,288,26,79,0,0,0,0,0,0,0,0,-32316,0,0,0,4011,0,30480,0
24442,-106,-8268,656,-17,35,-2,-10977,-9,-3,-1003,-280,37517,281,26,79,0,0,0,0,0,0,0,0,-32317,0,0,0,4010,0,30500,0
24452,-76,-8272,644,-29,31,-3,-10979,-14,-5,-1002,-272,37511,284,26,79,0,0,0,0,0,0,0,0,-32316,0,0,0,4010,0,30520,0
24462,-50,-8278,634,-33,41,1,-10979,0,2,-997,-272,37507,282,26,79,0,0,0,0,0,0,0,0,-32316,0,0,0,4010,0,30540,0
24472,-72,-8270,588,-38,33,2,-10980,-7,7,-1002,-272,37505,290,26,79,0,0,0,0,0,0,0,0,-32316,0,0,0,4009,0,30560,0
24482,-74,-8294,574,-36,37,2,-10981,1,0,-1000,-280,37508,295,26,79,0,0,0,0,0,0,0,0,-32316,0,0,0,4010,0,30580,0
24492,-92,-8262,600,-37,46,-3,-10983,-10,-4,-999,-272,37509,297,26,79,0,0,0,0,0,0,0,0,-32316,0,0,0,4009,0,30600,0
24502,-76,-8246,598,-43,42,12,-10985,-8,5,-998,-280,37509,294,26,79,0,0,0,0,0,0,0,0,-32316,0,0,0,4009,0,30620,0
24512,-38,-8304,612,-47,45,13,-10983,5,0,-998,-280,37511,292,26,79,0,0,0,0,0,0,0,0,-32316,0,0,0,4010,0,30640,0
24522,-74,-8286,590,-52,43,22,-10984,-1,2,-1001,-288,37512,293,26,79,0,0,0,0,0,0,0,0,-32316,0,0,0,4009,0,30660,0
24532,-142,-8264,582,-49,40,25,-10984,-8,-2,-1004,-288,37516,295,26,79,0,0,0,0,0,0,0,0,-32316,0,0,0,4009,0,30680,0
24542,-92,-8288,602,-47,43,30,-10984,-3,4,-1004,-288,37514,292,26,79,0,0,0,0,0,0,0,0,-32316,0,0,0,4009,0,30700,0
24552,-122,-8284,602,-51,41,23,-10983,-9,0,-999,-272,37515,293,26,79,0,0,0,0,0,0,0,0,-32316,0,0,0,4010,0,30720,0
24562,-74,-8270,604,-56,40,26,-10984,-5,5,-999,-272,37514,298,26,79,0,0,0,0,0,0,0,0,-32316,0,0,0,4009,0,30740,0
24572,-178,-8290,594,-48,43,27,-10983,-3,-2,-997,-280,37514,286,26,79,0,0,0,0,0,0,0,0,-32316,0,0,0,4009,0,30760,0
24582,-138,-8254,586,-55,38,19,-10983,-1,1,-1001,-264,37512,285,26,79,0,0,0,0,0,0,0,0,-32316,0,0,0,4010,0,30780,0
24592,-164,-8284,568,-51,45,18,-10983,0,-4,-1003,-272,37513,279,26,79,0,0,0,0,0,0,0,0,-32316,0,0,0,4010,0,30800,0
24602,-128,-8294,560,-51,42,21,-10982,4,-2,-999,-264,37515,279,26,79,0,0,0,0,0,0,0,0,-32316,0,0,0,4010,0,30821,0
24612,-72,-8280,576,-52,41,18,-10983,0,-2,-1001,-272,37517,276,26,79,0,0,0,0,0,0,0,0,-32317,0,0,0,4009,0,30841,0
24622,-180,-8272,592,-49,40,21,-10982,-2,-6,-1002,-264,37519,273,26,79,0,0,0,0,0,0,0,0,-32316,0,0,0,4010,0,30861,0
24632,-148,-8300,570,-57,38,19,-10982,-5,-3,-1002,-272,37522,284,26,79,0,0,0,0,0,0,0,0,-32316,0,0,0,4010,0,30881,0
24642,-144,-8282,576,-55,39,16,-10981,15,-2,-1001,-264,37531,288,26,79,0,0,0,0,0,0,0,0,-32316,0,0,0,4010,0,30901,0
24652,-148,-8264,572,-57,41,11,-10981,10,6,-1004,-272,37530,285,26,79,0,0,0,0,0,0,0,0,-32316,0,0,0,4009,0,30921,0
24662,-108,-8282,568,-58,38,11,-10981,7,0,-998,-264,37528,284,26,79,0,0,0,0,0,0,0,0,-32316,0,0,0,4010,0,30941,0
24672,-140,-8288,560,-53,37,8,-10983,1,1,-1001,-272,37517,298,26,79,0,0,0,0,0,0,0,0,-32317,0,0,0,4010,0,30961,0
24682,-102,-8268,578,-53,40,5,-10983,-7,0,-1001,-280,37518,296,26,79,0,0,0,0,0,0,0,0,-32316,0,0,0,4010,0,30981,0
24692,-88,-8284,574,-52,37,-2,-10983,2,5,-1005,-288,37518,306,26,79,0,0,0,0,0,0,0,0,-32317,0,0,0,4010,0,31001,0
24702,-110,-8294,538,-56,35,2,-10984,-2,0,-999,-280,37518,300,26,79,0,0,0,0,0,0,0,0,-32316,0,0,0,4010,0,31021,0
24712,-102,-8274,596,-48,38,3,-10983,-1,-7,-1002,-272,37514,299,26,79,0,0,0,0,0,0,0,0,-32316,0,0,0,4010,0,31041,0
24722,-40,-8254,590,-54,38,7,-10986,0,1,-1000,-280,37513,294,26,79,0,0,0,0,0,0,0,0,-32316,0,0,0,4009,0,31061,0
24732,-114,-8294,562,-50,41,9,-10987,-8,2,-1005,-296,37514,290,26,79,0,0,0,0,0,0,0,0,-32316,0,0,0,4010,0,31081,0
24742,-82,-8264,622,-53,43,9,-10987,0,-6,-1001,-304,37523,282,26,79,0,0,0,0,0,0,0,0,-32316,0,0,0,4009,0,31101,0
24752,-100,-8290,606,-54,42,9,-10986,0,5,-1002,-288,37522,282,26,79,0,0,0,0,0,0,0,0,-32316,0,0,0,4009,0,31121,0
24762,-72,-8288,614,-58,48,15,-10987,3,1,-998,-280,37523,289,26,79,0,0,0,0,0,0,0,0,-32316,0,0,0,4009,0,31141,0
24772,-76,-8248,574,-54,45,14,-10989,1,7,-1000,-296,37518,292,26,79,0,0,0,0,0,0,0,0,-32317,0,0,0,4008,0,31161,0
24782,-42,-8268,564,-53,43,18,-10990,-5,1,-1003,-296,37530,293,26,79,0,0,0,0,0,0,0,0,-32316,0,0,0,4009,0,31181,0
24792,-124,-8278,580,-55,45,23,-10988,4,0,-1002,-296,37532,295,26,79,0,0,0,0,0,0,0,0,-32316,0,0,0,4009,0,31201,0
24802,-110,-8278,602,-59,46,23,-10989,1,2,-1000,-296,37529,296,26,79,0,0,0,0,0,0,0,0,-32316,0,0,0,4008,0,31221,0
24812,-88,-8272,570,-58,45,24,-10987,10,1,-997,-288,37522,294,26,79,0,0,0,0,0,0,0,0,-32316,0,0,0,4009,0,31241,0
24822,-122,-8280,590,-56,47,27,-10989,0,3,-1001,-288,37520,292,26,79,0,0,0,0,0,0,0,0,-32316,0,0,0,4009,0,31261,0
24832,-156,-8266,576,-56,43,33,-10989,-5,-5,-1004,-296,37522,288,26,79,0,0,0,0,0,0,0,0,-32316,0,0,0,4009,0,31281,0
24842,-118,-8276,602,-61,48,29,-10987,0,-4,-1001,-288,37526,295,26,79,0,0,0,0,0,0,0,0,-32316,0,0,0,4009,0,31301,0
24852,-144,-8306,572,-57,47,25,-10987,0,-2,-1004,-288,37526,292,26,79,0,0,0,0,0,0,0,0,-32316,0,0,0,4010,0,31321,0
24862,-126,-8276,588,-56,41,25,-10987,5,-8,-1002,-288,37528,297,26,79,0,0,0,0,0,0,0,0,-32316,0,0,0,4009,0,31341,0
24872,-76,-8246,554,-54,42,28,-10989,-3,-2,-997,-280,37524,289,26,79,0,0,0,0,0,0,0,0,-32317,0,0,0,4009,0,31361,0
24882,-162,-8254,566,-53,49,25,-10988,0,-3,-1003,-304,37523,280,26,79,0,0,0,0,0,0,0,0,-32316,0,0,0,4009,0,31381,0
24892,-134,-8298,562,-51,45,26,-10986,5,5,-1000,-272,37523,281,26,79,0,0,0,0,0,0,0,0,-32316,0,0,0,4009,0,31401,0
24902,-132,-8266,574,-55,39,20,-10986,5,4,-1001,-288,37524,284,26,79,0,0,0,0,0,0,0,0,-32316,0,0,0,4009,0,31421,0
24912,-148,-8262,548,-49,42,26,-10986,-4,3,-999,-296,37522,292,26,79,0,0,0,0,0,0,0,0,-32317,0,0,0,4009,0,31441,0
24922,-116,-8298,568,-48,42,17,-10986,3,0,-1003,-296,37523,290,26,79,0,0,0,0,0,0,0,0,-32316,0,0,0,4009,0,31461,0
24932,-110,-8262,594,-50,40,15,-10986,-4,4,-1000,-296,37523,297,26,79,0,0,0,0,0,0,0,0,-32316,0,0,0,4009,0,31481,0
24942,-116,-8298,584,-53,46,18,-10985,3,-1,-1003,-296,37522,293,26,79,0,0,0,0,0,0,0,0,-32316,0,0,0,4009,0,31501,0
24952,-112,-8278,618,-53,38,17,-10985,0,0,-1001,-296,37527,301,26,79,0,0,0,0,0,0,0,0,-32316,0,0,0,4009,0,31521,0
24962,-120,-8262,600,-52,37,14,-10984,3,3,-999,-296,37526,294,26,79,0,0,0,0,0,0,0,0,-32316,0,0,0,4009,0,31541,0
24972,-96,-8270,584,-60,43,16,-10985,0,-1,-1003,-288,37524,289,26,79,0,0,0,0,0,0,0,0,-32316,0,0,0,4009,0,31561,0
24982,-126,-8272,564,-59,47,20,-10985,1,4,-1000,-304,37518,292,26,79,0,0,0,0,0,0,0,0,-32316,0,0,0,4010,0,31581,0
24992,-106,-8280,570,-58,45,19,-10986,-3,0,-1001,-296,37520,295,26,79,0,0,0,0,0,0,0,0,-32317,0,0,0,4009,0,31601,0
25002,-134,-8278,566,-60,42,21,-10986,0,-5,-997,-280,37522,298,26,79,0,0,0,0,0,0,0,0,-32316,0,0,0,4009,0,31621,0
25012,-136,-8288,576,-56,41,23,-10985,9,1,-999,-288,37523,294,26,79,0,0,0,0,0,0,0,0,-32316,0,0,0,4010,0,31641,0
25022,-118,-8308,584,-61,41,24,-10985,4,6,-999,-296,37519,295,26,79,0,0,0,0,0,0,0,0,-32316,0,0,0,4009,0,31661,0
25032,-120,-8300,540,-55,39,19,-10984,3,2,-1003,-288,37518,290,26,79,0,0,0,0,0,0,0,0,-32316,0,0,0,4010,0,31681,0
25042,-124,-8284,576,-56,36,17,-10984,1,-3,-1001,-296,37518,288,26,79,0,0,0,0,0,0,0,0,-32316,0,0,0,4010,0,31701,0
25052,-136,-8272,570,-55,44,11,-10983,2,4,-1007,-288,37526,283,26,79,0,0,0,0,0,0,0,0,-32316,0,0,0,4009,0,31721,0
25062,-158,-8296,574,-61,36,13,-10985,1,-1,-994,-280,37523,282,26,79,0,0,0,0,0,0,0,0,-32316,0,0,0,4009,0,31741,0
25072,-120,-8286,566,-59,38,3,-10985,-2,-2,-1001,-288,37520,280,26,79,0,0,0,0,0,0,0,0,-32316,0,0,0,4008,0,31761,0
25082,-170,-8282,550,-57,42,7,-10985,-9,2,-1003,-288,37516,289,26,79,0,0,0,0,0,0,0,0,-32316,0,0,0,4010,0,31781,0
25092,-146,-8292,592,-54,43,4,-10986,-3,-5,-1004,-280,37518,287,26,79,0,0,0,0,0,0,0,0,-32317,0,0,0,4008,0,31801,0
25102,-110,-8306,576,-54,38,4,-10984,0,6,-1002,-296,37517,289,26,79,0,0,0,0,0,0,0,0,-32316,0,0,0,4008,0,31821,0
25112,-146,-8280,568,-56,33,6,-10986,-9,1,-1002,-296,37515,294,26,79,0,0,0,0,0,0,0,0,-32316,0,0,0,4010,0,31841,0
25122,-78,-8290,554,-55,34,2,-10986,1,-6,-1000,-272,37513,292,26,79,0,0,0,0,0,0,0,0,-32316,0,0,0,4010,0,31861,0
25132,-110,-8260,572,-53,39,3,-10986,-11,-1,-1001,-288,37515,293,26,79,0,0,0,0,0,0,0,0,-32316,0,0,0,4009,0,31881,0
25142,-116,-8280,564,-54,35,0,-10986,4,0,-1001,-288,37518,293,26,79,0,0,0,0,0,0,0,0,-32316,0,0,0,4010,0,31901,0
25152,-76,-8286,574,-50,32,-1,-10986,-3,5,-1005,-288,37518,297,26,79,0,0,0,0,0,0,0,0,-32316,0,0,0,4009,0,31921,0
25162,-94,-8282,570,-56,36,0,-10988,0,-3,-997,-304,37523,296,26,79,0,0,0,0,0,0,0,0,-32316,0,0,0,4008,0,31941,0
25172,-118,-8276,584,-55,35,-4,-10987,-1,2,-1002,-288,37520,292,26,79,0,0,0,0,0,0,0,0,-32316,0,0,0,4009,0,31961,0
25182,-106,-8306,580,-52,37,-1,-10987,7,-1,-1003,-296,37520,293,26,79,0,0,0,0,0,0,0,0,-32316,0,0,0,4009,0,31981,0
25192,-82,-8296,570,-53,45,1,-10991,-5,1,-1003,-288,37515,289,26,79,0,0,0,0,0,0,0,0,-32316,0,0,0,4009,0,32001,0
25202,-96,-8304,562,-58,35,8,-10990,-3,-4,-1004,-296,37516,288,26,79,0,0,0,0,0,0,0,0,-32316,0,0,0,4009,0,32021,0
25212,-120,-8274,568,-55,33,7,-10990,-3,0,-1000,-304,37515,289,26,79,0,0,0,0,0,0,0,0,-32316,0,0,0,4009,0,32041,0
25222,-50,-8262,578,-53,39,9,-10992,-1,2,-998,-296,37513,284,26,79,0,0,0,0,0,0,0,0,-32316,0,0,0,4009,0,32061,0
25232,-122,-8288,600,-61,36,11,-10992,-3,-4,-1001,-296,37513,283,26,79,0,0,0,0,0,0,0,0,-32317,0,0,0,4009,0,32081,0
25242,-110,-8306,576,-58,43,8,-10992,5,0,-1002,-296,37513,281,26,79,0,0,0,0,0,0,0,0,-32316,0,0,0,4008,0,32101,0
25252,-110,-8280,564,-58,49,3,-10994,4,2,-998,-304,37513,276,26,79,0,0,0,0,0,0,0,0,-32316,0,0,0,4008,0,32121,0
25262,-114,-8254,566,-58,40,4,-10995,-8,-4,-996,-296,37512,280,26,79,0,0,0,0,0,0,0,0,-32316,0,0,0,4007,0,32141,0
25272,-74,-8280,562,-59,46,1,-10996,-6,6,-998,-304,37517,273,26,79,0,0,0,0,0,0,0,0,-32316,0,0,0,4006,0,32161,0
25282,-138,-8288,554,-60,37,5,-10997,-1,3,-1001,-312,37519,271,26,79,0,0,0,0,0,0,0,0,-32316,0,0,0,4007,0,32181,0
25292,-94,-8268,574,-57,40,4,-10998,1,-1,-1001,-296,37523,276,26,79,0,0,0,0,0,0,0,0,-32316,0,0,0,4007,0,32201,0
25302,-38,-8264,556,-58,41,5,-10999,0,0,-1001,-296,37519,283,26,79,0,0,0,0,0,0,0,0,-32316,0,0,0,4008,0,32221,0
25312,-88,-8286,568,-59,37,8,-11000,0,4,-997,-296,37517,287,26,79,0,0,0,0,0,0,0,0,-32316,0,0,0,4007,0,32241,0
25322,-72,-8282,576,-61,36,14,-11000,-1,-1,-999,-296,37516,288,26,79,0,0,0,0,0,0,0,0,-32316,0,0,0,4007,0,32261,0
25332,-48,-8256,564,-58,44,16,-11001,3,2,-1003,-304,37517,281,26,79,0,0,0,0,0,0,0,0,-32316,0,0,0,4008,0,32281,0
25342,-116,-8282,568,-60,40,20,-11001,0,-3,-1005,-296,37517,286,26,79,0,0,0,0,0,0,0,0,-32316,0,0,0,4008,0,32301,0
25352,-86,-8282,582,-57,41,20,-11000,3,-3,-999,-296,37513,290,26,79,0,0,0,0,0,0,0,0,-32316,0,0,0,4007,0,32321,0
25362,-106,-8296,546,-57,46,21,-11001,1,5,-995,-288,37510,287,26,79,0,0,0,0,0,0,0,0,-32316,0,0,0,4006,0,32341,0
25372,-130,-8314,578,-57,41,22,-11002,-7,-1,-1002,-296,37513,287,26,79,0,0,0,0,0,0,0,0,-32316,0,0,0,4008,0,32361,0
25382,-120,-8262,564,-53,42,26,-11000,0,-2,-1002,-304,37518,283,26,79,0,0,0,0,0,0,0,0,-32316,0,0,0,4007,0,32381,0
25392,-122,-8286,558,-52,44,24,-11001,1,2,-1001,-296,37517,281,26,79,0,0,0,0,0,0,0,0,-32316,0,0,0,4008,0,32401,0
25402,-134,-8284,552,-50,40,22,-10999,5,-4,-999,-296,37514,276,26,79,0,0,0,0,0,0,0,0,-32316,0,0,0,4007,0,32421,0
25412,-132,-8288,586,-56,42,25,-10998,14,3,-997,-288,37505,279,26,79,0,0,0,0,0,0,0,0,-32316,0,0,0,4008,0,32441,0
25422,-108,-8274,570,-55,45,18,-11000,6,3,-999,-288,37505,281,26,79,0,0,0,0,0,0,0,0,-32316,0,0,0,4008,0,32461,0
25432,-104,-8290,582,-52,37,17,-11000,3,3,-1000,-296,37507,289,26,79,0,0,0,0,0,0,0,0,-32316,0,0,0,4007,0,32481,0
25442,-110,-8278,576,-52,44,18,-11000,-1,-3,-1000,-296,37507,284,26,79,0,0,0,0,0,0,0,0,-32316,0,0,0,4006,0,32501,0
25452,-122,-8270,552,-56,41,20,-10999,1,5,-999,-312,37508,283,26,79,0,0,0,0,0,0,0,0,-32316,0,0,0,4006,0,32521,0
25462,-172,-8276,538,-51,38,18,-11001,-6,-1,-999,-296,37507,278,26,79,0,0,0,0,0,0,0,0,-32316,0,0,0,4007,0,32541,0
25472,-148,-8270,542,-52,41,20,-11000,-3,3,-1000,-304,37508,289,26,79,0,0,0,0,0,0,0,0,-32316,0,0,0,4006,0,32561,0
25482,-156,-8266,558,-51,42,19,-10999,3,1,-1000,-304,37514,294,26,79,0,0,0,0,0,0,0,0,-32316,0,0,0,4008,0,32581,0
25492,-166,-8274,558,-51,39,14,-10998,6,3,-1002,-304,37514,289,26,79,0,0,0,0,0,0,0,0,-32316,0,0,0,4008,0,32601,0
25502,-118,-8278,554,-49,37,19,-11001,-13,-1,-1001,-304,37514,285,26,79,0,0,0,0,0,0,0,0,-32316,0,0,0,4007,0,32621,0
25512,-130,-8278,582,-46,34,19,-11000,-6,3,-999,-288,37510,284,26,79,0,0,0,0,0,0,0,0,-32316,0,0,0,4006,0,32641,0
25522,-132,-8298,562,-44,43,13,-11000,4,0,-1001,-304,37512,284,26,79,0,0,0,0,0,0,0,0,-32316,0,0,0,4006,0,32661,0
25532,-116,-8280,534,-54,41,11,-10999,1,6,-1000,-304,37512,291,26,79,0,0,0,0,0,0,0,0,-32316,0,0,0,4006,0,32681,0
25542,-144,-8234,578,-46,43,13,-11000,-3,1,-1001,-304,37510,289,26,79,0,0,0,0,0,0,0,0,-32316,0,0,0,4007,0,32701,0
25552,-110,-8302,580,-49,39,15,-11000,-4,4,-999,-296,37509,289,26,79,0,0,0,0,0,0,0,0,-32316,0,0,0,4007,0,32721,0
25562,-124,-8282,576,-49,38,7,-11000,0,0,-997,-296,37509,289,26,79,0,0,0,0,0,0,0,0,-32316,0,0,0,4007,0,32741,0
25572,-124,-8260,554,-53,37,8,-11000,-1,-3,-1002,-288,37511,287,26,79,0,0,0,0,0,0,0,0,-32316,0,0,0,4006,0,32761,0
25582,-112,-8268,562,-52,38,9,-10999,-3,3,-1000,-312,37515,284,26,79,0,0,0,0,0,0,0,0,-32316,0,0,0,4006,0,32781,0
25592,-126,-8282,570,-53,36,13,-11000,0,-2,-1002,-304,37518,283,26,79,0,0,0,0,0,0,0,0,-32316,0,0,0,4007,0,32801,0
25602,-60,-8258,562,-44,41,8,-11000,3,4,-999,-304,37520,281,26,79,0,0,0,0,0,0,0,0,-32316,0,0,0,4007,0,32822,0
25612,-138,-8306,576,-53,41,10,-11000,1,-4,-1003,-304,37515,286,26,79,0,0,0,0,0,0,0,0,-32316,0,0,0,4007,0,32842,0
25622,-50,-8304,580,-53,42,13,-11001,-6,2,-1000,-296,37513,284,26,79,0,0,0,0,0,0,0,0,-32316,0,0,0,4008,0,32862,0
25632,-88,-8286,560,-47,38,13,-11001,1,1,-1001,-304,37512,291,26,79,0,0,0,0,0,0,0,0,-32316,0,0,0,4006,0,32882,0
25642,-116,-8262,574,-46,36,13,-11000,2,6,-1001,-304,37515,291,26,79,0,0,0,0,0,0,0,0,-32317,0,0,0,4007,0,32902,0
25652,-126,-8276,572,-50,44,16,-11000,5,-2,-998,-288,37518,295,26,79,0,0,0,0,0,0,0,0,-32316,0,0,0,4008,0,32922,0
25662,-142,-8286,562,-52,33,12,-11001,-5,-2,-999,-296,37516,284,26,79,0,0,0,0,0,0,0,0,-32316,0,0,0,4006,0,32942,0
25672,-112,-8288,576,-53,46,16,-11000,-1,-2,-1002,-288,37514,280,26,79,0,0,0,0,0,0,0,0,-32316,0,0,0,4006,0,32962,0
25682,-116,-8290,576,-49,36,11,-11001,0,0,-1001,-304,37519,286,26,79,0,0,0,0,0,0,0,0,-32316,0,0,0,4006,0,32982,0
25692,-134,-8294,582,-49,44,12,-11002,4,2,-999,-296,37531,288,26,79,0,0,0,0,0,0,0,0,-32316,0,0,0,4006,0,33002,0
25702,-88,-8250,590,-55,41,13,-11000,8,-3,-1001,-296,37529,287,26,79,0,0,0,0,0,0,0,0,-32316,0,0,0,4007,0,33022,0
25712,-92,-8252,572,-53,43,15,-11001,1,1,-999,-288,37526,282,26,79,0,0,0,0,0,0,0,0,-32316,0,0,0,4008,0,33042,0
25722,-74,-8286,568,-50,37,11,-11001,6,1,-1002,-288,37515,289,26,79,0,0,0,0,0,0,0,0,-32316,0,0,0,4007,0,33062,0
25732,-74,-8296,550,-48,43,12,-11001,6,5,-1000,-304,37520,290,26,79,0,0,0,0,0,0,0,0,-32316,0,0,0,4006,0,33082,0
25742,-82,-8286,550,-48,44,15,-11002,-1,5,-999,-288,37520,293,26,79,0,0,0,0,0,0,0,0,-32316,0,0,0,4006,0,33102,0
25752,-70,-8272,548,-48,44,17,-11002,-1,-2,-1002,-288,37519,285,26,79,0,0,0,0,0,0,0,0,-32316,0,0,0,4007,0,33122,0
25762,-108,-8268,550,-47,41,23,-11002,-3,-1,-999,-288,37515,277,26,79,0,0,0,0,0,0,0,0,-32316,0,0,0,4006,0,33142,0
25772,-104,-8290,582,-49,41,21,-11003,-6,0,-1002,-288,37519,279,26,79,0,0,0,0,0,0,0,0,-32317,0,0,0,4008,0,33162,0
25782,-92,-8280,560,-49,45,21,-11001,3,0,-1002,-304,37522,283,26,79,0,0,0,0,0,0,0,0,-32316,0,0,0,4006,0,33182,0
25792,-126,-8262,576,-48,43,22,-11002,-5,3,-1001,-288,37527,293,26,79,0,0,0,0,0,0,0,0,-32316,0,0,0,4007,0,33202,0
25802,-116,-8304,560,-46,42,17,-11002,-3,3,-999,-296,37527,294,26,79,0,0,0,0,0,0,0,0,-32316,0,0,0,4007,0,33222,0
25812,-74,-8278,572,-47,46,22,-11000,0,-2,-998,-304,37526,291,26,79,0,0,0,0,0,0,0,0,-32316,0,0,0,4008,0,33242,0
25822,-138,-8290,562,-51,44,13,-11001,1,2,-1000,-296,37522,294,26,79,0,0,0,0,0,0,0,0,-32316,0,0,0,4006,0,33262,0
25832,-72,-8264,542,-45,38,14,-11001,-1,0,-999,-312,37521,289,26,79,0,0,0,0,0,0,0,0,-32316,0,0,0,4008,0,33282,0
25842,-152,-8294,556,-43,39,15,-11000,-1,1,-1002,-312,37521,292,26,79,0,0,0,0,0,0,0,0,-32316,0,0,0,4007,0,33302,0
25852,-138,-8270,552,-52,40,19,-11001,-1,4,-999,-288,37521,286,26,79,0,0,0,0,0,0,0,0,-32316,0,0,0,4008,0,33322,0
25862,-138,-8284,568,-46,35,16,-11001,0,-2,-1001,-304,37521,288,26,79,0,0,0,0,0,0,0,0,-32316,0,0,0,4007,0,33342,0
25872,-76,-8282,604,-51,41,12,-11000,5,2,-999,-296,37522,287,26,79,0,0,0,0,0,0,0,0,-32316,0,0,0,4008,0,33362,0
25882,-88,-8298,582,-45,40,15,-11002,-13,-2,-1004,-304,37522,292,26,79,0,0,0,0,0,0,0,0,-32316,0,0,0,4008,0,33382,0
25892,-66,-8286,590,-51,42,21,-11001,4,-4,-1002,-296,37522,288,26,79,0,0,0,0,0,0,0,0,-32316,0,0,0,4008,0,33402,0
25902,-52,-8282,568,-56,44,27,-11001,-1,-1,-997,-296,37526,297,26,79,0,0,0,0,0,0,0,0,-32317,0,0,0,4007,0,33422,0
25912,-110,-8268,552,-51,41,27,-11002,-9,-5,-999,-304,37525,288,26,79,0,0,0,0,0,0,0,0,-32317,0,0,0,4007,0,33442,0
25922,-104,-8290,588,-48,46,30,-11001,0,-2,-1001,-296,37524,284,26,79,0,0,0,0,0,0,0,0,-32316,0,0,0,4007,0,33462,0
25932,-110,-8274,598,-53,37,21,-11000,-2,4,-999,-296,37522,274,26,79,0,0,0,0,0,0,0,0,-32316,0,0,0,4006,0,33482,0
25942,-154,-8278,590,-57,37,27,-11000,-7,-7,-1001,-304,37524,279,26,79,0,0,0,0,0,0,0,0,-32316,0,0,0,4008,0,33502,0
25952,-140,-8286,594,-63,39,16,-11000,1,-6,-997,-296,37524,289,26,79,0,0,0,0,0,0,0,0,-32316,0,0,0,4008,0,33522,0
25962,-142,-8290,580,-58,39,24,-11000,6,-1,-1001,-304,37527,282,26,79,0,0,0,0,0,0,0,0,-32316,0,0,0,4008,0,33542,0
25972,-108,-8270,558,-57,37,18,-10999,6,6,-1002,-304,37526,282,26,79,0,0,0,0,0,0,0,0,-32316,0,0,0,4008,0,33562,0
25982,-136,-8276,586,-58,45,17,-11000,-2,-4,-1002,-304,37527,284,26,79,0,0,0,0,0,0,0,0,-32316,0,0,0,4008,0,33582,0
25992,-178,-8264,592,-53,3,161,-10981,104,41,-405,0,37528,286,26,79,0,0,0,0,0,0,0,0,-32317,0,0,0,4008,0,33602,0
26002,1682,-8116,286,-39,-159,219,-10903,170,172,-325,0,37536,290,26,79,0,0,0,0,0,0,0,0,-32316,0,0,0,4016,1,33623,0
26012,524,-8274,564,20,-611,335,-10839,122,62,-250,0,37538,290,26,79,0,0,0,0,0,0,0,0,-32316,0,0,0,4024,1,33644,0
26022,56,-8206,192,45,-852,325,-10800,73,-89,-141,0,37539,279,26,79,0,0,0,0,0,0,0,0,-32316,0,0,0,4037,1,33664,0
26032,-640,-8510,820,-2,-261,322,-10754,111,-25,-207,0,37527,273,26,79,0,0,0,0,0,0,0,0,-32316,0,0,0,4050,1,33684,0
26042,-1298,-8278,1158,-52,-1,219,-10701,116,30,-224,0,37523,280,26,79,0,0,0,0,0,0,0,0,-32316,0,0,0,4056,0,33704,0
26052,-358,-8276,650,-81,84,93,-10663,76,-29,-160,0,37522,298,26,79,0,0,0,0,0,0,0,0,-32316,0,0,0,4059,0,33724,0
26062,192,-8322,514,-69,39,71,-10645,19,-75,-72,0,37536,305,26,79,0,0,0,0,0,0,0,0,-32316,0,0,0,4059,0,33744,0
26072,-330,-8282,572,-60,33,65,-10644,3,-71,-1,0,37546,311,26,79,0,0,0,0,0,0,0,0,-32316,0,0,0,4059,0,33764,0
26082,-410,-8268,632,-61,52,52,-10641,11,-18,-20,0,37553,312,26,79,0,0,0,0,0,0,0,0,-32316,0,0,0,4061,0,33784,0
26092,-242,-8272,528,-66,60,29,-10638,6,8,-25,0,37545,323,26,79,0,0,0,0,0,0,0,0,-32316,0,0,0,4061,0,33804,0
26102,-64,-8288,434,-61,69,30,-10636,8,-1,-19,0,37538,317,26,79,0,0,0,0,0,0,0,0,-32316,0,0,0,4061,0,33824,0
26112,-14,-8288,406,-40,40,54,-10633,2,-4,-22,0,37526,310,26,79,0,0,0,0,0,0,0,0,-32316,0,0,0,4062,0,33844,0
26122,-134,-8260,498,-36,24,76,-10626,9,-1,-40,0,37522,310,26,79,0,0,0,0,0,0,0,0,-32316,0,0,0,4061,0,33864,0
26132,-236,-8286,584,-33,20,90,-10613,34,15,-79,0,37522,323,26,79,0,0,0,0,0,0,0,0,-32316,0,0,0,4064,0,33884,0
26142,-24,-8276,602,-36,9,109,-10589,44,33,-108,0,37520,317,26,79,0,0,0,0,0,0,0,0,-32316,0,0,0,4064,0,33904,0
26152,-242,-8272,688,-49,20,80,-10579,11,-10,-43,0,37522,305,26,79,0,0,0,0,0,0,0,0,-32317,0,0,0,4066,0,33924,0
26162,-534,-8298,670,-50,50,56,-10577,0,-41,-19,0,37520,294,26,79,0,0,0,0,0,0,0,0,-32316,0,0,0,4067,0,33944,0
26172,-316,-8284,572,-55,59,35,-10570,17,-6,-28,0,37520,291,26,79,0,0,0,0,0,0,0,0,-32316,0,0,0,4067,0,33964,0
26182,-118,-8272,506,-53,55,44,-10565,16,2,-33,0,37520,298,26,79,0,0,0,0,0,0,0,0,-32316,0,0,0,4069,0,33984,0
26192,-102,-8288,484,-40,26,69,-10557,22,7,-50,0,37519,296,26,79,0,0,0,0,0,0,0,0,-32316,0,0,0,4068,0,34004,0
26202,-122,-8282,544,-44,14,87,-10542,35,19,-78,0,37520,304,26,79,0,0,0,0,0,0,0,0,-32316,0,0,0,4070,0,34024,0
26212,-202,-8294,606,-40,22,72,-10528,23,12,-68,0,37524,308,26,79,0,0,0,0,0,0,0,0,-32316,0,0,0,4070,0,34044,0
26222,-400,-8264,622,-44,34,52,-10524,-2,-16,-24,0,37521,309,26,79,0,0,0,0,0,0,0,0,-32316,0,0,0,4072,0,34064,0
26232,-334,-8290,538,-43,59,30,-10519,6,-22,-18,0,37522,310,26,79,0,0,0,0,0,0,0,0,-32317,0,0,0,4072,0,34084,0
26242,-180,-8270,526,-40,54,28,-10516,3,3,-19,0,37518,311,26,79,0,0,0,0,0,0,0,0,-32316,0,0,0,4072,0,34104,0
26252,-138,-8290,546,-29,31,38,-10511,18,5,-23,0,37518,317,26,79,0,0,0,0,0,0,0,0,-32316,0,0,0,4071,0,34124,0
26262,-236,-8290,606,-30,27,48,-10507,17,4,-36,0,37517,321,26,79,0,0,0,0,0,0,0,0,-32316,0,0,0,4073,0,34144,0
26272,-256,-8272,622,-36,21,61,-10495,29,24,-70,0,37516,325,26,79,0,0,0,0,0,0,0,0,-32316,0,0,0,4074,0,34164,0
26282,18,-8268,610,-38,6,82,-10469,54,38,-104,0,37519,324,26,79,0,0,0,0,0,0,0,0,-32316,0,0,0,4076,0,34184,0
26292,-296,-8210,560,-40,11,53,-10466,-5,-14,-14,0,37519,329,26,79,0,0,0,0,0,0,0,0,-32317,0,0,0,4076,0,34204,0
26302,-552,-8274,640,-47,41,36,-10464,5,-41,-7,0,37517,324,26,79,0,0,0,0,0,0,0,0,-32316,0,0,0,4077,0,34224,0
26312,-400,-8274,574,-42,45,-1,-10462,11,-4,-3,0,37522,331,26,79,0,0,0,0,0,0,0,0,-32316,0,0,0,4077,0,34244,0
26322,-194,-8268,548,-38,49,-4,-10464,3,-3,2,0,37523,335,26,79,0,0,0,0,0,0,0,0,-32316,0,0,0,4078,0,34264,0
26332,-140,-8260,568,-40,25,5,-10464,3,0,0,0,37524,336,26,79,0,0,0,0,0,0,0,0,-32316,0,0,0,4077,0,34284,0
26342,-222,-8268,636,-41,22,8,-10465,-1,-4,0,0,37518,334,26,79,0,0,0,0,0,0,0,0,-32316,0,0,0,4077,0,34304,0
26352,-324,-8274,612,-50,36,0,-10465,3,1,1,0,37517,335,26,79,0,0,0,0,0,0,0,0,-32316,0,0,0,4077,0,34324,0
26362,-200,-8298,600,-46,37,-4,-10464,-3,0,1,0,37515,328,26,79,0,0,0,0,0,0,0,0,-32316,0,0,0,4077,0,34344,0
26372,-78,-8268,546,-50,32,1,-10465,-3,-1,0,0,37516,327,26,79,0,0,0,0,0,0,0,0,-32316,0,0,0,4077,0,34364,0
26382,-100,-8302,570,-45,30,6,-10464,7,4,1,0,37516,328,26,79,0,0,0,0,0,0,0,0,-32316,0,0,0,4076,0,34383,0
26392,-196,-8262,634,-47,33,18,-10466,-9,-5,-1,0,37515,334,26,79,0,0,0,0,0,0,0,0,-32316,0,0,0,4077,0,34403,0
26402,-228,-8264,698,-52,39,16,-10465,3,-1,0,0,37513,329,26,79,0,0,0,0,0,0,0,0,-32316,0,0,0,4077,0,34424,0
26412,-188,-8268,686,-69,47,21,-10464,-5,2,0,0,37512,324,26,79,0,0,0,0,0,0,0,0,-32316,0,0,0,4076,0,34443,0
26422,-160,-8294,632,-76,45,21,-10465,-5,5,-4,0,37514,329,26,79,0,0,0,0,0,0,0,0,-32317,0,0,0,4076,0,34463,0
26432,-172,-8262,594,-76,46,30,-10465,2,1,0,0,37516,339,26,79,0,0,0,0,0,0,0,0,-32316,0,0,0,4077,0,34483,0
26442,-200,-8300,564,-74,41,26,-10463,5,4,-1,0,37518,341,26,79,0,0,0,0,0,0,0,0,-32316,0,0,0,4076,0,34503,0
26452,-240,-8292,536,-73,42,23,-10463,4,1,-3,0,37515,333,26,79,0,0,0,0,0,0,0,0,-32316,0,0,0,4077,0,34523,0
26462,-240,-8260,550,-67,39,24,-10464,0,0,-3,0,37515,326,26,79,0,0,0,0,0,0,0,0,-32316,0,0,0,4077,0,34543,0
26472,-282,-8290,562,-60,36,17,-10463,0,0,-4,0,37517,327,26,79,0,0,0,0,0,0,0,0,-32316,0,0,0,4078,0,34563,0
26482,-270,-8258,524,-62,40,14,-10463,-3,0,0,0,37517,325,26,79,0,0,0,0,0,0,0,0,-32316,0,0,0,4076,0,34583,0
26492,-224,-8256,550,-58,37,11,-10462,1,-1,1,0,37517,330,26,79,0,0,0,0,0,0,0,0,-32316,0,0,0,4077,0,34604,0
26502,-220,-8274,548,-57,41,10,-10463,3,-3,0,0,37515,328,26,79,0,0,0,0,0,0,0,0,-32316,0,0,0,4077,0,34628,0
26512,-234,-8290,564,-50,37,9,-10462,3,4,0,0,37517,329,26,79,0,0,0,0,0,0,0,0,-32316,0,0,0,4077,0,34649,0
26522,-222,-8248,566,-51,34,4,-10464,-12,2,0,0,37518,320,26,79,0,0,0,0,0,0,0,0,-32316,0,0,0,4076,0,34669,0
26532,-204,-8286,570,-45,40,2,-10465,-12,-3,2,0,37523,329,26,79,0,0,0,0,0,0,0,0,-32316,0,0,0,4077,0,34689,0
26542,-186,-8292,556,-49,33,0,-10464,-6,-2,1,0,37521,330,26,79,0,0,0,0,0,0,0,0,-32317,0,0,0,4077,0,34709,0
26552,-182,-8284,574,-44,36,7,-10465,-4,3,0,0,37519,329,26,79,0,0,0,0,0,0,0,0,-32317,0,0,0,4077,0,34729,0
26562,-160,-8310,578,-49,38,7,-10464,4,3,0,0,37515,328,26,79,0,0,0,0,0,0,0,0,-32316,0,0,0,4077,0,34749,0
26572,-168,-8300,594,-46,40,14,-10465,0,1,0,0,37520,332,26,79,0,0,0,0,0,0,0,0,-32316,0,0,0,4077,0,34769,0
26582,-158,-8306,584,-46,32,15,-10463,1,7,0,0,37520,333,26,79,0,0,0,0,0,0,0,0,-32316,0,0,0,4076,0,34789,0
26592,-160,-8290,586,-46,41,23,-10463,5,5,-2,0,37519,328,26,79,0,0,0,0,0,0,0,0,-32316,0,0,0,4077,0,34809,0
26602,-178,-8286,584,-54,43,19,-10464,-3,-1,0,0,37521,319,26,79,0,0,0,0,0,0,0,0,-32316,0,0,0,4077,0,34830,0
26612,-180,-8272,610,-49,45,21,-10463,-2,-5,0,0,37527,324,26,79,0,0,0,0,0,0,0,0,-32316,0,0,0,4077,0,34850,0
26622,-186,-8276,592,-47,45,25,-10463,10,1,-3,0,37530,326,26,79,0,0,0,0,0,0,0,0,-32316,0,0,0,4077,0,34870,0
26632,-176,-8314,606,-53,41,29,-10463,-3,-4,0,0,37531,326,26,79,0,0,0,0,0,0,0,0,-32316,0,0,0,4077,0,34890,0
26642,-208,-8268,588,-56,49,27,-10463,2,1,0,0,37528,330,26,79,0,0,0,0,0,0,0,0,-32316,0,0,0,4077,0,34910,0
26652,-218,-8276,582,-54,46,29,-10463,7,-1,-2,0,37530,334,26,79,0,0,0,0,0,0,0,0,-32316,0,0,0,4077,0,34930,0
26662,-196,-8270,564,-60,43,30,-10464,-2,-3,0,0,37527,337,26,79,0,0,0,0,0,0,0,0,-32316,0,0,0,4077,0,34950,0
26672,-226,-8278,590,-54,44,29,-10462,5,2,-3,0,37526,333,26,79,0,0,0,0,0,0,0,0,-32316,0,0,0,4077,0,34970,0
26682,-240,-8264,608,-56,39,25,-10461,5,-1,-4,0,37523,333,26,79,0,0,0,0,0,0,0,0,-32316,0,0,0,4076,0,34990,0
26692,-228,-8292,608,-57,46,28,-10462,5,6,-4,0,37521,329,26,79,0,0,0,0,0,0,0,0,-32316,0,0,0,4077,0,35010,0
26702,-206,-8280,618,-61,36,26,-10462,-4,-4,-4,0,37521,325,26,79,0,0,0,0,0,0,0,0,-32317,0,0,0,4077,0,35030,0
26712,-214,-8260,590,-60,42,21,-10462,-1,1,-2,0,37519,322,26,79,0,0,0,0,0,0,0,0,-32316,0,0,0,4077,0,35050,0
26722,-230,-8284,568,-59,40,21,-10460,-2,1,-5,0,37519,321,26,79,0,0,0,0,0,0,0,0,-32316,0,0,0,4077,0,35070,0
26732,-244,-8268,578,-57,40,17,-10458,8,-3,-3,0,37526,327,26,79,0,0,0,0,0,0,0,0,-32317,0,0,0,4077,0,35090,0
26742,-220,-8268,542,-58,41,18,-10460,3,1,0,0,37529,328,26,79,0,0,0,0,0,0,0,0,-32316,0,0,0,4076,0,35110,0
26752,-236,-8292,562,-52,38,11,-10459,1,-7,-1,0,37529,331,26,79,0,0,0,0,0,0,0,0,-32316,0,0,0,4077,0,35130,0
26762,-242,-8292,560,-57,39,9,-10459,0,-6,0,0,37525,333,26,79,0,0,0,0,0,0,0,0,-32316,0,0,0,4077,0,35150,0
26772,-220,-8270,582,-48,36,10,-10462,-4,0,-1,0,37524,333,26,79,0,0,0,0,0,0,0,0,-32317,0,0,0,4077,0,35170,0
26782,-234,-8290,582,-56,38,2,-10460,-4,2,1,0,37525,328,26,79,0,0,0,0,0,0,0,0,-32316,0,0,0,4076,0,35190,0
26792,-196,-8276,578,-59,36,5,-10460,0,0,0,0,37526,330,26,79,0,0,0,0,0,0,0,0,-32316,0,0,0,4077,0,35210,0
26802,-178,-8264,566,-54,35,7,-10460,-7,-2,0,0,37523,328,26,79,0,0,0,0,0,0,0,0,-32316,0,0,0,4078,0,35230,0
26812,-174,-8304,574,-61,41,10,-10459,2,-2,0,0,37523,331,26,79,0,0,0,0,0,0,0,0,-32316,0,0,0,4077,0,35250,0
26822,-178,-8268,578,-54,43,11,-10461,-11,-5,-1,0,37527,331,26,79,0,0,0,0,0,0,0,0,-32316,0,0,0,4077,0,35270,0
26832,-216,-8254,576,-51,40,14,-10459,8,-4,3,0,37531,336,26,79,0,0,0,0,0,0,0,0,-32316,0,0,0,4077,0,35290,0
26842,-188,-8296,564,-56,41,13,-10458,5,0,-1,0,37538,347,26,79,0,0,0,0,0,0,0,0,-32316,0,0,0,4077,0,35310,0
26852,-192,-8292,570,-57,42,16,-10460,1,2,1,0,37533,336,26,79,0,0,0,0,0,0,0,0,-32316,0,0,0,4077,0,35330,0
26862,-184,-8290,572,-57,43,13,-10460,2,-1,0,0,37533,336,26,79,0,0,0,0,0,0,0,0,-32316,0,0,0,4076,0,35350,0
26872,-190,-8298,558,-61,36,15,-10459,2,-1,-1,0,37535,345,26,79,0,0,0,0,0,0,0,0,-32316,0,0,0,4076,0,35370,0
26882,-214,-8274,570,-54,42,16,-10460,0,-1,-1,0,37531,345,26,79,0,0,0,0,0,0,0,0,-32316,0,0,0,4077,0,35390,0
26892,-214,-8270,572,-53,41,17,-10461,-6,4,0,0,37528,335,26,79,0,0,0,0,0,0,0,0,-32316,0,0,0,4077,0,35410,0
26902,-176,-8264,542,-55,40,20,-10460,-10,-2,-1,0,37526,334,26,79,0,0,0,0,0,0,0,0,-32317,0,0,0,4077,0,35430,0
26912,-168,-8298,560,-51,44,26,-10460,3,-5,1,0,37527,335,26,79,0,0,0,0,0,0,0,0,-32316,0,0,0,4077,0,35450,0
26922,-196,-8252,580,-53,41,28,-10460,-7,3,-2,0,37528,330,26,79,0,0,0,0,0,0,0,0,-32316,0,0,0,4077,0,35470,0
26932,-212,-8276,578,-53,40,24,-10459,-3,5,-1,0,37526,329,26,79,0,0,0,0,0,0,0,0,-32316,0,0,0,4077,0,35490,0
26942,-212,-8278,580,-49,39,25,-10461,-2,-7,0,0,37529,322,26,79,0,0,0,0,0,0,0,0,-32317,0,0,0,4078,0,35510,0
26952,-196,-8276,586,-53,44,20,-10461,-7,-1,-3,0,37529,326,26,79,0,0,0,0,0,0,0,0,-32316,0,0,0,4077,0,35530,0
26962,-186,-8260,578,-53,45,24,-10458,1,0,-2,0,37532,326,26,79,0,0,0,0,0,0,0,0,-32317,0,0,0,4078,0,35550,0
26972,-216,-8282,586,-49,40,25,-10459,0,1,-5,0,37530,324,26,79,0,0,0,0,0,0,0,0,-32316,0,0,0,4077,0,35570,0
26982,-224,-8278,552,-48,39,25,-10457,7,4,-5,0,37524,322,26,79,0,0,0,0,0,0,0,0,-32316,0,0,0,4078,0,35590,0
26992,-236,-8268,550,-50,45,23,-10456,6,7,-6,0,37524,323,26,79,0,0,0,0,0,0,0,0,-32317,0,0,0,4078,0,35610,0
27002,-238,-8286,540,-47,39,25,-10458,3,-4,-6,0,37524,325,26,79,0,0,0,0,0,0,0,0,-32316,0,0,0,4077,0,35630,0
27012,-230,-8284,572,-46,35,20,-10457,4,-2,-3,0,37526,336,26,79,0,0,0,0,0,0,0,0,-32316,0,0,0,4078,0,35650,0
27022,-242,-8270,550,-45,38,11,-10455,1,4,-2,0,37526,340,26,79,0,0,0,0,0,0,0,0,-32316,0,0,0,4077,0,35670,0
27032,-220,-8304,550,-43,38,8,-10456,2,3,1,0,37525,341,26,79,0,0,0,0,0,0,0,0,-32316,0,0,0,4077,0,35690,0
27042,-236,-8272,562,-43,36,7,-10456,0,-1,1,0,37525,331,26,79,0,0,0,0,0,0,0,0,-32316,0,0,0,4077,0,35710,0
27052,-232,-8260,572,-43,39,6,-10457,-7,-2,0,0,37530,337,26,79,0,0,0,0,0,0,0,0,-32316,0,0,0,4078,0,35730,0
27062,-202,-8288,602,-40,39,11,-10455,3,-1,1,0,37531,340,26,79,0,0,0,0,0,0,0,0,-32316,0,0,0,4077,0,35750,0
27072,-216,-8294,582,-43,42,5,-10457,-5,-1,0,0,37530,337,26,79,0,0,0,0,0,0,0,0,-32316,0,0,0,4077,0,35770,0
27082,-246,-8286,592,-46,38,3,-10456,1,0,0,0,37522,335,26,79,0,0,0,0,0,0,0,0,-32316,0,0,0,4078,0,35790,0
27092,-208,-8292,596,-42,36,4,-10456,2,-1,2,0,37520,341,26,79,0,0,0,0,0,0,0,0,-32316,0,0,0,4076,0,35810,0
27102,-188,-8274,574,-51,44,11,-10457,-2,-2,0,0,37521,340,26,79,0,0,0,0,0,0,0,0,-32316,0,0,0,4077,0,35830,0
27112,-174,-8276,572,-50,45,7,-10456,3,-1,2,0,37524,324,26,79,0,0,0,0,0,0,0,0,-32316,0,0,0,4078,0,35850,0
27122,-200,-8312,566,-41,39,7,-10458,-8,-2,1,0,37524,322,26,79,0,0,0,0,0,0,0,0,-32316,0,0,0,4077,0,35870,0
27132,-196,-8266,590,-50,43,11,-10457,5,-3,0,0,37521,330,26,79,0,0,0,0,0,0,0,0,-32316,0,0,0,4077,0,35890,0
27142,-204,-8230,580,-44,41,16,-10458,-5,-1,1,0,37519,337,26,79,0,0,0,0,0,0,0,0,-32316,0,0,0,4077,0,35910,0
27152,-236,-8278,594,-41,45,13,-10457,-3,2,0,0,37518,332,26,79,0,0,0,0,0,0,0,0,-32317,0,0,0,4077,0,35930,0
27162,-192,-8294,590,-51,44,16,-10457,-5,-2,-2,0,37524,324,26,79,0,0,0,0,0,0,0,0,-32317,0,0,0,4078,0,35950,0
27172,-184,-8232,590,-46,42,18,-10456,7,-2,0,0,37526,325,26,79,0,0,0,0,0,0,0,0,-32316,0,0,0,4076,0,35970,0
27182,-214,-8324,580,-48,43,14,-10457,0,0,0,0,37525,329,26,79,0,0,0,0,0,0,0,0,-32316,0,0,0,4077,0,35990,0
27192,-184,-8286,566,-50,45,20,-10458,-3,-1,-1,0,37520,326,26,79,0,0,0,0,0,0,0,0,-32316,0,0,0,4078,0,36010,0
27202,-198,-8272,606,-45,47,18,-10457,0,-1,-1,0,37518,328,26,79,0,0,0,0,0,0,0,0,-32316,0,0,0,4077,0,36030,0
27212,-188,-8304,570,-48,47,20,-10457,-5,-5,1,0,37520,335,26,79,0,0,0,0,0,0,0,0,-32316,0,0,0,4077,0,36050,0
27222,-198,-8280,564,-46,45,25,-10457,0,2,0,0,37518,335,26,79,0,0,0,0,0,0,0,0,-32316,0,0,0,4076,0,36070,0
27232,-204,-8250,560,-46,47,21,-10457,-4,1,0,0,37516,331,26,79,0,0,0,0,0,0,0,0,-32316,0,0,0,4077,0,36090,0
27242,-194,-8294,558,-44,40,24,-10457,-3,5,-1,0,37518,321,26,79,0,0,0,0,0,0,0,0,-32316,0,0,0,4077,0,36110,0
27252,-214,-8272,570,-45,44,26,-10457,4,2,-1,0,37521,316,26,79,0,0,0,0,0,0,0,0,-32316,0,0,0,4077,0,36130,0
27262,-240,-8276,572,-47,48,19,-10457,-4,3,0,0,37525,315,26,79,0,0,0,0,0,0,0,0,-32316,0,0,0,4077,0,36150,0
27272,-256,-8286,574,-45,44,23,-10457,-5,-2,-1,0,37527,327,26,79,0,0,0,0,0,0,0,0,-32316,0,0,0,4078,0,36170,0
27282,-238,-8278,580,-46,35,25,-10456,-1,6,-1,0,37526,333,26,79,0,0,0,0,0,0,0,0,-32316,0,0,0,4077,0,36190,0
27292,-228,-8282,574,-47,38,19,-10456,9,6,-2,0,37528,329,26,79,0,0,0,0,0,0,0,0,-32316,0,0,0,4077,0,36210,0
27302,-234,-8304,578,-49,47,18,-10455,3,1,-3,0,37522,329,26,79,0,0,0,0,0,0,0,0,-32316,0,0,0,4077,0,36230,0
27312,-232,-8282,578,-49,44,17,-10457,-6,-3,-1,0,37521,322,26,79,0,0,0,0,0,0,0,0,-32316,0,0,0,4076,0,36250,0
27322,-220,-8280,586,-45,47,18,-10455,8,-2,-2,0,37519,329,26,79,0,0,0,0,0,0,0,0,-32316,0,0,0,4077,0,36270,0
27332,-214,-8298,608,-49,41,16,-10458,-8,-2,0,0,37517,330,26,79,0,0,0,0,0,0,0,0,-32316,0,0,0,4076,0,36290,0
27342,-202,-8262,608,-52,42,15,-10457,-3,1,-1,0,37527,336,26,79,0,0,0,0,0,0,0,0,-32316,0,0,0,4075,0,36310,0
27352,-204,-8278,596,-51,38,19,-10457,3,2,0,0,37527,340,26,79,0,0,0,0,0,0,0,0,-32316,0,0,0,4077,0,36330,0
27362,-228,-8258,594,-48,43,19,-10456,0,1,0,0,37526,339,26,79,0,0,0,0,0,0,0,0,-32316,0,0,0,4077,0,36350,0
27372,-196,-8300,592,-54,45,18,-10459,-4,2,0,0,37516,336,26,79,0,0,0,0,0,0,0,0,-32316,0,0,0,4078,0,36370,0
27382,-182,-8272,602,-53,37,22,-10456,4,0,0,0,37511,333,26,79,0,0,0,0,0,0,0,0,-32316,0,0,0,4078,0,36390,0
27392,-246,-8288,584,-55,47,20,-10457,4,3,-1,0,37514,341,26,79,0,0,0,0,0,0,0,0,-32316,0,0,0,4077,0,36410,0
27402,-216,-8288,584,-49,41,24,-10455,3,-7,-1,0,37511,339,26,79,0,0,0,0,0,0,0,0,-32316,0,0,0,4077,0,36430,0
27412,-190,-8286,600,-52,48,21,-10456,3,6,-2,0,37511,337,26,79,0,0,0,0,0,0,0,0,-32316,0,0,0,4077,0,36450,0
27422,-216,-8282,576,-54,46,23,-10456,4,0,-4,0,37511,329,26,79,0,0,0,0,0,0,0,0,-32316,0,0,0,4077,0,36470,0
27432,-196,-8282,600,-56,41,27,-10454,4,0,-4,0,37511,330,26,79,0,0,0,0,0,0,0,0,-32317,0,0,0,4077,0,36490,0
27442,-214,-8256,608,-55,43,24,-10455,0,-3,-6,0,37511,328,26,79,0,0,0,0,0,0,0,0,-32316,0,0,0,4077,0,36510,0
27452,-224,-8310,564,-53,39,28,-10453,10,4,-5,0,37509,328,26,79,0,0,0,0,0,0,0,0,-32316,0,0,0,4077,0,36530,0
27462,-232,-8302,570,-58,42,22,-10453,-3,0,-5,0,37511,328,26,79,0,0,0,0,0,0,0,0,-32316,0,0,0,4078,0,36550,0
27472,-256,-8246,586,-59,39,26,-10450,1,2,-9,0,37514,328,26,79,0,0,0,0,0,0,0,0,-32316,0,0,0,4078,0,36570,0
27482,-230,-8278,582,-59,40,26,-10450,0,1,-6,0,37519,326,26,79,0,0,0,0,0,0,0,0,-32316,0,0,0,4077,0,36590,0
27492,-248,-8282,584,-61,41,26,-10448,5,0,-7,0,37518,329,26,79,0,0,0,0,0,0,0,0,-32316,0,0,0,4078,0,36610,0
27502,-210,-8288,594,-61,43,24,-10448,-4,6,-7,0,37517,328,26,79,0,0,0,0,0,0,0,0,-32316,0,0,0,4078,0,36630,0
27512,-232,-8292,566,-63,34,23,-10446,7,4,-10,0,37515,329,26,79,0,0,0,0,0,0,0,0,-32316,0,0,0,4078,0,36651,0
27522,-238,-8294,560,-60,36,26,-10445,-3,-3,-14,0,37517,330,26,79,0,0,0,0,0,0,0,0,-32316,0,0,0,4078,0,36671,0
27532,-220,-8284,588,-57,40,24,-10442,1,6,-14,0,37518,330,26,79,0,0,0,0,0,0,0,0,-32316,0,0,0,4078,0,36691,0
27542,-200,-8282,582,-60,35,28,-10440,5,8,-16,0,37517,331,26,79,0,0,0,0,0,0,0,0,-32316,0,0,0,4078,0,36711,0
27552,-198,-8284,576,-62,36,28,-10437,8,2,-20,0,37516,331,26,79,0,0,0,0,0,0,0,0,-32316,0,0,0,4078,0,36731,0
27562,-210,-8282,566,-61,34,30,-10431,20,3,-25,0,37517,326,26,79,0,0,0,0,0,0,0,0,-32316,0,0,0,4079,0,36751,0
27572,-216,-8290,598,-52,32,34,-10428,16,6,-28,0,37518,321,26,79,0,0,0,0,0,0,0,0,-32316,0,0,0,4078,0,36771,0
27582,-218,-8278,568,-59,36,28,-10422,18,1,-18,0,37520,329,26,79,0,0,0,0,0,0,0,0,-32316,0,0,0,4081,0,36791,0
27592,-260,-8294,580,-61,41,26,-10422,-1,-3,-13,0,37522,324,26,79,0,0,0,0,0,0,0,0,-32316,0,0,0,4080,0,36811,0
27602,-268,-8284,570,-59,40,19,-10420,1,-3,-6,0,37521,323,26,79,0,0,0,0,0,0,0,0,-32316,0,0,0,4081,0,36832,0
27612,-228,-8300,544,-57,39,19,-10418,4,-4,-5,0,37523,319,26,79,0,0,0,0,0,0,0,0,-32316,0,0,0,4082,0,36852,0
27622,-220,-8274,564,-56,39,22,-10419,-10,-4,-6,0,37518,306,26,79,0,0,0,0,0,0,0,0,-32316,0,0,0,4081,0,36872,0
27632,-214,-8266,560,-56,41,18,-10417,13,-1,-3,0,37517,301,26,79,0,0,0,0,0,0,0,0,-32316,0,0,0,4081,0,36892,0
27642,-230,-8278,582,-54,40,21,-10417,0,-6,-2,0,37516,306,26,79,0,0,0,0,0,0,0,0,-32316,0,0,0,4081,0,36912,0
27652,-238,-8264,564,-54,43,15,-10416,9,-3,-2,0,37519,320,26,79,0,0,0,0,0,0,0,0,-32316,0,0,0,4081,0,36932,0
27662,-248,-8268,572,-51,39,18,-10415,10,0,-1,0,37522,322,26,79,0,0,0,0,0,0,0,0,-32316,0,0,0,4081,0,36952,0
27672,-206,-8282,548,-47,44,15,-10417,0,3,-4,0,37521,316,26,79,0,0,0,0,0,0,0,0,-32316,0,0,0,4082,0,36972,0
27682,-228,-8280,562,-46,46,17,-10418,-4,6,0,0,37522,312,26,79,0,0,0,0,0,0,0,0,-32316,0,0,0,4081,0,36992,0
27692,-242,-8306,586,-49,39,16,-10415,5,2,-2,0,37520,320,26,79,0,0,0,0,0,0,0,0,-32316,0,0,0,4082,0,37012,0
27702,-234,-8278,580,-52,40,16,-10417,-9,-2,-2,0,37521,320,26,79,0,0,0,0,0,0,0,0,-32316,0,0,0,4080,0,37032,0
27712,-236,-8282,578,-48,43,16,-10417,1,-3,0,0,37520,321,26,79,0,0,0,0,0,0,0,0,-32316,0,0,0,4081,0,37052,0
27722,-228,-8286,582,-52,34,15,-10415,9,-4,-1,0,37520,316,26,79,0,0,0,0,0,0,0,0,-32316,0,0,0,4081,0,37072,0
27732,-240,-8282,566,-47,37,11,-10417,-1,-2,0,0,37520,313,26,79,0,0,0,0,0,0,0,0,-32316,0,0,0,4081,0,37092,0
27742,-180,-8282,566,-46,38,11,-10416,7,1,0,0,37522,317,26,79,0,0,0,0,0,0,0,0,-32316,0,0,0,4082,0,37112,0
27752,-218,-8250,596,-47,41,14,-10416,-9,-2,0,0,37523,310,26,79,0,0,0,0,0,0,0,0,-32316,0,0,0,4081,0,37132,0
27762,-196,-8272,564,-46,41,14,-10415,4,2,2,0,37524,307,26,79,0,0,0,0,0,0,0,0,-32316,0,0,0,4081,0,37152,0
27772,-228,-8310,586,-53,38,13,-10416,-3,1,-2,0,37524,304,26,79,0,0,0,0,0,0,0,0,-32316,0,0,0,4081,0,37172,0
27782,-222,-8272,580,-54,38,15,-10414,0,3,1,0,37523,310,26,79,0,0,0,0,0,0,0,0,-32316,0,0,0,4081,0,37192,0
27792,-228,-8290,586,-51,41,14,-10415,-3,1,2,0,37529,318,26,79,0,0,0,0,0,0,0,0,-32316,0,0,0,4081,0,37212,0
27802,-210,-8304,574,-55,38,15,-10418,-4,3,-1,0,37529,320,26,79,0,0,0,0,0,0,0,0,-32316,0,0,0,4079,0,37232,0
27812,-238,-8270,554,-47,40,14,-10415,0,-2,1,0,37531,311,26,79,0,0,0,0,0,0,0,0,-32316,0,0,0,4081,0,37252,0
27822,-216,-8260,586,-51,41,15,-10417,-4,-2,-1,0,37526,313,26,79,0,0,0,0,0,0,0,0,-32316,0,0,0,4081,0,37273,0
27832,-244,-8278,550,-48,38,16,-10417,-5,4,0,0,37529,311,26,79,0,0,0,0,0,0,0,0,-32316,0,0,0,4080,0,37293,0
27842,-244,-8256,584,-51,40,10,-10416,-3,1,1,0,37527,313,26,79,0,0,0,0,0,0,0,0,-32316,0,0,0,4081,0,37313,0
27852,-224,-8276,582,-54,42,10,-10415,6,2,-1,0,37528,312,26,79,0,0,0,0,0,0,0,0,-32316,0,0,0,4081,0,37333,0
27862,-248,-8298,598,-53,38,7,-10415,7,1,0,0,37528,312,26,79,0,0,0,0,0,0,0,0,-32316,0,0,0,4081,0,37353,0
27872,-222,-8258,562,-49,36,7,-10416,3,4,-1,0,37527,316,26,79,0,0,0,0,0,0,0,0,-32316,0,0,0,4082,0,37373,0
27882,-218,-8276,574,-51,40,8,-10416,5,2,1,0,37528,321,26,79,0,0,0,0,0,0,0,0,-32316,0,0,0,4082,0,37393,0
27892,-214,-8268,570,-58,37,7,-10416,0,-2,-2,0,37531,314,26,79,0,0,0,0,0,0,0,0,-32316,0,0,0,4082,0,37413,0
27902,-196,-8274,592,-46,39,8,-10416,0,-1,0,0,37532,310,26,79,0,0,0,0,0,0,0,0,-32316,0,0,0,4081,0,37433,0
27912,-226,-8298,580,-50,33,11,-10417,0,-3,0,0,37531,311,26,79,0,0,0,0,0,0,0,0,-32316,0,0,0,4081,0,37453,0
27922,-172,-8278,586,-48,43,9,-10417,-1,-2,-1,0,37526,312,26,79,0,0,0,0,0,0,0,0,-32316,0,0,0,4081,0,37473,0
27932,-192,-8288,600,-56,42,13,-10416,0,3,0,0,37524,306,26,79,0,0,0,0,0,0,0,0,-32316,0,0,0,4080,0,37494,0
27942,-206,-8272,570,-59,39,15,-10416,0,-1,1,0,37526,300,26,79,0,0,0,0,0,0,0,0,-32316,0,0,0,4081,0,37514,0
27952,-188,-8272,560,-51,43,11,-10417,-10,-3,-1,0,37529,298,26,79,0,0,0,0,0,0,0,0,-32316,0,0,0,4082,0,37534,0
27962,-210,-8300,574,-57,45,19,-10417,-1,-1,0,0,37531,308,26,79,0,0,0,0,0,0,0,0,-32316,0,0,0,4081,0,37554,0
27972,-218,-8262,592,-57,45,17,-10414,5,4,-3,0,37533,313,26,79,0,0,0,0,0,0,0,0,-32316,0,0,0,4081,0,37574,0
27982,-202,-8284,568,-59,39,21,-10415,5,4,0,0,37532,315,26,79,0,0,0,0,0,0,0,0,-32316,0,0,0,4081,0,37594,0
27992,-232,-8302,564,-47,46,24,-10416,3,2,0,0,37530,320,26,79,0,0,0,0,0,0,0,0,-32316,0,0,0,4082,0,37614,0
28002,-224,-8248,572,-53,44,18,-10417,-11,1,-2,0,37535,321,26,79,0,0,0,0,0,0,0,0,-32316,0,0,0,4081,0,37634,0
28012,-218,-8270,570,-52,43,17,-10418,-6,-6,0,0,37535,322,26,79,0,0,0,0,0,0,0,0,-32316,0,0,0,4082,0,37654,0
28022,-238,-8260,580,-53,37,18,-10416,-2,4,0,0,37538,325,26,79,0,0,0,0,0,0,0,0,-32316,0,0,0,4082,0,37674,0
28032,-206,-8278,562,-59,45,15,-10416,3,-2,0,0,37529,324,26,79,0,0,0,0,0,0,0,0,-32316,0,0,0,4081,0,37694,0
28042,-234,-8284,584,-52,45,17,-10417,0,-3,1,0,37524,323,26,79,0,0,0,0,0,0,0,0,-32316,0,0,0,4081,0,37714,0
28052,-226,-8296,568,-57,39,15,-10416,4,0,-1,0,37519,311,26,79,0,0,0,0,0,0,0,0,-32316,0,0,0,4081,0,37734,0
28062,-214,-8284,592,-56,43,17,-10416,-3,1,0,0,37521,310,26,79,0,0,0,0,0,0,0,0,-32316,0,0,0,4081,0,37754,0
28072,-214,-8280,570,-51,42,18,-10417,-3,-7,0,0,37523,310,26,79,0,0,0,0,0,0,0,0,-32316,0,0,0,4081,0,37774,0
28082,-196,-8262,564,-55,42,15,-10417,3,-2,1,0,37521,315,26,79,0,0,0,0,0,0,0,0,-32316,0,0,0,4081,0,37794,0
28092,-214,-8264,574,-57,41,19,-10415,-1,1,0,0,37519,318,26,79,0,0,0,0,0,0,0,0,-32316,0,0,0,4082,0,37814,0
28102,-210,-8294,582,-53,43,20,-10416,1,0,-4,0,37526,314,26,79,0,0,0,0,0,0,0,0,-32316,0,0,0,4082,0,37834,0
28112,-240,-8272,562,-51,38,17,-10417,-3,0,1,0,37528,312,26,79,0,0,0,0,0,0,0,0,-32316,0,0,0,4081,0,37854,0
28122,-224,-8258,586,-53,40,22,-10416,-1,0,0,0,37529,311,26,79,0,0,0,0,0,0,0,0,-32316,0,0,0,4082,0,37874,0
28132,-226,-8288,598,-60,40,21,-10417,-5,-2,1,0,37522,317,26,79,0,0,0,0,0,0,0,0,-32316,0,0,0,4082,0,37894,0
28142,-234,-8302,584,-62,45,16,-10414,14,1,0,0,37518,314,26,79,0,0,0,0,0,0,0,0,-32317,0,0,0,4081,0,37914,0
28152,-222,-8250,562,-54,46,17,-10415,1,12,-1,0,37520,313,26,79,0,0,0,0,0,0,0,0,-32316,0,0,0,4081,0,37934,0
28162,-216,-8274,588,-56,43,20,-10416,7,0,0,0,37521,312,26,79,0,0,0,0,0,0,0,0,-32317,0,0,0,4081,0,37954,0
28172,-188,-8298,576,-50,40,21,-10415,4,0,0,0,37522,317,26,79,0,0,0,0,0,0,0,0,-32316,0,0,0,4081,0,37974,0
28182,-232,-8276,570,-56,40,17,-10415,3,3,0,0,37520,322,26,79,0,0,0,0,0,0,0,0,-32316,0,0,0,4081,0,37994,0
28192,-230,-8274,570,-57,42,23,-10413,8,-2,0,0,37518,317,26,79,0,0,0,0,0,0,0,0,-32316,0,0,0,4081,0,38014,0
28202,-260,-8300,564,-61,39,18,-10417,2,-3,-1,0,37519,308,26,79,0,0,0,0,0,0,0,0,-32316,0,0,0,4081,0,38034,0
28212,-246,-8270,562,-53,41,15,-10414,10,2,3,0,37526,313,26,79,0,0,0,0,0,0,0,0,-32316,0,0,0,4082,0,38054,0
28222,-220,-8282,552,-55,38,16,-10416,-1,-7,-1,0,37526,313,26,79,0,0,0,0,0,0,0,0,-32316,0,0,0,4081,0,38074,0
28232,-246,-8264,576,-62,38,15,-10416,-4,1,0,0,37524,319,26,79,0,0,0,0,0,0,0,0,-32316,0,0,0,4081,0,38094,0
28242,-232,-8258,578,-49,37,15,-10414,0,-7,0,0,37517,317,26,79,0,0,0,0,0,0,0,0,-32316,0,0,0,4081,0,38114,0
28252,-228,-8280,568,-58,40,11,-10415,3,2,0,0,37517,323,26,79,0,0,0,0,0,0,0,0,-32316,0,0,0,4081,0,38134,0
28262,-198,-8268,558,-55,40,8,-10414,7,-3,1,0,37515,306,26,79,0,0,0,0,0,0,0,0,-32316,0,0,0,4082,0,38154,0
28272,-192,-8278,562,-54,36,14,-10415,7,4,0,0,37515,306,26,79,0,0,0,0,0,0,0,0,-32316,0,0,0,4081,0,38175,0
28282,-206,-8276,554,-51,43,15,-10415,2,-4,0,0,37514,303,26,79,0,0,0,0,0,0,0,0,-32316,0,0,0,4081,0,38195,0
28292,-224,-8244,562,-48,39,17,-10416,-6,-1,0,0,37515,313,26,79,0,0,0,0,0,0,0,0,-32316,0,0,0,4082,0,38215,0
28302,-236,-8290,550,-49,43,14,-10415,-4,-6,-1,0,37515,313,26,79,0,0,0,0,0,0,0,0,-32316,0,0,0,4081,0,38235,0
28312,-212,-8280,568,-53,39,13,-10417,-4,2,0,0,37520,313,26,79,0,0,0,0,0,0,0,0,-32316,0,0,0,4081,0,38255,0
28322,-200,-8270,556,-51,43,11,-10415,-5,-4,0,0,37522,313,26,79,0,0,0,0,0,0,0,0,-32316,0,0,0,4081,0,38275,0
28332,-240,-8284,552,-51,42,16,-10415,1,2,0,0,37521,317,26,79,0,0,0,0,0,0,0,0,-32316,0,0,0,4081,0,38295,0
28342,-206,-8280,544,-45,42,13,-10416,-5,-1,0,0,37518,311,26,79,0,0,0,0,0,0,0,0,-32316,0,0,0,4082,0,38315,0
28352,-196,-8274,554,-48,38,11,-10415,-3,1,0,0,37514,302,26,79,0,0,0,0,0,0,0,0,-32316,0,0,0,4081,0,38335,0
28362,-202,-8274,556,-52,42,12,-10415,0,-3,1,0,37513,309,26,79,0,0,0,0,0,0,0,0,-32316,0,0,0,4081,0,38355,0
28372,-212,-8270,568,-45,46,18,-10415,4,0,-2,0,37513,311,26,79,0,0,0,0,0,0,0,0,-32316,0,0,0,4081,0,38375,0
28382,-206,-8282,556,-48,39,16,-10416,-1,2,0,0,37511,314,26,79,0,0,0,0,0,0,0,0,-32316,0,0,0,4082,0,38395,0
28392,-228,-8266,558,-47,39,14,-10415,10,0,1,0,37513,313,26,79,0,0,0,0,0,0,0,0,-32316,0,0,0,4081,0,38415,0
28402,-222,-8276,570,-52,41,17,-10416,-1,1,0,0,37514,314,26,79,0,0,0,0,0,0,0,0,-32316,0,0,0,4082,0,38435,0
28412,-208,-8282,570,-42,41,12,-10415,3,-4,0,0,37514,311,26,79,0,0,0,0,0,0,0,0,-32316,0,0,0,4081,0,38455,0
28422,-236,-8282,566,-48,44,15,-10416,-2,-1,0,0,37517,304,26,79,0,0,0,0,0,0,0,0,-32316,0,0,0,4081,0,38475,0
28432,-242,-8282,550,-48,41,13,-10417,-4,-1,-1,0,37516,305,26,79,0,0,0,0,0,0,0,0,-32316,0,0,0,4081,0,38495,0
28442,-222,-8304,578,-43,34,14,-10416,4,-2,1,0,37517,303,26,79,0,0,0,0,0,0,0,0,-32316,0,0,0,4081,0,38515,0
28452,-216,-8298,558,-49,41,14,-10415,0,4,0,0,37518,303,26,79,0,0,0,0,0,0,0,0,-32316,0,0,0,4081,0,38535,0
28462,-224,-8258,576,-48,38,13,-10416,0,0,0,0,37515,309,26,79,0,0,0,0,0,0,0,0,-32317,0,0,0,4081,0,38555,0
28472,-200,-8316,554,-46,44,14,-10417,-9,-3,0,0,37516,314,26,79,0,0,0,0,0,0,0,0,-32316,0,0,0,4081,0,38575,0
28482,-250,-8278,564,-49,38,15,-10416,-6,0,1,0,37516,315,26,79,0,0,0,0,0,0,0,0,-32316,0,0,0,4081,0,38595,0
28492,-202,-8242,546,-43,41,13,-10416,-6,-1,0,0,37517,310,26,79,0,0,0,0,0,0,0,0,-32316,0,0,0,4081,0,38615,0
28502,-200,-8282,556,-43,39,11,-10415,0,-1,-1,0,37518,312,26,79,0,0,0,0,0,0,0,0,-32316,0,0,0,4081,0,38635,0
28512,-250,-8292,582,-53,38,14,-10417,-10,-6,-1,0,37517,309,26,79,0,0,0,0,0,0,0,0,-32316,0,0,0,4082,0,38656,0
28522,-270,-8258,564,-49,41,10,-10417,-1,4,0,0,37518,311,26,79,0,0,0,0,0,0,0,0,-32316,0,0,0,4081,0,38676,0
28532,-210,-8270,584,-53,36,7,-10415,0,-6,1,0,37525,309,26,79,0,0,0,0,0,0,0,0,-32316,0,0,0,4081,0,38696,0
28542,-230,-8270,584,-48,38,6,-10416,7,3,2,0,37526,310,26,79,0,0,0,0,0,0,0,0,-32316,0,0,0,4082,0,38716,0
28552,-222,-8278,564,-48,37,6,-10415,4,4,1,0,37523,309,26,79,0,0,0,0,0,0,0,0,-32316,0,0,0,4081,0,38737,0
28562,-230,-8286,568,-45,37,2,-10416,-1,-4,3,0,37516,303,26,79,0,0,0,0,0,0,0,0,-32316,0,0,0,4081,0,38757,0
28572,-210,-8248,548,-44,35,2,-10416,-5,0,0,0,37516,303,26,79,0,0,0,0,0,0,0,0,-32316,0,0,0,4082,0,38777,0
28582,-214,-8268,586,-48,35,1,-10416,0,-2,0,0,37518,307,26,79,0,0,0,0,0,0,0,0,-32316,0,0,0,4081,0,38797,0
28592,-192,-8294,580,-45,41,9,-10416,2,1,2,0,37519,305,26,79,0,0,0,0,0,0,0,0,-32316,0,0,0,4082,0,38817,0
28602,-160,-8252,586,-53,43,8,-10416,-4,-1,1,0,37516,307,26,79,0,0,0,0,0,0,0,0,-32316,0,0,0,4081,0,38838,0
28612,-214,-8278,574,-50,39,5,-10417,7,3,-2,0,37518,304,26,79,0,0,0,0,0,0,0,0,-32316,0,0,0,4081,0,38858,0
28622,-212,-8260,554,-48,39,10,-10417,-2,-1,1,0,37533,309,26,79,0,0,0,0,0,0,0,0,-32316,0,0,0,4080,0,38878,0
28632,-198,-8266,556,-49,38,12,-10416,4,2,0,0,37544,310,26,79,0,0,0,0,0,0,0,0,-32316,0,0,0,4079,0,38898,0
28642,-198,-8276,564,-50,40,15,-10418,-2,-8,1,0,37556,307,26,79,0,0,0,0,0,0,0,0,-32316,0,0,0,4081,0,38918,0
28652,-216,-8260,574,-50,39,19,-10417,0,5,0,0,37546,305,26,79,0,0,0,0,0,0,0,0,-32316,0,0,0,4082,0,38938,0
28662,-212,-8266,574,-44,43,20,-10417,-7,-4,0,0,37543,305,26,79,0,0,0,0,0,0,0,0,-32316,0,0,0,4080,0,38958,0
28672,-248,-8252,586,-47,42,11,-10418,-7,3,-1,0,37534,315,26,79,0,0,0,0,0,0,0,0,-32316,0,0,0,4081,0,38978,0
28682,-228,-8266,594,-51,34,15,-10417,-4,3,1,0,37526,313,26,79,0,0,0,0,0,0,0,0,-32316,0,0,0,4081,0,38998,0
28692,-210,-8288,566,-50,36,13,-10418,-2,-1,0,0,37524,313,26,79,0,0,0,0,0,0,0,0,-32316,0,0,0,4081,0,39018,0
28702,-210,-8284,572,-49,45,14,-10417,-8,-4,0,0,37527,313,26,79,0,0,0,0,0,0,0,0,-32316,0,0,0,4079,0,39038,0
28712,-218,-8286,562,-47,36,12,-10417,4,1,0,0,37528,308,26,79,0,0,0,0,0,0,0,0,-32316,0,0,0,4081,0,39058,0
28722,-228,-8292,550,-49,36,12,-10417,-1,2,0,0,37525,311,26,79,0,0,0,0,0,0,0,0,-32316,0,0,0,4081,0,39079,0
28732,-208,-8280,582,-46,36,15,-10417,3,-1,0,0,37522,314,26,79,0,0,0,0,0,0,0,0,-32316,0,0,0,4081,0,39098,0
28742,-220,-8262,572,-47,38,12,-10416,7,1,1,0,37520,312,26,79,0,0,0,0,0,0,0,0,-32316,0,0,0,4081,0,39118,0
28752,-190,-8260,586,-44,41,16,-10416,8,1,1,0,37526,310,26,79,0,0,0,0,0,0,0,0,-32316,0,0,0,4079,0,39139,0
28762,-186,-8256,586,-45,39,19,-10417,1,1,0,0,37527,303,26,79,0,0,0,0,0,0,0,0,-32316,0,0,0,4081,0,39159,0
28772,-228,-8284,584,-51,40,12,-10417,0,0,0,0,37528,303,26,79,0,0,0,0,0,0,0,0,-32316,0,0,0,4081,0,39179,0
28782,-246,-8306,584,-45,39,12,-10417,7,2,0,0,37523,305,26,79,0,0,0,0,0,0,0,0,-32316,0,0,0,4081,0,39199,0
28792,-220,-8286,592,-50,38,17,-10418,-7,1,1,0,37526,309,26,79,0,0,0,0,0,0,0,0,-32316,0,0,0,4081,0,39219,0
28802,-210,-8256,592,-48,41,12,-10418,-3,3,-1,0,37526,315,26,79,0,0,0,0,0,0,0,0,-32316,0,0,0,4080,0,39239,0
28812,-212,-8302,560,-50,38,14,-10418,3,1,-1,0,37525,315,26,79,0,0,0,0,0,0,0,0,-32316,0,0,0,4080,0,39259,0
28822,-212,-8282,558,-52,41,10,-10417,10,-6,1,0,37524,322,26,79,0,0,0,0,0,0,0,0,-32316,0,0,0,4081,0,39279,0
28832,-198,-8280,554,-50,33,16,-10419,-6,-4,0,0,37526,324,26,79,0,0,0,0,0,0,0,0,-32317,0,0,0,4081,0,39300,0
28842,-214,-8294,568,-46,40,11,-10417,1,-1,1,0,37528,320,26,79,0,0,0,0,0,0,0,0,-32316,0,0,0,4081,0,39320,0
28852,-198,-8258,556,-47,39,14,-10416,6,1,0,0,37528,315,26,79,0,0,0,0,0,0,0,0,-32316,0,0,0,4081,0,39340,0
28862,-218,-8260,594,-47,39,15,-10417,1,1,0,0,37531,310,26,79,0,0,0,0,0,0,0,0,-32316,0,0,0,4081,0,39360,0
28872,-210,-8290,576,-48,37,12,-10418,7,5,0,0,37532,305,26,79,0,0,0,0,0,0,0,0,-32316,0,0,0,4081,0,39380,0
28882,-226,-8308,568,-53,43,17,-10417,2,4,0,0,37533,315,26,79,0,0,0,0,0,0,0,0,-32316,0,0,0,4081,0,39400,0
28892,-206,-8288,576,-53,49,18,-10417,4,1,0,0,37528,317,26,79,0,0,0,0,0,0,0,0,-32316,0,0,0,4081,0,39420,0
28902,-204,-8304,578,-54,45,13,-10418,-3,4,0,0,37525,310,26,79,0,0,0,0,0,0,0,0,-32316,0,0,0,4080,0,39440,0
28912,-240,-8242,560,-49,40,13,-10419,-10,-4,-1,0,37526,303,26,79,0,0,0,0,0,0,0,0,-32316,0,0,0,4081,0,39460,0
28922,-240,-8260,566,-49,41,11,-10420,-14,-7,1,0,37530,311,26,79,0,0,0,0,0,0,0,0,-32316,0,0,0,4081,0,39480,0
28932,-226,-8268,580,-46,44,12,-10417,12,1,-1,0,37529,315,26,79,0,0,0,0,0,0,0,0,-32316,0,0,0,4081,0,39500,0
28942,-192,-8290,582,-53,42,13,-10419,-6,3,0,0,37526,317,26,79,0,0,0,0,0,0,0,0,-32316,0,0,0,4081,0,39520,0
28952,-202,-8292,594,-56,42,19,-10418,-2,-7,0,0,37523,310,26,79,0,0,0,0,0,0,0,0,-32316,0,0,0,4081,0,39540,0
28962,-202,-8290,588,-56,46,13,-10417,-3,6,0,0,37529,313,26,79,0,0,0,0,0,0,0,0,-32316,0,0,0,4079,0,39560,0
28972,-204,-8276,544,-53,40,16,-10418,0,-3,0,0,37530,317,26,79,0,0,0,0,0,0,0,0,-32315,0,0,0,4080,0,39580,0
28982,-206,-8296,566,-53,44,21,-10418,-8,2,1,0,37530,312,26,79,0,0,0,0,0,0,0,0,-32316,0,0,0,4079,0,39600,0
28992,-190,-8286,550,-55,42,21,-10416,7,-1,0,0,37526,308,26,79,0,0,0,0,0,0,0,0,-32316,0,0,0,4080,0,39620,0
29002,-208,-8254,544,-50,43,20,-10417,-1,2,0,0,37526,303,26,79,0,0,0,0,0,0,0,0,-32317,0,0,0,4081,0,39640,0
29012,-206,-8280,584,-50,39,26,-10419,-11,-5,0,0,37525,307,26,79,0,0,0,0,0,0,0,0,-32316,0,0,0,4079,0,39660,0
29022,-226,-8290,574,-53,48,26,-10417,2,1,0,0,37524,314,26,79,0,0,0,0,0,0,0,0,-32316,0,0,0,4081,0,39680,0
29032,-208,-8282,590,-55,43,21,-10418,-1,2,-1,0,37524,317,26,79,0,0,0,0,0,0,0,0,-32316,0,0,0,4081,0,39700,0
29042,-248,-8256,602,-55,48,22,-10417,7,4,0,0,37523,312,26,79,0,0,0,0,0,0,0,0,-32316,0,0,0,4079,0,39720,0
29052,-240,-8312,586,-53,45,20,-10417,0,1,-1,0,37523,308,26,79,0,0,0,0,0,0,0,0,-32316,0,0,0,4079,0,39740,0
29062,-252,-8304,554,-59,46,24,-10418,-8,-3,-1,0,37532,309,26,79,0,0,0,0,0,0,0,0,-32316,0,0,0,4081,0,39760,0
29072,-234,-8262,574,-55,44,17,-10417,-3,-1,-1,0,37533,314,26,79,0,0,0,0,0,0,0,0,-32316,0,0,0,4081,0,39780,0
29082,-252,-8298,534,-54,43,20,-10416,7,5,1,0,37532,310,26,79,0,0,0,0,0,0,0,0,-32316,0,0,0,4080,0,39800,0
29092,-240,-8288,558,-53,37,21,-10418,-6,0,0,0,37526,308,26,79,0,0,0,0,0,0,0,0,-32316,0,0,0,4081,0,39820,0
29102,-224,-8304,564,-58,36,15,-10417,-10,1,1,0,37518,313,26,79,0,0,0,0,0,0,0,0,-32316,0,0,0,4081,0,39840,0
29112,-248,-8282,570,-53,41,15,-10417,3,-2,-1,0,37520,316,26,79,0,0,0,0,0,0,0,0,-32316,0,0,0,4081,0,39860,0
29122,-234,-8282,560,-50,37,12,-10418,-8,-2,-1,0,37522,318,26,79,0,0,0,0,0,0,0,0,-32316,0,0,0,4081,0,39880,0
29132,-200,-8276,572,-58,41,19,-10417,5,1,0,0,37523,314,26,79,0,0,0,0,0,0,0,0,-32316,0,0,0,4081,0,39900,0
29142,-214,-8288,568,-55,41,14,-10417,-2,-3,1,0,37522,314,26,79,0,0,0,0,0,0,0,0,-32316,0,0,0,4080,0,39920,0
29152,-220,-8300,568,-52,38,13,-10418,-3,-5,0,0,37519,310,26,79,0,0,0,0,0,0,0,0,-32316,0,0,0,4080,0,39940,0
29162,-240,-8274,584,-56,33,11,-10416,0,-2,2,0,37521,310,26,79,0,0,0,0,0,0,0,0,-32316,0,0,0,4080,0,39960,0
29172,-254,-8282,566,-55,40,7,-10417,6,5,1,0,37520,307,26,79,0,0,0,0,0,0,0,0,-32316,0,0,0,4081,0,39980,0
29182,-246,-8260,574,-55,42,11,-10416,-2,-1,1,0,37518,309,26,79,0,0,0,0,0,0,0,0,-32316,0,0,0,4079,0,40000,0
29192,-216,-8296,554,-54,39,4,-10417,-3,-1,0,0,37516,316,26,79,0,0,0,0,0,0,0,0,-32316,0,0,0,4081,0,40020,0
29202,-206,-8268,576,-52,40,12,-10418,-10,1,0,0,37516,311,26,79,0,0,0,0,0,0,0,0,-32316,0,0,0,4079,0,40040,0
29212,-224,-8266,554,-48,41,8,-10418,6,0,0,0,37519,304,26,79,0,0,0,0,0,0,0,0,-32316,0,0,0,4080,0,40060,0
29222,-204,-8288,588,-50,44,6,-10417,3,-4,0,0,37521,301,26,79,0,0,0,0,0,0,0,0,-32316,0,0,0,4079,0,40080,0
29232,-218,-8282,562,-55,36,13,-10418,0,-2,1,0,37520,305,26,79,0,0,0,0,0,0,0,0,-32316,0,0,0,4079,0,40100,0
29242,-204,-8276,572,-59,37,9,-10417,4,0,1,0,37514,310,26,79,0,0,0,0,0,0,0,0,-32316,0,0,0,4081,0,40120,0
29252,-166,-8282,568,-54,36,10,-10419,-5,-2,1,0,37514,313,26,79,0,0,0,0,0,0,0,0,-32316,0,0,0,4081,0,40140,0
29262,-202,-8288,554,-54,34,14,-10417,6,4,0,0,37517,310,26,79,0,0,0,0,0,0,0,0,-32316,0,0,0,4080,0,40161,0
29272,-188,-8294,550,-53,36,14,-10419,-8,0,0,0,37519,315,26,79,0,0,0,0,0,0,0,0,-32316,0,0,0,4081,0,40181,0
29282,-192,-8290,572,-52,43,22,-10419,-2,6,3,0,37520,315,26,79,0,0,0,0,0,0,0,0,-32316,0,0,0,4080,0,40201,0
29292,-224,-8268,564,-54,43,22,-10418,6,-5,-1,0,37519,313,26,79,0,0,0,0,0,0,0,0,-32316,0,0,0,4081,0,40221,0
29302,-218,-8276,564,-50,41,19,-10419,-4,0,-1,0,37520,309,26,79,0,0,0,0,0,0,0,0,-32316,0,0,0,4081,0,40241,0
29312,-226,-8292,550,-49,42,18,-10418,-5,1,-1,0,37519,307,26,79,0,0,0,0,0,0,0,0,-32316,0,0,0,4080,0,40261,0
29322,-224,-8276,558,-54,43,17,-10418,-1,3,0,0,37518,305,26,79,0,0,0,0,0,0,0,0,-32316,0,0,0,4081,0,40281,0
29332,-252,-8270,550,-51,39,16,-10416,10,2,0,0,37519,310,26,79,0,0,0,0,0,0,0,0,-32316,0,0,0,4080,0,40301,0
29342,-196,-8282,570,-52,38,15,-10417,0,-1,1,0,37520,312,26,79,0,0,0,0,0,0,0,0,-32316,0,0,0,4081,0,40321,0
29352,-188,-8258,574,-47,39,10,-10418,-1,-3,0,0,37521,307,26,79,0,0,0,0,0,0,0,0,-32316,0,0,0,4080,0,40341,0
29362,-216,-8288,562,-56,38,17,-10419,2,0,1,0,37522,308,26,79,0,0,0,0,0,0,0,0,-32316,0,0,0,4080,0,40361,0
29372,-222,-8288,564,-51,44,15,-10418,-2,1,0,0,37521,312,26,79,0,0,0,0,0,0,0,0,-32316,0,0,0,4080,0,40381,0
29382,-204,-8262,576,-55,42,19,-10417,0,3,0,0,37525,310,26,79,0,0,0,0,0,0,0,0,-32316,0,0,0,4079,0,40401,0
29392,-210,-8270,558,-50,45,17,-10417,3,-2,0,0,37521,307,26,79,0,0,0,0,0,0,0,0,-32316,0,0,0,4080,0,40421,0
29402,-194,-8290,570,-50,43,17,-10418,5,1,0,0,37520,307,26,79,0,0,0,0,0,0,0,0,-32316,0,0,0,4080,0,40441,0
29412,-224,-8258,550,-50,46,17,-10417,2,2,0,0,37511,315,26,79,0,0,0,0,0,0,0,0,-32316,0,0,0,4080,0,40461,0
29422,-206,-8264,578,-45,35,18,-10417,-3,-4,0,0,37511,313,26,79,0,0,0,0,0,0,0,0,-32316,0,0,0,4080,0,40481,0
29432,-214,-8270,540,-45,44,19,-10418,-2,0,1,0,37511,315,26,79,0,0,0,0,0,0,0,0,-32316,0,0,0,4081,0,40501,0
29442,-226,-8288,582,-50,45,14,-10417,0,0,-2,0,37512,316,26,79,0,0,0,0,0,0,0,0,-32316,0,0,0,4080,0,40521,0
29452,-204,-8276,568,-48,43,13,-10418,5,0,0,0,37513,320,26,79,0,0,0,0,0,0,0,0,-32315,0,0,0,4080,0,40541,0
