state_time,accelx,accely,accelz,gyrox,gyroy,gyroz,mot_ang,mot_vel,mot_acc,mot_cur,mot_volt,batt_volt,batt_curr,temperature,status_mn,status_ex,status_re,genvar_0,genvar_1,genvar_2,genvar_3,genvar_4,genvar_5,genvar_6,genvar_7,genvar_8,genvar_9,ank_ang,ank_vel,sys_time,event flags
17105,-282,-8282,682,-43,42,5,9034,1,-1,0,0,37470,327,26,79,0,0,0,0,0,0,0,0,-32315,0,0,0,4106,0,6750,0
17115,-276,-8278,672,-52,39,8,9035,1,1,0,0,37468,328,26,79,0,0,0,0,0,0,0,0,-32316,0,0,0,4106,0,17125,0
17125,-232,-8282,658,-52,41,22,9035,4,3,0,0,37465,323,26,79,0,0,0,0,0,0,0,0,-32315,0,0,0,4106,0,17145,0
17135,-244,-8260,650,-55,42,23,9034,-1,4,0,0,37464,334,26,79,0,0,0,0,0,0,0,0,-32315,0,0,0,4106,0,17165,0
17145,-290,-8234,648,-55,44,26,9035,1,2,-1,0,37465,331,26,79,0,0,0,0,0,0,0,0,-32315,0,0,0,4105,0,17185,0
17155,-330,-8274,622,-49,44,27,9034,1,-3,0,0,37465,329,26,79,0,0,0,0,0,0,0,0,-32316,0,0,0,4106,0,17205,0
17165,-330,-8244,640,-48,48,17,9034,-8,1,0,0,37467,323,26,79,0,0,0,0,0,0,0,0,-32316,0,0,0,4106,0,17225,0
17175,-354,-8258,638,-50,39,16,9036,2,-2,0,0,37463,327,26,79,0,0,0,0,0,0,0,0,-32316,0,0,0,4106,0,17246,0
17185,-324,-8262,616,-44,39,11,9034,-1,1,1,0,37461,330,26,79,0,0,0,0,0,0,0,0,-32316,0,0,0,4106,0,17266,0
17195,-310,-8304,616,-49,40,9,9033,-1,-2,-1,0,37464,323,26,79,0,0,0,0,0,0,0,0,-32316,0,0,0,4106,0,17286,0
17205,-324,-8254,618,-47,41,9,9035,-1,0,2,0,37473,319,26,79,0,0,0,0,0,0,0,0,-32316,0,0,0,4106,0,17306,0
17215,-330,-8280,634,-44,36,-1,9034,1,-1,0,0,37473,318,26,79,0,0,0,0,0,0,0,0,-32316,0,0,0,4106,0,17329,0
17225,-356,-8250,670,-38,42,-11,9034,-1,-1,1,0,37468,323,26,79,0,0,0,0,0,0,0,0,-32316,0,0,0,4106,0,17349,0
17235,-336,-8252,662,-47,46,-12,9034,-5,2,0,0,37459,321,26,79,0,0,0,0,0,0,0,0,-32315,0,0,0,4106,0,17369,0
17245,-266,-8290,666,-51,47,-13,9034,-2,-2,-1,0,37460,327,26,79,0,0,0,0,0,0,0,0,-32316,0,0,0,4106,0,17389,0
17255,-272,-8262,644,-45,42,-8,9034,-4,2,1,0,37460,336,26,79,0,0,0,0,0,0,0,0,-32315,0,0,0,4104,0,17409,0
17265,-318,-8248,648,-44,41,-7,9034,-6,0,0,0,37460,337,26,79,0,0,0,0,0,0,0,0,-32316,0,0,0,4102,0,17429,0
17275,-316,-8252,614,-45,42,-5,9035,2,-3,0,0,37458,339,26,79,0,0,0,0,0,0,0,0,-32315,0,0,0,4102,0,17449,0
17285,-282,-8268,648,-46,44,-2,9035,-2,-4,-1,0,37458,329,26,79,0,0,0,0,0,0,0,0,-32315,0,0,0,4104,0,17469,0
17295,-240,-8270,664,-39,46,0,9034,3,1,-1,0,37460,325,26,79,0,0,0,0,0,0,0,0,-32315,0,0,0,4102,0,17489,0
17305,-250,-8260,658,-50,40,9,9035,0,-2,1,0,37461,319,26,79,0,0,0,0,0,0,0,0,-32315,0,0,0,4102,0,17509,0
17315,-238,-8258,618,-50,41,13,9034,-4,0,1,0,37462,320,26,79,0,0,0,0,0,0,0,0,-32315,0,0,0,4102,0,17529,0
17325,-304,-8258,662,-44,42,9,9035,5,8,-1,0,37461,325,26,79,0,0,0,0,0,0,0,0,-32316,0,0,0,4102,0,17549,0
17335,-316,-8280,680,-49,40,6,9034,1,10,0,0,37466,313,26,79,0,0,0,0,0,0,0,0,-32316,0,0,0,4102,0,17569,0
17345,-306,-8288,658,-54,42,7,9033,-1,2,1,0,37464,325,26,79,0,0,0,0,0,0,0,0,-32316,0,0,0,4101,0,17589,0
17355,-324,-8260,664,-49,42,5,9033,-3,-1,-1,0,37461,334,26,79,0,0,0,0,0,0,0,0,-32316,0,0,0,4102,0,17609,0
17365,-292,-8264,654,-46,46,4,9036,8,1,0,0,37458,334,26,79,0,0,0,0,0,0,0,0,-32316,0,0,0,4102,0,17629,0
17375,-308,-8282,648,-48,46,2,9035,0,1,-1,0,37458,326,26,79,0,0,0,0,0,0,0,0,-32315,0,0,0,4102,0,17649,0
17385,-296,-8236,662,-48,44,7,9034,-4,-2,0,0,37458,327,26,79,0,0,0,0,0,0,0,0,-32316,0,0,0,4102,0,17670,0
17395,-252,-8278,658,-48,37,5,9034,-2,0,0,0,37460,334,26,79,0,0,0,0,0,0,0,0,-32316,0,0,0,4102,0,17690,0
17405,-262,-8284,662,-49,42,15,9034,0,-5,0,0,37460,339,26,79,0,0,0,0,0,0,0,0,-32316,0,0,0,4102,0,17710,0
17415,-268,-8286,664,-49,38,16,9034,1,-5,0,0,37471,339,26,79,0,0,0,0,0,0,0,0,-32315,0,0,0,4102,0,17730,0
17425,-284,-8234,634,-52,39,16,9034,-2,3,0,0,37472,334,26,79,0,0,0,0,0,0,0,0,-32316,0,0,0,4102,0,17750,0
17435,-276,-8270,650,-57,41,18,9035,3,2,0,0,37472,336,26,79,0,0,0,0,0,0,0,0,-32315,0,0,0,4102,0,17770,0
17445,-296,-8236,672,-53,45,22,9034,-1,2,-1,0,37461,332,26,79,0,0,0,0,0,0,0,0,-32315,0,0,0,4102,0,17790,0
17455,-288,-8278,692,-54,41,24,9034,1,0,1,0,37460,325,26,79,0,0,0,0,0,0,0,0,-32315,0,0,0,4102,0,17810,0
17465,-306,-8262,674,-62,42,26,9034,1,-4,0,0,37464,322,26,79,0,0,0,0,0,0,0,0,-32316,0,0,0,4102,0,17830,0
17475,-304,-8266,666,-53,40,25,9034,0,1,-1,0,37466,325,26,79,0,0,0,0,0,0,0,0,-32315,0,0,0,4104,0,17850,0
17485,-294,-8252,632,-56,39,27,9035,4,0,0,0,37463,326,26,79,0,0,0,0,0,0,0,0,-32316,0,0,0,4104,0,17870,0
17495,-270,-8274,634,-62,43,27,9034,2,0,0,0,37461,324,26,79,0,0,0,0,0,0,0,0,-32315,0,0,0,4104,0,17890,0
17505,-254,-8262,650,-60,45,31,9034,-5,-2,0,0,37462,326,26,79,0,0,0,0,0,0,0,0,-32316,0,0,0,4103,0,17910,0
17515,-260,-8264,648,-62,38,34,9034,0,1,-1,0,37465,324,26,79,0,0,0,0,0,0,0,0,-32316,0,0,0,4105,0,17930,0
17525,-266,-8270,668,-68,27,46,9036,4,0,-1,0,37472,322,26,79,0,0,0,0,0,0,0,0,-32316,0,0,0,4104,0,17950,0
17535,-286,-8294,670,-66,32,50,9035,3,-1,0,0,37470,317,26,79,0,0,0,0,0,0,0,0,-32315,0,0,0,4105,0,17970,0
17545,-308,-8258,682,-70,35,50,9035,4,-2,-1,0,37473,313,26,79,0,0,0,0,0,0,0,0,-32316,0,0,0,4106,0,17990,0
17555,-336,-8292,658,-70,40,47,9035,-3,1,0,0,37473,316,26,79,0,0,0,0,0,0,0,0,-32315,0,0,0,4107,0,18010,0
17565,-288,-8258,654,-74,36,40,9034,-1,-3,0,0,37476,325,26,79,0,0,0,0,0,0,0,0,-32316,0,0,0,4107,0,18030,0
17575,-262,-8266,616,-61,41,42,9035,8,-1,0,0,37475,337,26,79,0,0,0,0,0,0,0,0,-32315,0,0,0,4107,0,18050,0
17585,-352,-8254,602,-66,28,50,9033,-9,-3,0,0,37472,340,27,79,0,0,0,0,0,0,0,0,-32316,0,0,0,4109,0,18070,0
17595,-320,-8286,632,-62,38,46,9033,-9,-2,-1,0,37473,340,26,79,0,0,0,0,0,0,0,0,-32316,0,0,0,4109,0,18090,0
17605,-362,-8246,640,-61,34,36,9036,6,0,-1,0,37473,341,26,79,0,0,0,0,0,0,0,0,-32316,0,0,0,4108,0,18110,0
17615,-418,-8274,588,-61,29,32,9035,-3,0,0,0,37469,337,26,79,0,0,0,0,0,0,0,0,-32316,0,0,0,4110,0,18130,0
17625,-354,-8276,670,-57,43,17,9034,3,2,1,0,37464,340,26,79,0,0,0,0,0,0,0,0,-32315,0,0,0,4110,0,18150,0
17635,-336,-8264,650,-51,37,12,9034,-3,1,-1,0,37467,349,26,79,0,0,0,0,0,0,0,0,-32316,0,0,0,4109,0,18170,0
17645,-298,-8262,624,-51,40,9,9035,0,-3,0,0,37468,347,26,79,0,0,0,0,0,0,0,0,-32315,0,0,0,4111,0,18190,0
17655,-302,-8302,614,-53,42,13,9035,7,3,1,0,37471,345,26,79,0,0,0,0,0,0,0,0,-32315,0,0,0,4109,0,18210,0
17665,-286,-8250,642,-54,40,17,9034,-5,0,0,0,37465,331,26,79,0,0,0,0,0,0,0,0,-32315,0,0,0,4111,0,18230,0
17675,-270,-8276,654,-53,42,13,9032,-9,1,0,0,37464,327,26,79,0,0,0,0,0,0,0,0,-32316,0,0,0,4109,0,18250,0
17685,-282,-8308,664,-58,38,19,9034,-7,2,0,0,37468,323,26,79,0,0,0,0,0,0,0,0,-32316,0,0,0,4109,0,18270,0
17695,-300,-8282,662,-54,42,23,9034,-7,-3,-1,0,37470,328,26,79,0,0,0,0,0,0,0,0,-32316,0,0,0,4111,0,18290,0
17705,-322,-8270,640,-52,37,23,9034,-6,2,0,0,37470,329,26,79,0,0,0,0,0,0,0,0,-32316,0,0,0,4111,0,18310,0
17715,-326,-8282,638,-55,35,25,9034,0,3,0,0,37468,328,26,79,0,0,0,0,0,0,0,0,-32316,0,0,0,4109,0,18330,0
17725,-322,-8246,652,-52,43,17,9035,1,0,-3,0,37472,331,26,79,0,0,0,0,0,0,0,0,-32316,0,0,0,4110,0,18350,0
17735,-292,-8264,648,-58,44,22,9033,-5,3,-1,0,37473,333,26,79,0,0,0,0,0,0,0,0,-32316,0,0,0,4111,0,18370,0
17745,-298,-8268,652,-56,37,20,9034,-1,-2,-1,0,37473,336,26,79,0,0,0,0,0,0,0,0,-32316,0,0,0,4110,0,18390,0
17755,-270,-8248,638,-56,39,26,9036,5,-1,1,0,37471,339,26,79,0,0,0,0,0,0,0,0,-32315,0,0,0,4110,0,18410,0
17765,-304,-8314,640,-54,43,25,9036,7,0,0,0,37469,330,26,79,0,0,0,0,0,0,0,0,-32315,0,0,0,4111,0,18430,0
17775,-348,-8272,630,-54,36,22,9035,2,-1,0,0,37472,330,26,79,0,0,0,0,0,0,0,0,-32316,0,0,0,4110,0,18450,0
17785,-334,-8246,628,-51,37,23,9034,-5,1,0,0,37471,325,26,79,0,0,0,0,0,0,0,0,-32316,0,0,0,4110,0,18470,0
17795,-344,-8240,624,-45,40,18,9034,-9,0,-2,0,37470,330,26,79,0,0,0,0,0,0,0,0,-32316,0,0,0,4112,0,18490,0
17805,-358,-8260,614,-47,39,8,9034,0,-1,0,0,37470,329,26,79,0,0,0,0,0,0,0,0,-32316,0,0,0,4112,0,18510,0
17815,-330,-8220,634,-48,39,6,9034,0,4,1,0,37473,325,26,79,0,0,0,0,0,0,0,0,-32316,0,0,0,4111,0,18530,0
17825,-318,-8284,628,-49,38,9,9035,5,-1,1,0,37473,325,26,79,0,0,0,0,0,0,0,0,-32316,0,0,0,4112,0,18550,0
17835,-282,-8262,652,-51,37,8,9035,8,1,0,0,37476,320,26,79,0,0,0,0,0,0,0,0,-32315,0,0,0,4111,0,18570,0
17845,-296,-8274,628,-44,37,17,9035,5,-1,0,0,37482,322,26,79,0,0,0,0,0,0,0,0,-32315,0,0,0,4111,0,18590,0
17855,-332,-8226,612,-44,37,18,9033,-4,0,0,0,37484,317,26,79,0,0,0,0,0,0,0,0,-32315,0,0,0,4111,0,18610,0
17865,-310,-8666,800,-56,36,10,9035,4,-1,0,0,37484,320,26,79,0,0,0,0,0,0,0,0,-32316,0,0,0,4111,0,18630,0
17875,-362,-7826,748,-53,35,9,9034,-1,-2,0,0,37475,326,26,79,0,0,0,0,0,0,0,0,-32315,0,0,0,4111,0,18650,0
17885,-308,-8208,380,-49,35,2,9035,3,6,0,0,37472,326,26,79,0,0,0,0,0,0,0,0,-32315,0,0,0,4111,0,18670,0
17895,-280,-8396,350,-31,39,-3,9036,7,-1,-1,0,37473,332,26,79,0,0,0,0,0,0,0,0,-32315,0,0,0,4111,0,18690,0
17905,-194,-8120,586,-8,40,16,9033,-3,0,0,0,37472,326,26,79,0,0,0,0,0,0,0,0,-32315,0,0,0,4111,0,18710,0
17915,-240,-8388,680,-19,27,23,9034,-4,4,0,0,37472,328,27,79,0,0,0,0,0,0,0,0,-32316,0,0,0,4110,0,18730,0
17925,-378,-8310,794,-39,18,12,9034,-3,2,0,0,37474,328,26,79,0,0,0,0,0,0,0,0,-32317,0,0,0,4110,0,18750,0
17935,-524,-8276,800,-35,38,-1,9035,4,5,0,0,37476,325,26,79,0,0,0,0,0,0,0,0,-32315,0,0,0,4111,0,18770,0
17945,-402,-8236,748,-49,37,-9,9033,-5,-2,0,0,37484,326,26,79,0,0,0,0,0,0,0,0,-32315,0,0,0,4109,0,18790,0
17955,-312,-8264,814,-49,31,-37,9035,3,-2,0,0,37483,326,26,79,0,0,0,0,0,0,0,0,-32315,0,0,0,4109,0,18810,0
17965,-380,-8360,648,-75,46,-34,9034,-1,0,0,0,37479,327,26,79,0,0,0,0,0,0,0,0,-32315,0,0,0,4109,0,18830,0
17975,-314,-7996,542,-68,53,-23,9034,1,-1,-2,0,37474,329,26,79,0,0,0,0,0,0,0,0,-32315,0,0,0,4108,0,18850,0
17985,-136,-8146,404,-42,48,-13,9034,0,1,-3,0,37469,323,26,79,0,0,0,0,0,0,0,0,-32315,0,0,0,4108,0,18870,0
17995,-110,-8406,484,-42,44,-1,9035,5,5,0,0,37470,321,26,79,0,0,0,0,0,0,0,0,-32315,0,0,0,4108,0,18890,0
18005,-142,-8192,576,-47,52,56,9033,-9,-5,2,0,37469,325,26,79,0,0,0,0,0,0,0,0,-32315,0,0,0,4109,0,18910,0
18015,-58,-8372,736,-53,41,71,9034,-3,0,0,0,37469,329,26,79,0,0,0,0,0,0,0,0,-32315,0,0,0,4111,0,18930,0
18025,-22,-8282,862,-65,35,105,9035,3,1,0,0,37467,337,26,79,0,0,0,0,0,0,0,0,-32315,0,0,0,4112,0,18950,0
18035,-82,-8298,780,-67,30,146,9033,-4,-4,-2,0,37464,332,26,79,0,0,0,0,0,0,0,0,-32315,0,0,0,4114,0,18970,0
18045,-34,-8290,820,-98,28,174,9035,9,5,0,0,37465,329,26,79,0,0,0,0,0,0,0,0,-32315,0,0,0,4117,0,18990,0
18055,-152,-8336,870,-106,27,154,9035,0,4,-1,0,37470,331,26,79,0,0,0,0,0,0,0,0,-32315,0,0,0,4119,0,19010,0
18065,-476,-8350,764,-124,29,178,9034,1,-4,-1,0,37472,327,26,79,0,0,0,0,0,0,0,0,-32315,0,0,0,4121,0,19030,0
18075,-382,-8208,558,-116,31,164,9035,1,2,0,0,37469,331,26,79,0,0,0,0,0,0,0,0,-32316,0,0,0,4123,0,19050,0
18085,-508,-8318,460,-98,32,109,9035,1,1,0,0,37464,330,26,79,0,0,0,0,0,0,0,0,-32315,0,0,0,4125,0,19070,0
18095,-624,-8278,412,-85,35,93,9035,4,0,-1,0,37464,336,26,79,0,0,0,0,0,0,0,0,-32315,0,0,0,4126,0,19090,0
18105,-656,-8190,412,-57,33,63,9034,-4,3,1,0,37467,338,26,79,0,0,0,0,0,0,0,0,-32315,0,0,0,4127,0,19110,0
18115,-530,-8306,512,-44,41,14,9034,0,-2,0,0,37466,335,26,79,0,0,0,0,0,0,0,0,-32316,0,0,0,4128,0,19130,0
18125,-452,-8246,618,-34,32,-2,9033,-8,-3,0,0,37464,336,26,79,0,0,0,0,0,0,0,0,-32315,0,0,0,4127,0,19150,0
18135,-380,-8244,592,-39,34,3,9034,-1,2,-1,0,37462,329,26,79,0,0,0,0,0,0,0,0,-32315,0,0,0,4128,0,19170,0
18145,-344,-8328,634,-36,30,-21,9034,-1,1,0,0,37463,334,26,79,0,0,0,0,0,0,0,0,-32315,0,0,0,4125,0,19190,0
18155,-352,-8284,648,-25,31,-30,9035,3,1,1,0,37464,335,26,79,0,0,0,0,0,0,0,0,-32315,0,0,0,4126,0,19210,0
18165,-390,-8236,644,-35,35,-13,9034,2,4,0,0,37470,326,26,79,0,0,0,0,0,0,0,0,-32315,0,0,0,4125,0,19231,0
18175,-318,-8356,640,-39,29,-21,9035,5,-1,0,0,37469,317,26,79,0,0,0,0,0,0,0,0,-32315,0,0,0,4125,0,19251,0
18185,-428,-8224,616,-34,44,-42,9034,0,0,0,0,37471,319,26,79,0,0,0,0,0,0,0,0,-32316,0,0,0,4124,0,19271,0
18195,-478,-8192,564,-30,39,-38,9033,0,-1,-2,0,37467,318,26,79,0,0,0,0,0,0,0,0,-32315,0,0,0,4123,0,19291,0
18205,-394,-8314,614,-22,47,-60,9035,-2,2,0,0,37470,324,26,79,0,0,0,0,0,0,0,0,-32315,0,0,0,4122,0,19311,0
18215,-366,-8302,632,-33,47,-73,9036,5,1,0,0,37468,326,26,79,0,0,0,0,0,0,0,0,-32315,0,0,0,4121,0,19331,0
18225,-374,-8252,654,-29,57,-71,9034,-6,-1,-1,0,37466,339,26,79,0,0,0,0,0,0,0,0,-32315,0,0,0,4120,0,19351,0
18235,-274,-8258,544,-23,51,-61,9033,1,-3,0,0,37466,334,26,79,0,0,0,0,0,0,0,0,-32315,0,0,0,4119,0,19371,0
18245,-244,-8296,640,-12,40,-79,9035,3,1,-2,0,37468,328,26,79,0,0,0,0,0,0,0,0,-32315,0,0,0,4117,0,19391,0
18255,-356,-8274,668,-17,45,-59,9034,1,-5,0,0,37467,325,26,79,0,0,0,0,0,0,0,0,-32316,0,0,0,4117,0,19411,0
18265,-220,-8252,688,-20,47,-57,9035,2,1,0,0,37463,342,26,79,0,0,0,0,0,0,0,0,-32315,0,0,0,4115,0,19431,0
18275,-226,-8294,714,-23,48,-58,9034,0,-1,0,0,37457,343,26,79,0,0,0,0,0,0,0,0,-32316,0,0,0,4112,0,19451,0
18285,-282,-8262,700,-35,58,-44,9034,-4,-1,0,0,37457,342,26,79,0,0,0,0,0,0,0,0,-32315,0,0,0,4112,0,19471,0
18295,-234,-8218,682,-31,46,-15,9034,4,2,-1,0,37458,334,26,79,0,0,0,0,0,0,0,0,-32315,0,0,0,4111,0,19491,0
18305,-110,-8298,744,-44,50,-8,9035,0,-2,0,0,37458,329,26,79,0,0,0,0,0,0,0,0,-32315,0,0,0,4112,0,19512,0
18315,-206,-8224,670,-59,51,17,9036,3,-3,0,0,37457,331,26,79,0,0,0,0,0,0,0,0,-32316,0,0,0,4111,0,19531,0
18325,-114,-8262,632,-63,42,47,9035,3,2,0,0,37457,326,26,79,0,0,0,0,0,0,0,0,-32315,0,0,0,4111,0,19551,0
18335,-106,-8312,712,-67,40,56,9034,-3,0,-1,0,37468,327,26,79,0,0,0,0,0,0,0,0,-32316,0,0,0,4112,0,19571,0
18345,-130,-8292,708,-74,54,83,9034,-4,-3,-1,0,37479,321,26,79,0,0,0,0,0,0,0,0,-32316,0,0,0,4112,0,19591,0
18355,-214,-8234,626,-74,40,119,9035,1,0,0,0,37488,322,26,79,0,0,0,0,0,0,0,0,-32315,0,0,0,4114,0,19611,0
18365,-182,-8282,632,-79,19,129,9035,-4,-4,1,0,37481,326,26,79,0,0,0,0,0,0,0,0,-32316,0,0,0,4114,0,19632,0
18375,-324,-8316,728,-80,29,125,9033,-3,-4,-1,0,37476,329,26,79,0,0,0,0,0,0,0,0,-32315,0,0,0,4117,0,19652,0
18385,-404,-8206,666,-85,45,134,9035,-1,-1,0,0,37464,329,26,79,0,0,0,0,0,0,0,0,-32316,0,0,0,4118,0,19672,0
18395,-318,-8252,616,-80,40,126,9035,0,0,0,0,37464,332,26,79,0,0,0,0,0,0,0,0,-32316,0,0,0,4119,0,19692,0
18405,-328,-8274,602,-73,41,122,9033,-4,-1,0,0,37460,334,26,79,0,0,0,0,0,0,0,0,-32316,0,0,0,4122,0,19712,0
18415,-368,-8226,586,-75,35,137,9035,-5,-5,2,0,37459,332,26,79,0,0,0,0,0,0,0,0,-32316,0,0,0,4123,0,19732,0
18425,-360,-8298,632,-67,31,131,9034,3,1,-1,0,37460,332,27,79,0,0,0,0,0,0,0,0,-32316,0,0,0,4125,0,19752,0
18435,-382,-8310,680,-70,42,106,9034,-2,-4,0,0,37458,326,26,79,0,0,0,0,0,0,0,0,-32316,0,0,0,4126,0,19772,0
18445,-384,-8298,634,-69,49,107,9034,-3,-4,0,0,37463,324,26,79,0,0,0,0,0,0,0,0,-32315,0,0,0,4127,0,19792,0
18455,-300,-8280,586,-68,40,115,9034,-4,4,0,0,37461,325,26,79,0,0,0,0,0,0,0,0,-32315,0,0,0,4129,0,19812,0
18465,-298,-8288,584,-61,34,101,9034,1,2,1,0,37461,322,26,79,0,0,0,0,0,0,0,0,-32315,0,0,0,4131,0,19832,0
18475,-452,-8270,606,-65,35,105,9034,-2,-1,-1,0,37461,330,26,79,0,0,0,0,0,0,0,0,-32315,0,0,0,4131,0,19852,0
18485,-474,-8266,616,-59,33,102,9034,-2,-1,-2,0,37462,335,26,79,0,0,0,0,0,0,0,0,-32316,0,0,0,4133,0,19872,0
18495,-446,-8264,676,-63,44,75,9034,1,6,-2,0,37463,335,26,79,0,0,0,0,0,0,0,0,-32315,0,0,0,4133,0,19892,0
18505,-526,-8254,614,-68,45,68,9035,1,-2,1,0,37462,325,26,79,0,0,0,0,0,0,0,0,-32315,0,0,0,4135,0,19912,0
18515,-512,-8262,596,-67,38,64,9034,0,-1,0,0,37463,326,26,79,0,0,0,0,0,0,0,0,-32315,0,0,0,4135,0,19932,0
18525,-466,-8266,608,-59,41,36,9034,0,3,0,0,37466,331,26,79,0,0,0,0,0,0,0,0,-32315,0,0,0,4136,0,19952,0
18535,-510,-8290,606,-55,43,12,9034,-4,-4,0,0,37464,326,26,79,0,0,0,0,0,0,0,0,-32315,0,0,0,4136,0,19972,0
18545,-454,-8264,540,-50,44,13,9035,-3,-4,0,0,37461,322,26,79,0,0,0,0,0,0,0,0,-32315,0,0,0,4136,0,19992,0
18555,-394,-8308,608,-39,44,0,9035,7,-1,0,0,37462,323,26,79,0,0,0,0,0,0,0,0,-32315,0,0,0,4135,0,20012,0
18565,-436,-8300,538,-32,35,-15,9033,-2,0,0,0,37465,326,26,79,0,0,0,0,0,0,0,0,-32315,0,0,0,4135,0,20032,0
18575,-488,-8234,570,-26,26,-8,9034,-1,0,0,0,37466,325,26,79,0,0,0,0,0,0,0,0,-32316,0,0,0,4134,0,20052,0
18585,-512,-8256,612,-20,32,-35,9034,3,2,0,0,37464,325,26,79,0,0,0,0,0,0,0,0,-32315,0,0,0,4135,0,20072,0
18595,-442,-8288,680,-23,40,-52,9034,-3,-5,-1,0,37464,326,26,79,0,0,0,0,0,0,0,0,-32316,0,0,0,4133,0,20092,0
18605,-442,-8262,674,-26,45,-53,9034,0,0,0,0,37466,323,26,79,0,0,0,0,0,0,0,0,-32315,0,0,0,4132,0,20112,0
18615,-364,-8240,624,-34,43,-50,9035,0,-1,0,0,37467,321,26,79,0,0,0,0,0,0,0,0,-32315,0,0,0,4131,0,20132,0
18625,-402,-8278,652,-33,42,-69,9034,-3,0,-1,0,37467,318,26,79,0,0,0,0,0,0,0,0,-32315,0,0,0,4131,0,20153,0
18635,-428,-8228,642,-27,44,-72,9034,3,2,-1,0,37463,321,26,79,0,0,0,0,0,0,0,0,-32315,0,0,0,4130,0,20172,0
18645,-358,-8280,610,-34,48,-74,9035,0,-5,-1,0,37466,320,26,79,0,0,0,0,0,0,0,0,-32316,0,0,0,4128,0,20192,0
18655,-310,-8306,656,-34,45,-84,9034,-2,1,2,0,37468,326,26,79,0,0,0,0,0,0,0,0,-32315,0,0,0,4127,0,20212,0
18665,-334,-8270,666,-25,43,-79,9034,-3,-2,0,0,37469,323,26,79,0,0,0,0,0,0,0,0,-32315,0,0,0,4125,0,20233,0
18675,-290,-8250,640,-33,45,-71,9035,3,0,0,0,37467,324,26,79,0,0,0,0,0,0,0,0,-32315,0,0,0,4124,0,20253,0
18685,-266,-8310,650,-31,42,-67,9035,10,2,2,0,37471,321,26,79,0,0,0,0,0,0,0,0,-32315,0,0,0,4123,0,20273,0
18695,-316,-8234,640,-32,45,-60,9035,-9,-3,0,0,37474,322,26,79,0,0,0,0,0,0,0,0,-32315,0,0,0,4121,0,20293,0
18705,-338,-8234,638,-42,38,-47,9033,0,1,0,0,37476,321,26,79,0,0,0,0,0,0,0,0,-32315,0,0,0,4119,0,20313,0
18715,-256,-8270,670,-35,44,-52,9035,4,-3,1,0,37472,318,26,79,0,0,0,0,0,0,0,0,-32315,0,0,0,4119,0,20333,0
18725,-300,-8266,698,-43,46,-44,9035,2,-2,0,0,37468,320,27,79,0,0,0,0,0,0,0,0,-32315,0,0,0,4119,0,20353,0
18735,-252,-8266,666,-47,46,-31,9036,4,0,-1,0,37470,309,26,79,0,0,0,0,0,0,0,0,-32315,0,0,0,4118,0,20373,0
18745,-160,-8290,636,-47,41,-25,9034,-2,4,-1,0,37472,309,26,79,0,0,0,0,0,0,0,0,-32315,0,0,0,4117,0,20393,0
18755,-204,-8306,672,-43,43,-18,9033,-1,0,0,0,37470,312,26,79,0,0,0,0,0,0,0,0,-32315,0,0,0,4117,0,20413,0
18765,-220,-8260,662,-48,41,8,9034,-2,-2,0,0,37467,320,26,79,0,0,0,0,0,0,0,0,-32315,0,0,0,4116,0,20433,0
18775,-180,-8276,672,-51,37,21,9036,9,-1,0,0,37466,317,26,79,0,0,0,0,0,0,0,0,-32315,0,0,0,4117,0,20453,0
18785,-254,-8276,676,-53,41,31,9035,7,2,0,0,37470,314,26,79,0,0,0,0,0,0,0,0,-32315,0,0,0,4116,0,20473,0
18795,-316,-8260,688,-58,42,38,9035,-3,-4,0,0,37475,314,26,79,0,0,0,0,0,0,0,0,-32315,0,0,0,4116,0,20493,0
18805,-380,-8250,660,-62,37,32,9034,-4,-1,0,0,37474,319,26,79,0,0,0,0,0,0,0,0,-32315,0,0,0,4117,0,20513,0
18815,-352,-8304,658,-64,45,25,9033,-10,1,1,0,37475,324,26,79,0,0,0,0,0,0,0,0,-32315,0,0,0,4117,0,20533,0
18825,-346,-8236,626,-63,40,33,9035,-1,-3,0,0,37475,319,26,79,0,0,0,0,0,0,0,0,-32315,0,0,0,4117,0,20553,0
18835,-326,-8250,594,-51,38,22,9036,3,-2,0,0,37478,316,26,79,0,0,0,0,0,0,0,0,-32316,0,0,0,4117,0,20573,0
18845,-294,-8312,634,-59,44,19,9034,-5,2,0,0,37478,319,26,79,0,0,0,0,0,0,0,0,-32316,0,0,0,4118,0,20593,0
18855,-292,-8266,658,-56,38,26,9034,2,-1,0,0,37476,328,26,79,0,0,0,0,0,0,0,0,-32316,0,0,0,4117,0,20613,0
18865,-284,-8266,648,-59,41,35,9035,-4,-4,0,0,37476,326,26,79,0,0,0,0,0,0,0,0,-32315,0,0,0,4117,0,20633,0
18875,-276,-8302,644,-61,37,34,9035,4,0,-2,0,37476,327,26,79,0,0,0,0,0,0,0,0,-32316,0,0,0,4118,0,20653,0
18885,-318,-8270,664,-61,41,41,9036,7,-3,0,0,37476,325,26,79,0,0,0,0,0,0,0,0,-32316,0,0,0,4118,0,20673,0
18895,-330,-8242,656,-62,43,47,9035,-1,3,0,0,37474,327,27,79,0,0,0,0,0,0,0,0,-32315,0,0,0,4118,0,20693,0
18905,-336,-8282,622,-68,39,51,9034,-1,0,0,0,37479,324,26,79,0,0,0,0,0,0,0,0,-32315,0,0,0,4120,0,20713,0
18915,-380,-8264,652,-64,39,46,9034,3,1,0,0,37477,324,26,79,0,0,0,0,0,0,0,0,-32316,0,0,0,4119,0,20733,0
18925,-380,-8266,608,-68,38,35,9034,-4,1,0,0,37475,323,27,79,0,0,0,0,0,0,0,0,-32316,0,0,0,4120,0,20753,0
18935,-386,-8312,626,-64,42,30,9034,-1,-3,-2,0,37466,316,26,79,0,0,0,0,0,0,0,0,-32316,0,0,0,4120,0,20773,0
18945,-378,-8266,620,-57,42,15,9034,-2,2,0,0,37466,318,26,79,0,0,0,0,0,0,0,0,-32316,0,0,0,4122,0,20793,0
18955,-388,-8264,612,-60,37,21,9036,-1,1,1,0,37469,320,26,79,0,0,0,0,0,0,0,0,-32316,0,0,0,4121,0,20813,0
18965,-264,-8286,622,-56,42,15,9033,-2,-5,0,0,37470,331,26,79,0,0,0,0,0,0,0,0,-32315,0,0,0,4119,0,20833,0
18975,-318,-8260,664,-56,42,16,9035,4,3,-1,0,37469,339,27,79,0,0,0,0,0,0,0,0,-32315,0,0,0,4122,0,20853,0
18985,-280,-8252,636,-58,46,24,9035,3,4,-1,0,37465,334,26,79,0,0,0,0,0,0,0,0,-32316,0,0,0,4120,0,20873,0
18995,-288,-8268,650,-65,39,29,9035,4,1,0,0,37464,328,26,79,0,0,0,0,0,0,0,0,-32315,0,0,0,4121,0,20893,0
19005,-248,-8260,692,-67,45,33,9034,1,4,-2,0,37472,328,26,79,0,0,0,0,0,0,0,0,-32316,0,0,0,4121,0,20913,0
19015,-292,-8240,668,-67,46,37,9036,5,4,0,0,37474,333,26,79,0,0,0,0,0,0,0,0,-32315,0,0,0,4122,0,20933,0
19025,-350,-8252,610,-62,36,48,9035,-2,0,0,0,37471,330,26,79,0,0,0,0,0,0,0,0,-32316,0,0,0,4121,0,20953,0
19035,-372,-8308,614,-65,39,35,9034,-5,-6,-1,0,37464,322,26,79,0,0,0,0,0,0,0,0,-32315,0,0,0,4121,0,20973,0
19045,-426,-8242,638,-59,41,29,9034,0,-2,0,0,37463,326,27,79,0,0,0,0,0,0,0,0,-32315,0,0,0,4122,0,20993,0
19055,-384,-8292,628,-54,40,14,9034,-11,-3,0,0,37464,331,26,79,0,0,0,0,0,0,0,0,-32315,0,0,0,4123,0,21013,0
19065,-342,-8308,622,-56,39,7,9034,1,-3,0,0,37464,331,26,79,0,0,0,0,0,0,0,0,-32315,0,0,0,4122,0,21033,0
19075,-346,-8264,598,-50,38,11,9034,0,1,-2,0,37463,328,26,79,0,0,0,0,0,0,0,0,-32315,0,0,0,4121,0,21053,0
19085,-372,-8272,582,-48,32,13,9034,1,1,0,0,37462,321,26,79,0,0,0,0,0,0,0,0,-32315,0,0,0,4122,0,21073,0
19095,-360,-8272,614,-49,34,2,9035,2,1,0,0,37462,321,26,79,0,0,0,0,0,0,0,0,-32315,0,0,0,4121,0,21093,0
19105,-348,-8238,668,-44,40,-2,9036,6,5,2,0,37462,334,26,79,0,0,0,0,0,0,0,0,-32315,0,0,0,4121,0,21113,0
19115,-342,-8284,654,-44,39,0,9034,-1,-1,0,0,37472,331,26,79,0,0,0,0,0,0,0,0,-32315,0,0,0,4122,0,21133,0
19125,-338,-8286,596,-47,42,-8,9033,-5,-3,0,0,37470,319,26,79,0,0,0,0,0,0,0,0,-32315,0,0,0,4120,0,21153,0
19135,-340,-8248,658,-38,52,-17,9036,5,2,0,0,37467,316,26,79,0,0,0,0,0,0,0,0,-32315,0,0,0,4119,0,21173,0
19145,-402,-8274,604,-45,45,-16,9034,-4,-2,-1,0,37460,323,26,79,0,0,0,0,0,0,0,0,-32315,0,0,0,4119,0,21193,0
19155,-406,-8286,578,-35,47,-30,9034,0,-2,1,0,37461,330,26,79,0,0,0,0,0,0,0,0,-32315,0,0,0,4117,0,21213,0
19165,-448,-8264,576,-28,46,-48,9034,-2,0,0,0,37463,321,26,79,0,0,0,0,0,0,0,0,-32315,0,0,0,4117,0,21233,0
19175,-366,-8274,614,-28,64,-45,9034,2,-3,-1,0,37461,316,27,79,0,0,0,0,0,0,0,0,-32315,0,0,0,4115,0,21253,0
19185,-342,-8280,598,-30,49,-53,9035,0,1,-1,0,37458,326,26,79,0,0,0,0,0,0,0,0,-32316,0,0,0,4113,0,21273,0
19195,-272,-8260,670,-27,55,-50,9034,-4,-4,0,0,37461,328,26,79,0,0,0,0,0,0,0,0,-32315,0,0,0,4112,0,21293,0
19205,-264,-8288,638,-19,50,-43,9034,-6,-3,0,0,37462,324,26,79,0,0,0,0,0,0,0,0,-32315,0,0,0,4109,0,21313,0
19215,-298,-8258,596,-27,47,-36,9035,0,0,0,0,37469,327,26,79,0,0,0,0,0,0,0,0,-32315,0,0,0,4110,0,21333,0
19225,-284,-8280,664,-18,43,-29,9034,5,-4,0,0,37464,331,27,79,0,0,0,0,0,0,0,0,-32315,0,0,0,4110,0,21353,0
19235,-290,-8256,686,-25,46,-22,9035,0,2,-2,0,37463,329,26,79,0,0,0,0,0,0,0,0,-32315,0,0,0,4109,0,21373,0
19245,-268,-8270,686,-34,47,-13,9033,-5,-1,0,0,37458,314,26,79,0,0,0,0,0,0,0,0,-32315,0,0,0,4108,0,21393,0
19255,-288,-8276,674,-33,45,-13,9035,0,-3,1,0,37460,312,26,79,0,0,0,0,0,0,0,0,-32316,0,0,0,4108,0,21413,0
19265,-262,-8278,652,-32,43,-1,9034,7,3,-1,0,37460,322,26,79,0,0,0,0,0,0,0,0,-32315,0,0,0,4108,0,21433,0
19275,-272,-8278,594,-32,45,-3,9035,-1,3,-1,0,37458,324,26,79,0,0,0,0,0,0,0,0,-32316,0,0,0,4108,0,21454,0
19285,-232,-8246,650,-34,36,11,9034,1,2,-1,0,37455,317,27,79,0,0,0,0,0,0,0,0,-32316,0,0,0,4107,0,21474,0
19295,-282,-8242,642,-33,38,20,9034,-3,2,-2,0,37457,320,26,79,0,0,0,0,0,0,0,0,-32316,0,0,0,4108,0,21494,0
19305,-300,-8222,674,-44,39,21,9034,3,-6,0,0,37457,321,26,79,0,0,0,0,0,0,0,0,-32315,0,0,0,4108,0,21514,0
19315,-258,-8296,722,-46,45,27,9034,-6,0,0,0,37457,331,27,79,0,0,0,0,0,0,0,0,-32316,0,0,0,4108,0,21534,0
19325,-212,-8234,724,-60,46,38,9033,-6,-4,-1,0,37455,329,26,79,0,0,0,0,0,0,0,0,-32315,0,0,0,4108,0,21554,0
19335,-170,-8250,696,-66,39,53,9035,7,-3,-1,0,37455,326,26,79,0,0,0,0,0,0,0,0,-32315,0,0,0,4109,0,21574,0
19345,-174,-8280,666,-72,35,73,9034,0,-3,-1,0,37458,328,26,79,0,0,0,0,0,0,0,0,-32316,0,0,0,4108,0,21595,0
19355,-144,-8260,682,-74,26,90,9035,5,6,0,0,37456,315,26,79,0,0,0,0,0,0,0,0,-32316,0,0,0,4111,0,21615,0
19365,-212,-8288,700,-75,22,107,9034,-5,1,0,0,37454,320,27,79,0,0,0,0,0,0,0,0,-32315,0,0,0,4113,0,21635,0
19375,-268,-8278,698,-75,18,113,9035,5,3,0,0,37451,317,26,79,0,0,0,0,0,0,0,0,-32316,0,0,0,4114,0,21655,0
19385,-388,-8242,670,-78,29,115,9034,0,-1,0,0,37453,321,26,79,0,0,0,0,0,0,0,0,-32315,0,0,0,4116,0,21676,0
19395,-432,-8290,640,-78,29,109,9035,2,1,0,0,37453,323,26,79,0,0,0,0,0,0,0,0,-32315,0,0,0,4117,0,21695,0
19405,-468,-8280,584,-76,31,87,9033,-6,2,0,0,37455,323,26,79,0,0,0,0,0,0,0,0,-32315,0,0,0,4118,0,21715,0
19415,-460,-8240,592,-68,39,70,9035,-1,-1,0,0,37454,327,26,79,0,0,0,0,0,0,0,0,-32315,0,0,0,4119,0,21736,0
19425,-426,-8296,584,-61,43,50,9034,-3,1,1,0,37458,317,26,79,0,0,0,0,0,0,0,0,-32316,0,0,0,4119,0,21756,0
19435,-370,-8260,590,-57,43,48,9034,0,2,0,0,37460,318,27,79,0,0,0,0,0,0,0,0,-32315,0,0,0,4119,0,21776,0
19445,-390,-8252,576,-46,35,34,9035,5,-2,0,0,37460,320,26,79,0,0,0,0,0,0,0,0,-32316,0,0,0,4121,0,21796,0
19455,-384,-8290,584,-44,40,31,9034,0,-4,0,0,37457,326,26,79,0,0,0,0,0,0,0,0,-32316,0,0,0,4122,0,21816,0
19465,-322,-8280,626,-44,42,30,9035,2,0,0,0,37458,321,26,79,0,0,0,0,0,0,0,0,-32316,0,0,0,4122,0,21836,0
19475,-308,-8272,668,-39,46,25,9034,2,2,-2,0,37461,319,26,79,0,0,0,0,0,0,0,0,-32315,0,0,0,4121,0,21856,0
19485,-324,-8284,626,-43,38,29,9035,7,3,-1,0,37464,320,26,79,0,0,0,0,0,0,0,0,-32316,0,0,0,4122,0,21876,0
19495,-364,-8264,614,-42,39,33,9035,5,1,-1,0,37464,326,26,79,0,0,0,0,0,0,0,0,-32315,0,0,0,4121,0,21896,0
19505,-432,-8254,614,-33,42,23,9033,-2,-2,1,0,37465,322,26,79,0,0,0,0,0,0,0,0,-32315,0,0,0,4121,0,21917,0
19515,-468,-8288,602,-37,43,14,9034,-4,-5,0,0,37465,321,26,79,0,0,0,0,0,0,0,0,-32315,0,0,0,4122,0,21936,0
19525,-440,-8290,628,-30,38,1,9034,-2,2,0,0,37468,317,26,79,0,0,0,0,0,0,0,0,-32315,0,0,0,4121,0,21956,0
19535,-386,-8280,662,-23,41,-18,9034,3,-1,0,0,37473,319,26,79,0,0,0,0,0,0,0,0,-32315,0,0,0,4122,0,21977,0
19545,-420,-8266,648,-21,45,-27,9034,1,1,0,0,37470,318,26,79,0,0,0,0,0,0,0,0,-32315,0,0,0,4120,0,21996,0
19555,-430,-8284,650,-21,45,-28,9035,4,3,0,0,37469,326,26,79,0,0,0,0,0,0,0,0,-32316,0,0,0,4119,0,22017,0
19565,-416,-8266,672,-19,56,-52,9034,-1,-6,0,0,37464,324,27,79,0,0,0,0,0,0,0,0,-32315,0,0,0,4118,0,22037,0
19575,-408,-8284,692,-28,62,-66,9034,1,0,0,0,37464,324,26,79,0,0,0,0,0,0,0,0,-32315,0,0,0,4117,0,22057,0
19585,-364,-8254,680,-32,63,-78,9035,7,-1,-1,0,37459,322,26,79,0,0,0,0,0,0,0,0,-32316,0,0,0,4115,0,22077,0
19595,-322,-8260,676,-36,65,-80,9035,0,1,-1,0,37457,325,26,79,0,0,0,0,0,0,0,0,-32315,0,0,0,4113,0,22097,0
19605,-300,-8232,694,-41,57,-83,9034,1,0,1,0,37461,326,26,79,0,0,0,0,0,0,0,0,-32316,0,0,0,4112,0,22117,0
19615,-308,-8268,694,-51,57,-79,9035,5,-1,0,0,37474,328,27,79,0,0,0,0,0,0,0,0,-32316,0,0,0,4109,0,22137,0
19625,-310,-8264,702,-56,58,-73,9034,1,-1,0,0,37474,323,26,79,0,0,0,0,0,0,0,0,-32315,0,0,0,4108,0,22157,0
19635,-302,-8280,686,-60,53,-77,9035,4,-3,0,0,37475,326,26,79,0,0,0,0,0,0,0,0,-32315,0,0,0,4104,-1,22177,0
19645,-204,-8260,700,-62,58,-63,9034,-5,2,-1,0,37468,332,26,79,0,0,0,0,0,0,0,0,-32315,0,0,0,4106,0,22197,0
19655,-194,-8268,704,-76,50,-53,9035,0,-3,2,0,37465,327,27,79,0,0,0,0,0,0,0,0,-32315,0,0,0,4104,0,22217,0
19665,-162,-8278,640,-77,44,-34,9034,-3,2,0,0,37463,322,27,79,0,0,0,0,0,0,0,0,-32316,0,0,0,4102,0,22238,0
19675,-206,-8306,644,-80,41,-20,9034,1,2,-1,0,37462,324,27,79,0,0,0,0,0,0,0,0,-32316,0,0,0,4102,0,22258,0
19685,-246,-8246,630,-79,39,-7,9033,-2,4,0,0,37463,322,27,79,0,0,0,0,0,0,0,0,-32315,0,0,0,4102,0,22278,0
19695,-238,-8284,626,-76,38,-2,9035,5,-4,-1,0,37465,321,26,79,0,0,0,0,0,0,0,0,-32315,0,0,0,4100,0,22298,0
19705,-350,-8282,624,-71,33,-4,9034,-1,-1,0,0,37466,323,26,79,0,0,0,0,0,0,0,0,-32315,0,0,0,4100,0,22318,0
19715,-386,-8268,608,-73,38,-14,9036,6,0,1,0,37464,330,26,79,0,0,0,0,0,0,0,0,-32316,0,0,0,4100,0,22338,0
19725,-398,-8292,626,-69,41,-25,9034,-7,-1,0,0,37461,325,26,79,0,0,0,0,0,0,0,0,-32315,0,0,0,4100,0,22358,0
19735,-368,-8286,650,-73,47,-33,9034,0,2,-2,0,37471,325,27,79,0,0,0,0,0,0,0,0,-32316,0,0,0,4099,0,22378,0
19745,-332,-8254,616,-75,44,-40,9035,-2,3,-2,0,37474,321,26,79,0,0,0,0,0,0,0,0,-32316,0,0,0,4099,0,22398,0
19755,-284,-8284,606,-68,40,-43,9034,-1,-2,1,0,37476,328,26,79,0,0,0,0,0,0,0,0,-32315,0,0,0,4096,0,22418,0
19765,-318,-8258,570,-60,38,-41,9035,0,-2,0,0,37468,328,26,79,0,0,0,0,0,0,0,0,-32316,0,0,0,4096,0,22439,0
19775,-278,-8258,566,-65,40,-35,9035,3,-5,-1,0,37466,327,26,79,0,0,0,0,0,0,0,0,-32315,0,0,0,4096,0,22459,0
19785,-240,-8258,572,-55,40,-42,9034,0,1,0,0,37468,326,26,79,0,0,0,0,0,0,0,0,-32316,0,0,0,4094,0,22479,0
19795,-256,-8272,604,-53,43,-36,9034,-1,0,-1,0,37468,327,26,79,0,0,0,0,0,0,0,0,-32315,0,0,0,4093,0,22499,0
19805,-216,-8268,626,-44,34,-28,9033,-9,1,0,0,37467,333,26,79,0,0,0,0,0,0,0,0,-32315,0,0,0,4093,0,22519,0
19815,-244,-8268,624,-44,39,-26,9034,-1,1,0,0,37467,326,27,79,0,0,0,0,0,0,0,0,-32315,0,0,0,4093,0,22539,0
19825,-260,-8286,632,-47,43,-20,9034,-5,-3,-1,0,37468,318,26,79,0,0,0,0,0,0,0,0,-32316,0,0,0,4092,0,22559,0
19835,-272,-8246,608,-50,40,-16,9034,-2,3,0,0,37475,320,27,79,0,0,0,0,0,0,0,0,-32316,0,0,0,4092,0,22579,0
19845,-246,-8256,656,-54,36,-14,9034,-3,2,-1,0,37475,323,26,79,0,0,0,0,0,0,0,0,-32315,0,0,0,4091,0,22599,0
19855,-304,-8256,618,-40,37,-18,9034,-3,0,1,0,37476,326,27,79,0,0,0,0,0,0,0,0,-32315,0,0,0,4091,0,22619,0
19865,-318,-8270,608,-43,38,-21,9034,2,4,0,0,37475,329,26,79,0,0,0,0,0,0,0,0,-32315,0,0,0,4090,0,22639,0
19875,-334,-8258,618,-43,43,-29,9034,0,4,0,0,37472,326,26,79,0,0,0,0,0,0,0,0,-32315,0,0,0,4091,0,22659,0
19885,-342,-8280,592,-31,43,-46,9035,3,-5,0,0,37470,328,26,79,0,0,0,0,0,0,0,0,-32315,0,0,0,4089,0,22679,0
19895,-298,-8294,624,-35,49,-51,9035,7,1,-1,0,37472,329,26,79,0,0,0,0,0,0,0,0,-32316,0,0,0,4088,0,22699,0
19905,-272,-8250,606,-30,46,-56,9035,3,4,1,0,37472,329,26,79,0,0,0,0,0,0,0,0,-32315,0,0,0,4087,0,22719,0
19915,-224,-8272,662,-27,48,-50,9034,-6,1,1,0,37470,329,26,79,0,0,0,0,0,0,0,0,-32316,0,0,0,4085,0,22739,0
19925,-182,-8274,662,-29,42,-46,9034,0,-4,0,0,37468,327,27,79,0,0,0,0,0,0,0,0,-32316,0,0,0,4085,0,22759,0
19935,-158,-8276,684,-29,47,-29,9036,2,2,-1,0,37470,333,26,79,0,0,0,0,0,0,0,0,-32315,0,0,0,4085,0,22779,0
19945,-222,-8252,626,-36,42,-24,9034,-2,3,0,0,37477,341,26,79,0,0,0,0,0,0,0,0,-32316,0,0,0,4083,0,22799,0
19955,-216,-8268,650,-29,37,-17,9034,-5,0,0,0,37476,341,26,79,0,0,0,0,0,0,0,0,-32315,0,0,0,4084,0,22819,0
19965,-232,-8296,658,-31,45,-19,9034,1,-2,0,0,37473,337,26,79,0,0,0,0,0,0,0,0,-32315,0,0,0,4083,0,22839,0
19975,-210,-8244,646,-36,41,-20,9035,6,3,-1,0,37469,328,26,79,0,0,0,0,0,0,0,0,-32315,0,0,0,4083,0,22859,0
19985,-184,-8298,662,-37,44,-19,9034,-4,4,0,0,37467,321,26,79,0,0,0,0,0,0,0,0,-32315,0,0,0,4083,0,22879,0
19995,-196,-8230,646,-32,40,-10,9035,0,1,-2,0,37463,321,26,79,0,0,0,0,0,0,0,0,-32315,0,0,0,4081,0,22899,0
20005,-170,-8288,610,-27,41,-2,9035,1,-1,0,0,37461,320,26,79,0,0,0,0,0,0,0,0,-32315,0,0,0,4081,0,22919,0
20015,-180,-8268,622,-34,39,12,9035,5,-1,0,0,37462,325,26,79,0,0,0,0,0,0,0,0,-32316,0,0,0,4081,0,22939,0
20025,-164,-8262,714,-43,37,22,9035,1,4,-1,0,37464,326,26,79,0,0,0,0,0,0,0,0,-32315,0,0,0,4083,0,22959,0
20035,-134,-8288,758,-40,43,25,9034,-2,-2,-1,0,37463,325,27,79,0,0,0,0,0,0,0,0,-32315,0,0,0,4083,0,22979,0
20045,-152,-8296,694,-52,37,47,9035,2,0,0,0,37461,326,26,79,0,0,0,0,0,0,0,0,-32315,0,0,0,4083,0,22999,0
20055,-174,-8270,678,-53,38,49,9035,0,0,0,0,37460,335,27,79,0,0,0,0,0,0,0,0,-32315,0,0,0,4083,0,23019,0
20065,-210,-8304,646,-53,31,61,9034,0,-1,0,0,37461,339,27,79,0,0,0,0,0,0,0,0,-32315,0,0,0,4084,0,23039,0
20075,-240,-8278,636,-47,31,62,9034,3,0,-1,0,37462,336,26,79,0,0,0,0,0,0,0,0,-32315,0,0,0,4085,0,23059,0
20085,-320,-8264,652,-51,33,53,9035,3,6,-1,0,37459,331,26,79,0,0,0,0,0,0,0,0,-32315,0,0,0,4085,0,23079,0
20095,-368,-8248,636,-50,37,41,9034,0,1,-3,0,37458,330,27,79,0,0,0,0,0,0,0,0,-32315,0,0,0,4086,0,23099,0
20105,-384,-8292,626,-54,44,19,9034,-2,0,0,0,37461,329,26,79,0,0,0,0,0,0,0,0,-32316,0,0,0,4087,0,23119,0
20115,-382,-8246,650,-47,39,5,9034,2,-3,0,0,37462,331,26,79,0,0,0,0,0,0,0,0,-32315,0,0,0,4087,0,23139,0
20125,-250,-8262,606,-49,39,-2,9034,-1,-2,-1,0,37461,332,26,79,0,0,0,0,0,0,0,0,-32315,0,0,0,4087,0,23159,0
20135,-166,-8250,622,-51,45,3,9035,6,1,-1,0,37458,331,27,79,0,0,0,0,0,0,0,0,-32316,0,0,0,4085,0,23179,0
20145,-148,-8256,630,-48,38,22,9035,0,6,0,0,37457,322,26,79,0,0,0,0,0,0,0,0,-32315,0,0,0,4086,0,23199,0
20155,-158,-8272,654,-48,41,30,9035,-1,2,1,0,37467,320,26,79,0,0,0,0,0,0,0,0,-32315,0,0,0,4087,0,23219,0
20165,-200,-8264,648,-48,33,43,9035,1,0,0,0,37470,318,26,79,0,0,0,0,0,0,0,0,-32315,0,0,0,4088,0,23239,0
20175,-260,-8308,656,-52,26,41,9035,1,2,-1,0,37470,320,26,79,0,0,0,0,0,0,0,0,-32315,0,0,0,4088,0,23259,0
20185,-362,-8256,646,-54,34,39,9035,0,-1,-2,0,37462,320,26,79,0,0,0,0,0,0,0,0,-32315,0,0,0,4088,0,23279,0
20195,-364,-8254,664,-49,35,21,9034,3,0,0,0,37463,316,26,79,0,0,0,0,0,0,0,0,-32315,0,0,0,4088,0,23299,0
20205,-332,-8272,638,-49,42,6,9034,-7,0,0,0,37462,315,26,79,0,0,0,0,0,0,0,0,-32315,0,0,0,4089,0,23319,0
20215,-266,-8270,632,-47,45,2,9034,-3,-3,0,0,37459,324,26,79,0,0,0,0,0,0,0,0,-32316,0,0,0,4089,0,23339,0
20225,-186,-8276,632,-50,39,5,9035,2,-6,0,0,37457,336,27,79,0,0,0,0,0,0,0,0,-32315,0,0,0,4088,0,23359,0
20235,-216,-8278,622,-43,41,9,9036,4,2,-1,0,37457,344,26,79,0,0,0,0,0,0,0,0,-32315,0,0,0,4088,0,23379,0
20245,-214,-8272,670,-47,36,17,9033,-1,0,0,0,37456,339,26,79,0,0,0,0,0,0,0,0,-32315,0,0,0,4088,0,23399,0
20255,-196,-8252,710,-52,37,23,9034,-1,4,1,0,37456,336,27,79,0,0,0,0,0,0,0,0,-32315,0,0,0,4089,0,23419,0
20265,-216,-8258,692,-59,45,27,9035,1,-5,1,0,37457,335,26,79,0,0,0,0,0,0,0,0,-32315,0,0,0,4089,0,23439,0
20275,-224,-8284,648,-55,42,31,9034,-4,5,0,0,37458,333,26,79,0,0,0,0,0,0,0,0,-32316,0,0,0,4089,0,23459,0
20285,-246,-8308,632,-50,34,41,9035,6,-2,-1,0,37458,335,26,79,0,0,0,0,0,0,0,0,-32315,0,0,0,4090,0,23479,0
20295,-268,-8282,580,-54,36,35,9034,-1,-2,0,0,37454,331,26,79,0,0,0,0,0,0,0,0,-32316,0,0,0,4090,0,23499,0
20305,-252,-8248,644,-53,33,34,9034,-1,-5,1,0,37453,331,26,79,0,0,0,0,0,0,0,0,-32315,0,0,0,4090,0,23519,0
20315,-246,-8282,674,-51,40,33,9036,1,0,0,0,37453,329,27,79,0,0,0,0,0,0,0,0,-32315,0,0,0,4090,0,23539,0
20325,-198,-8258,702,-52,43,44,9032,-1,2,0,0,37451,327,27,79,0,0,0,0,0,0,0,0,-32315,0,0,0,4091,0,23559,0
20335,-218,-8274,646,-56,36,44,9034,-4,-1,0,0,37452,325,26,79,0,0,0,0,0,0,0,0,-32315,0,0,0,4092,0,23579,0
20345,-246,-8282,636,-57,36,48,9035,1,-3,-2,0,37452,329,26,79,0,0,0,0,0,0,0,0,-32315,0,0,0,4094,0,23599,0
20355,-260,-8288,642,-56,38,46,9034,2,2,1,0,37453,323,26,79,0,0,0,0,0,0,0,0,-32315,0,0,0,4093,0,23619,0
20365,-302,-8276,656,-49,46,44,9033,-1,1,0,0,37455,317,26,79,0,0,0,0,0,0,0,0,-32315,0,0,0,4092,0,23639,0
20375,-276,-8246,644,-55,42,40,9034,2,1,0,0,37455,323,26,79,0,0,0,0,0,0,0,0,-32315,0,0,0,4094,0,23659,0
20385,-276,-8290,636,-58,35,35,9034,-4,0,-1,0,37453,324,26,79,0,0,0,0,0,0,0,0,-32315,0,0,0,4094,0,23680,0
20395,-260,-8312,684,-53,40,31,9035,-7,1,0,0,37450,323,26,79,0,0,0,0,0,0,0,0,-32315,0,0,0,4093,0,23700,0
20405,-324,-8288,632,-57,38,32,9033,0,6,0,0,37452,313,26,79,0,0,0,0,0,0,0,0,-32315,0,0,0,4094,0,23720,0
20415,-364,-8278,586,-48,40,23,9035,1,-1,0,0,37454,323,26,79,0,0,0,0,0,0,0,0,-32315,0,0,0,4094,0,23740,0
20425,-380,-8258,634,-42,40,4,9034,3,4,0,0,37454,331,26,79,0,0,0,0,0,0,0,0,-32315,0,0,0,4094,0,23760,0
20435,-320,-8272,636,-38,42,-8,9035,3,-1,0,0,37454,330,26,79,0,0,0,0,0,0,0,0,-32315,0,0,0,4094,0,23780,0
20445,-248,-8286,640,-45,34,-6,9035,-1,2,0,0,37456,332,26,79,0,0,0,0,0,0,0,0,-32315,0,0,0,4094,0,23800,0
20455,-260,-8278,692,-40,38,-10,9034,0,0,1,0,37457,329,26,79,0,0,0,0,0,0,0,0,-32315,0,0,0,4094,0,23820,0
20465,-258,-8266,642,-43,40,-7,9035,2,3,0,0,37462,341,26,79,0,0,0,0,0,0,0,0,-32316,0,0,0,4092,0,23840,0
20475,-248,-8274,620,-41,48,-6,9035,2,-3,0,0,37461,345,27,79,0,0,0,0,0,0,0,0,-32315,0,0,0,4091,0,23860,0
20485,-276,-8244,626,-38,43,-14,9035,5,8,-1,0,37465,345,26,79,0,0,0,0,0,0,0,0,-32315,0,0,0,4092,0,23880,0
20495,-292,-8254,658,-36,40,-10,9036,4,3,0,0,37464,344,26,79,0,0,0,0,0,0,0,0,-32315,0,0,0,4091,0,23900,0
20505,-244,-8266,666,-40,44,-10,9035,1,1,0,0,37457,338,26,79,0,0,0,0,0,0,0,0,-32315,0,0,0,4091,0,23920,0
20515,-224,-8252,674,-40,42,-7,9034,3,0,-1,0,37455,332,26,79,0,0,0,0,0,0,0,0,-32316,0,0,0,4090,0,23940,0
20525,-254,-8276,674,-45,46,-7,9035,3,0,-1,0,37456,335,26,79,0,0,0,0,0,0,0,0,-32316,0,0,0,4089,0,23960,0
20535,-256,-8270,654,-45,44,-3,9035,0,1,0,0,37461,331,26,79,0,0,0,0,0,0,0,0,-32315,0,0,0,4089,0,23980,0
20545,-254,-8270,648,-41,39,-8,9033,-10,0,-1,0,37462,326,26,79,0,0,0,0,0,0,0,0,-32316,0,0,0,4089,0,24000,0
20555,-266,-8282,650,-46,41,-9,9035,3,3,0,0,37461,324,26,79,0,0,0,0,0,0,0,0,-32315,0,0,0,4088,0,24020,0
20565,-238,-8274,654,-50,42,-8,9034,0,-2,0,0,37461,322,27,79,0,0,0,0,0,0,0,0,-32315,0,0,0,4088,0,24040,0
20575,-228,-8264,680,-49,43,-7,9035,6,1,-1,0,37467,320,26,79,0,0,0,0,0,0,0,0,-32316,0,0,0,4087,0,24060,0
20585,-238,-8242,652,-51,41,-6,9034,0,0,-1,0,37468,323,26,79,0,0,0,0,0,0,0,0,-32315,0,0,0,4087,0,24080,0
20595,-230,-8268,664,-50,44,-9,9034,1,4,1,0,37465,328,26,79,0,0,0,0,0,0,0,0,-32315,0,0,0,4087,0,24100,0
20605,-234,-8294,678,-47,39,-6,9035,7,1,0,0,37458,336,26,79,0,0,0,0,0,0,0,0,-32315,0,0,0,4087,0,24120,0
20615,-222,-8266,640,-47,46,-3,9034,5,5,0,0,37459,332,26,79,0,0,0,0,0,0,0,0,-32316,0,0,0,4087,0,24140,0
20625,-222,-8288,654,-48,39,-1,9035,1,-2,0,0,37463,327,27,79,0,0,0,0,0,0,0,0,-32315,0,0,0,4087,0,24160,0
20635,-236,-8288,650,-49,38,-1,9034,-3,0,-2,0,37460,330,26,79,0,0,0,0,0,0,0,0,-32315,0,0,0,4086,0,24180,0
20645,-250,-8284,650,-45,38,4,9035,0,-3,0,0,37458,332,27,79,0,0,0,0,0,0,0,0,-32316,0,0,0,4086,0,24200,0
20655,-256,-8282,668,-45,43,4,9035,7,0,0,0,37460,329,26,79,0,0,0,0,0,0,0,0,-32315,0,0,0,4086,0,24220,0
20665,-228,-8256,660,-49,42,1,9035,5,0,0,0,37464,333,26,79,0,0,0,0,0,0,0,0,-32315,0,0,0,4085,0,24240,0
20675,-258,-8256,678,-48,41,1,9033,-2,2,2,0,37468,335,26,79,0,0,0,0,0,0,0,0,-32316,0,0,0,4086,0,24260,0
20685,-282,-8296,672,-53,42,4,9033,0,3,0,0,37467,338,26,79,0,0,0,0,0,0,0,0,-32315,0,0,0,4085,0,24280,0
20695,-234,-8274,664,-48,42,-2,9034,0,-2,0,0,37467,330,26,79,0,0,0,0,0,0,0,0,-32316,0,0,0,4085,0,24300,0
20705,-264,-8248,642,-50,45,0,9035,7,2,0,0,37464,338,26,79,0,0,0,0,0,0,0,0,-32315,0,0,0,4084,0,24320,0
20715,-246,-8282,644,-48,48,-5,9033,-9,-3,0,0,37466,334,27,79,0,0,0,0,0,0,0,0,-32315,0,0,0,4084,0,24341,0
20725,-224,-8272,672,-52,42,-4,9034,4,2,0,0,37464,333,27,79,0,0,0,0,0,0,0,0,-32316,0,0,0,4084,0,24361,0
20735,-262,-8264,686,-52,41,-2,9035,2,-2,-1,0,37463,322,27,79,0,0,0,0,0,0,0,0,-32315,0,0,0,4084,0,24381,0
20745,-252,-8268,666,-53,43,-3,9036,5,2,0,0,37465,330,26,79,0,0,0,0,0,0,0,0,-32315,0,0,0,4084,0,24401,0
20755,-214,-8268,664,-52,47,-1,9035,7,2,1,0,37468,332,26,79,0,0,0,0,0,0,0,0,-32315,0,0,0,4083,0,24421,0
20765,-206,-8242,636,-58,42,8,9034,-4,0,0,0,37467,343,27,79,0,0,0,0,0,0,0,0,-32316,0,0,0,4083,0,24441,0
20775,-170,-8242,648,-51,52,13,9034,0,-5,-2,0,37466,328,26,79,0,0,0,0,0,0,0,0,-32315,0,0,0,4083,0,24461,0
20785,-172,-8288,678,-54,39,25,9034,0,-2,-1,0,37469,335,26,79,0,0,0,0,0,0,0,0,-32315,0,0,0,4083,0,24481,0
20795,-140,-8262,712,-65,41,25,9035,6,-3,0,0,37472,333,27,79,0,0,0,0,0,0,0,0,-32315,0,0,0,4084,0,24501,0
20805,-196,-8274,688,-69,42,34,9035,5,-1,0,0,37473,339,26,79,0,0,0,0,0,0,0,0,-32315,0,0,0,4084,0,24521,0
20815,-174,-8294,652,-72,44,41,9033,0,2,0,0,37466,337,27,79,0,0,0,0,0,0,0,0,-32316,0,0,0,4084,0,24541,0
20825,-196,-8264,624,-72,34,52,9034,0,2,0,0,37467,338,27,79,0,0,0,0,0,0,0,0,-32315,0,0,0,4085,0,24561,0
20835,-182,-8288,644,-67,32,59,9035,1,1,-2,0,37470,325,27,79,0,0,0,0,0,0,0,0,-32315,0,0,0,4087,0,24581,0
20845,-292,-8300,648,-68,27,58,9034,4,2,-1,0,37471,318,27,79,0,0,0,0,0,0,0,0,-32315,0,0,0,4086,0,24601,0
20855,-296,-8258,654,-70,32,53,9034,8,2,1,0,37471,323,26,79,0,0,0,0,0,0,0,0,-32315,0,0,0,4088,0,24621,0
20865,-236,-8276,652,-67,41,46,9033,-1,-1,0,0,37473,322,27,79,0,0,0,0,0,0,0,0,-32315,0,0,0,4088,0,24641,0
20875,-224,-8272,642,-64,42,44,9033,1,-3,-1,0,37474,318,26,79,0,0,0,0,0,0,0,0,-32315,0,0,0,4089,0,24661,0
20885,-222,-8270,650,-63,31,44,9035,5,-3,0,0,37482,312,27,79,0,0,0,0,0,0,0,0,-32315,0,0,0,4088,0,24681,0
20895,-284,-8282,632,-68,36,48,9035,7,-2,-1,0,37491,319,27,79,0,0,0,0,0,0,0,0,-32315,0,0,0,4089,0,24701,0
20905,-322,-8270,646,-69,37,39,9033,-4,2,-1,0,37499,333,27,79,0,0,0,0,0,0,0,0,-32315,0,0,0,4089,0,24721,0
20915,-298,-8272,638,-62,39,33,9036,3,-3,0,0,37506,344,27,79,0,0,0,0,0,0,0,0,-32315,0,0,0,4089,0,24741,0
20925,-260,-8258,626,-60,43,25,9034,2,4,0,0,37493,345,27,79,0,0,0,0,0,0,0,0,-32315,0,0,0,4089,0,24761,0
20935,-222,-8288,626,-62,40,26,9035,7,4,-3,0,37480,337,27,79,0,0,0,0,0,0,0,0,-32317,0,0,0,4089,0,24781,0
20945,-256,-8272,614,-60,33,29,9034,-5,0,0,0,37465,335,26,79,0,0,0,0,0,0,0,0,-32315,0,0,0,4090,0,24801,0
20955,-292,-8278,588,-53,34,31,9035,5,-1,1,0,37463,335,26,79,0,0,0,0,0,0,0,0,-32315,0,0,0,4090,0,24821,0
20965,-306,-8250,650,-49,42,18,9035,1,4,0,0,37461,332,26,79,0,0,0,0,0,0,0,0,-32315,0,0,0,4090,0,24841,0
20975,-280,-8264,674,-51,46,14,9034,0,4,-1,0,37461,331,26,79,0,0,0,0,0,0,0,0,-32315,0,0,0,4090,0,24861,0
20985,-230,-8258,678,-58,41,14,9033,-5,-3,-1,0,37464,327,27,79,0,0,0,0,0,0,0,0,-32316,0,0,0,4090,0,24881,0
20995,-216,-8278,670,-61,41,21,9035,0,4,-1,0,37467,324,26,79,0,0,0,0,0,0,0,0,-32315,0,0,0,4090,0,24901,0
21005,-228,-8272,622,-58,40,19,9034,1,1,0,0,37466,328,26,79,0,0,0,0,0,0,0,0,-32315,0,0,0,4091,0,24921,0
21015,-228,-8250,620,-54,40,21,9035,5,5,0,0,37466,331,26,79,0,0,0,0,0,0,0,0,-32315,0,0,0,4089,0,24941,0
21025,-242,-8282,650,-53,42,21,9033,-4,-5,-1,0,37462,330,26,79,0,0,0,0,0,0,0,0,-32315,0,0,0,4091,0,24961,0
21035,-252,-8280,638,-52,42,15,9034,0,-2,-1,0,37462,325,27,79,0,0,0,0,0,0,0,0,-32316,0,0,0,4090,0,24981,0
21045,-252,-8244,664,-53,46,25,9035,2,2,-2,0,37462,319,26,79,0,0,0,0,0,0,0,0,-32315,0,0,0,4091,0,25001,0
21055,-298,-8292,674,-53,41,15,9035,1,-4,0,0,37463,322,26,79,0,0,0,0,0,0,0,0,-32315,0,0,0,4090,0,25021,0
21065,-296,-8254,636,-58,36,15,9034,0,-3,0,0,37464,325,26,79,0,0,0,0,0,0,0,0,-32315,0,0,0,4090,0,25041,0
21075,-336,-8242,636,-50,36,6,9035,-5,3,0,0,37463,328,26,79,0,0,0,0,0,0,0,0,-32315,0,0,0,4090,0,25061,0
21085,-302,-8284,650,-51,41,0,9033,-6,-7,-1,0,37462,324,26,79,0,0,0,0,0,0,0,0,-32316,0,0,0,4090,0,25081,0
21095,-248,-8304,644,-52,43,-3,9035,-5,2,-1,0,37464,334,27,79,0,0,0,0,0,0,0,0,-32315,0,0,0,4090,0,25101,0
21105,-218,-8254,650,-53,39,0,9035,1,-1,1,0,37465,332,27,79,0,0,0,0,0,0,0,0,-32316,0,0,0,4089,0,25121,0
21115,-234,-8282,620,-51,39,-2,9034,5,-2,0,0,37466,333,27,79,0,0,0,0,0,0,0,0,-32315,0,0,0,4089,0,25141,0
21125,-220,-8276,636,-52,37,5,9035,1,5,-1,0,37466,329,27,79,0,0,0,0,0,0,0,0,-32316,0,0,0,4089,0,25161,0
21135,-236,-8242,654,-49,41,2,9036,7,1,0,0,37462,323,27,79,0,0,0,0,0,0,0,0,-32315,0,0,0,4089,0,25181,0
21145,-228,-8286,646,-52,39,7,9034,0,1,-1,0,37458,321,26,79,0,0,0,0,0,0,0,0,-32315,0,0,0,4088,0,25201,0
21155,-246,-8282,646,-52,42,9,9033,-11,-1,0,0,37456,324,26,79,0,0,0,0,0,0,0,0,-32315,0,0,0,4089,0,25221,0
21165,-246,-8234,646,-51,47,6,9035,3,3,0,0,37457,331,26,79,0,0,0,0,0,0,0,0,-32315,0,0,0,4089,0,25241,0
21175,-268,-8264,634,-51,39,6,9035,0,0,-1,0,37458,327,26,79,0,0,0,0,0,0,0,0,-32315,0,0,0,4089,0,25261,0
21185,-288,-8266,636,-55,45,-7,9034,-5,0,-2,0,37458,328,27,79,0,0,0,0,0,0,0,0,-32315,0,0,0,4089,0,25282,0
21195,-310,-8268,656,-48,49,-7,9035,-5,2,0,0,37456,326,26,79,0,0,0,0,0,0,0,0,-32316,0,0,0,4088,0,25302,0
21205,-278,-8274,622,-55,45,-14,9034,-3,-3,2,0,37465,326,26,79,0,0,0,0,0,0,0,0,-32315,0,0,0,4087,0,25322,0
21215,-254,-8258,646,-55,46,-18,9034,-1,-1,1,0,37466,324,26,79,0,0,0,0,0,0,0,0,-32315,0,0,0,4088,0,25347,0
21225,-238,-8270,636,-56,46,-19,9034,-1,4,0,0,37464,322,26,79,0,0,0,0,0,0,0,0,-32316,0,0,0,4085,0,25367,0
21235,-216,-8258,622,-54,48,-12,9034,0,-2,-1,0,37454,336,27,79,0,0,0,0,0,0,0,0,-32315,0,0,0,4085,0,25387,0
21245,-226,-8264,654,-53,39,-5,9035,4,-2,0,0,37453,334,26,79,0,0,0,0,0,0,0,0,-32316,0,0,0,4085,0,25407,0
21255,-202,-8244,660,-52,42,0,9032,-7,2,0,0,37455,335,26,79,0,0,0,0,0,0,0,0,-32315,0,0,0,4084,0,25427,0
21265,-204,-8292,638,-55,48,2,9034,1,1,0,0,37457,326,27,79,0,0,0,0,0,0,0,0,-32315,0,0,0,4085,0,25447,0
21275,-174,-8272,644,-60,43,10,9034,-2,1,0,0,37456,328,26,79,0,0,0,0,0,0,0,0,-32315,0,0,0,4083,0,25467,0
21285,-158,-8260,652,-56,39,18,9035,1,5,-1,0,37455,336,27,79,0,0,0,0,0,0,0,0,-32315,0,0,0,4083,0,25487,0
21295,-186,-8278,644,-56,39,24,9034,-3,-3,-1,0,37454,334,27,79,0,0,0,0,0,0,0,0,-32315,0,0,0,4083,0,25507,0
21305,-244,-8272,624,-58,37,29,9034,-1,-3,0,0,37461,327,27,79,0,0,0,0,0,0,0,0,-32316,0,0,0,4083,0,25528,0
21315,-248,-8272,634,-56,42,25,9036,5,2,0,0,37461,319,26,79,0,0,0,0,0,0,0,0,-32315,0,0,0,4084,0,25548,0
21325,-292,-8266,620,-61,40,20,9034,1,0,-1,0,37460,322,26,79,0,0,0,0,0,0,0,0,-32316,0,0,0,4084,0,25568,0
21335,-322,-8262,614,-57,44,11,9034,-5,2,-3,0,37453,318,26,79,0,0,0,0,0,0,0,0,-32315,0,0,0,4083,0,25588,0
21345,-274,-8284,602,-52,47,4,9034,-3,-2,-1,0,37456,325,26,79,0,0,0,0,0,0,0,0,-32315,0,0,0,4084,0,25608,0
21355,-246,-8278,622,-56,40,3,9034,2,4,1,0,37455,318,27,79,0,0,0,0,0,0,0,0,-32315,0,0,0,4083,0,25628,0
21365,-224,-8274,626,-50,41,-3,9035,4,4,0,0,37453,329,26,79,0,0,0,0,0,0,0,0,-32315,0,0,0,4083,0,25648,0
21375,-228,-8262,618,-53,40,2,9035,2,4,-2,0,37453,329,27,79,0,0,0,0,0,0,0,0,-32315,0,0,0,4083,0,25668,0
21385,-238,-8268,664,-52,40,-3,9035,0,-2,-2,0,37454,331,26,79,0,0,0,0,0,0,0,0,-32316,0,0,0,4083,0,25688,0
21395,-226,-8262,656,-58,40,4,9035,3,-1,-1,0,37455,328,26,79,0,0,0,0,0,0,0,0,-32315,0,0,0,4083,0,25708,0
21405,-188,-8276,672,-59,49,9,9035,5,-3,0,0,37458,331,27,79,0,0,0,0,0,0,0,0,-32315,0,0,0,4083,0,25728,0
21415,-188,-8262,672,-52,41,13,9034,-1,2,0,0,37459,337,26,79,0,0,0,0,0,0,0,0,-32315,0,0,0,4082,0,25748,0
21425,-196,-8288,686,-64,40,19,9034,-1,-1,-2,0,37457,336,26,79,0,0,0,0,0,0,0,0,-32316,0,0,0,4082,0,25768,0
21435,-202,-8268,694,-71,39,21,9033,-7,1,0,0,37458,331,27,79,0,0,0,0,0,0,0,0,-32315,0,0,0,4082,0,25788,0
21445,-218,-8276,664,-69,40,27,9035,-4,3,-1,0,37455,321,26,79,0,0,0,0,0,0,0,0,-32315,0,0,0,4083,0,25808,0
21455,-234,-8292,646,-70,44,28,9034,0,0,1,0,37455,324,27,79,0,0,0,0,0,0,0,0,-32315,0,0,0,4082,0,25828,0
21465,-236,-8268,652,-72,42,32,9035,4,-1,0,0,37455,330,26,79,0,0,0,0,0,0,0,0,-32315,0,0,0,4082,0,25848,0
21475,-242,-8260,628,-73,43,33,9035,3,0,-1,0,37453,334,26,79,0,0,0,0,0,0,0,0,-32315,0,0,0,4083,0,25868,0
21485,-252,-8292,642,-74,42,25,9035,1,1,0,0,37454,335,27,79,0,0,0,0,0,0,0,0,-32315,0,0,0,4083,0,25888,0
21495,-266,-8286,596,-77,49,28,9034,-4,-3,1,0,37458,336,27,79,0,0,0,0,0,0,0,0,-32315,0,0,0,4084,0,25908,0
21505,-250,-8242,592,-74,44,26,9033,-1,0,0,0,37459,335,27,79,0,0,0,0,0,0,0,0,-32315,0,0,0,4083,0,25928,0
21515,-278,-8280,604,-70,45,26,9034,1,-1,0,0,37463,328,27,79,0,0,0,0,0,0,0,0,-32315,0,0,0,4084,0,25948,0
21525,-256,-8280,622,-68,41,26,9034,-5,-3,1,0,37464,319,26,79,0,0,0,0,0,0,0,0,-32316,0,0,0,4084,0,25968,0
21535,-232,-8250,628,-66,47,22,9034,-1,4,0,0,37467,316,26,79,0,0,0,0,0,0,0,0,-32315,0,0,0,4084,0,25988,0
21545,-234,-8266,622,-63,42,23,9034,-2,-4,0,0,37468,316,27,79,0,0,0,0,0,0,0,0,-32315,0,0,0,4084,0,26008,0
21555,-236,-8290,618,-68,42,24,9035,5,-2,0,0,37464,328,27,79,0,0,0,0,0,0,0,0,-32315,0,0,0,4084,0,26028,0
21565,-248,-8272,628,-67,45,23,9033,-5,-1,0,0,37464,331,27,79,0,0,0,0,0,0,0,0,-32316,0,0,0,4084,0,26048,0
21575,-264,-8290,602,-65,43,25,9035,4,3,-2,0,37466,328,26,79,0,0,0,0,0,0,0,0,-32315,0,0,0,4084,0,26068,0
21585,-284,-8246,588,-60,40,15,9033,-5,1,0,0,37467,331,26,79,0,0,0,0,0,0,0,0,-32315,0,0,0,4084,0,26088,0
21595,-280,-8284,598,-61,40,12,9035,0,0,0,0,37466,332,26,79,0,0,0,0,0,0,0,0,-32315,0,0,0,4086,0,26108,0
21605,-270,-8268,592,-57,40,6,9035,6,2,0,0,37462,335,26,79,0,0,0,0,0,0,0,0,-32316,0,0,0,4085,0,26128,0
21615,-274,-8286,594,-61,40,6,9034,0,-2,0,0,37461,328,26,79,0,0,0,0,0,0,0,0,-32316,0,0,0,4085,0,26148,0
21625,-234,-8252,600,-51,43,5,9035,8,2,0,0,37470,324,27,79,0,0,0,0,0,0,0,0,-32315,0,0,0,4084,0,26168,0
21635,-236,-8298,584,-49,46,7,9034,0,-3,0,0,37468,318,26,79,0,0,0,0,0,0,0,0,-32315,0,0,0,4085,0,26188,0
21645,-246,-8258,616,-48,47,5,9034,-7,-2,1,0,37470,317,26,79,0,0,0,0,0,0,0,0,-32315,0,0,0,4084,0,26208,0
21655,-208,-8244,616,-50,45,7,9035,0,2,0,0,37462,320,27,79,0,0,0,0,0,0,0,0,-32315,0,0,0,4084,0,26228,0
21665,-160,-8280,616,-51,40,11,9033,-5,0,0,0,37464,318,26,79,0,0,0,0,0,0,0,0,-32315,0,0,0,4085,0,26248,0
21675,-148,-8278,598,-48,45,24,9034,1,-5,-1,0,37463,324,27,79,0,0,0,0,0,0,0,0,-32315,0,0,0,4084,0,26268,0
21685,-204,-8242,610,-48,44,34,9035,4,-2,-1,0,37463,325,26,79,0,0,0,0,0,0,0,0,-32316,0,0,0,4085,0,26288,0
21695,-194,-8310,554,-50,37,66,8991,-205,-73,-746,-768,37462,331,27,79,0,0,0,0,0,0,0,0,-32315,0,0,0,4084,0,26308,0
21705,-276,-8210,572,-53,25,48,8790,-556,-407,-930,-1696,37462,335,27,79,0,0,0,0,0,0,0,0,-32315,0,0,0,4085,0,26328,0
21715,-364,-8292,630,-53,45,31,8416,-937,-646,-1054,-2560,37456,342,27,79,0,0,0,0,0,0,0,0,-32315,0,0,0,4085,0,26348,0
21725,-382,-8264,644,-52,73,15,7886,-1251,-630,-1033,-3312,37448,357,27,79,0,0,0,0,0,0,0,0,-32315,0,0,0,4084,0,26368,0
21735,-286,-8250,690,-48,74,7,7232,-1509,-540,-985,-3992,37434,382,27,79,0,0,0,0,0,0,0,0,-32316,0,0,0,4083,0,26388,0
21745,-164,-8280,608,-38,69,15,6485,-1689,-417,-970,-4648,37424,400,27,79,0,0,0,0,0,0,0,0,-32316,0,0,0,4085,0,26408,0
21755,-196,-8260,610,-19,67,21,5667,-1856,-308,-982,-5176,37416,422,27,79,0,0,0,0,0,0,0,0,-32316,0,0,0,4085,0,26428,0
21765,-308,-8314,666,-12,51,32,4763,-2051,-309,-1016,-5488,37404,435,27,79,0,0,0,0,0,0,0,0,-32315,0,0,0,4084,0,26448,0
21775,-338,-8240,662,-2,38,28,3776,-2222,-328,-1039,-5720,37393,448,27,79,0,0,0,0,0,0,0,0,-32314,0,0,0,4085,0,26468,0
21785,-148,-8270,558,4,5,38,2700,-2431,-326,-1014,-6096,37385,455,26,79,0,0,0,0,0,0,0,0,-32315,0,0,0,4086,0,26488,0
21795,-174,-8266,582,20,-2,50,1496,-2741,-410,-1072,-6512,37380,468,27,79,0,0,0,0,0,0,0,0,-32316,0,0,0,4086,0,26508,0
21805,-286,-8254,634,-26,-34,64,158,-3014,-509,-1109,-6560,37368,482,27,79,0,0,0,0,0,0,0,0,-32316,0,0,0,4087,0,26528,0
21815,-422,-8248,726,-46,27,58,-1194,-2919,-301,-870,-6888,37359,495,27,79,0,0,0,0,0,0,0,0,-32315,0,0,0,4087,0,26548,0
21825,-136,-8278,594,-61,8,53,-2458,-2741,162,-829,-7368,37356,488,26,79,0,0,0,0,0,0,0,0,-32316,0,0,0,4088,0,26568,0
21835,-230,-8278,700,-94,12,49,-3725,-2815,172,-1031,-7520,37362,482,26,79,0,0,0,0,0,0,0,0,-32317,0,0,0,4088,0,26588,0
21845,-328,-8284,542,-113,28,47,-5046,-2954,-119,-1046,-7456,37360,481,27,79,0,0,0,0,0,0,0,0,-32314,0,0,0,4088,0,26608,0
21855,-158,-8260,582,-109,51,53,-6483,-3275,-322,-1041,-8024,37356,500,26,79,0,0,0,0,0,0,0,0,-32314,0,0,0,4089,0,26628,0
21865,-322,-8256,540,-94,84,49,-8106,-3679,-593,-1134,-8352,37340,535,26,79,0,0,0,0,0,0,0,0,-32314,0,0,0,4090,0,26648,0
21875,-424,-8284,604,-58,119,27,-9757,-3560,-426,-834,-8848,37331,550,27,79,0,0,0,0,0,0,0,0,-32315,0,0,0,4090,0,26668,0
21885,-15766,-5560,2834,45,2203,-3246,-11185,-2840,362,-1134,-6992,37322,568,26,79,0,0,0,0,0,0,0,0,-32314,0,0,0,4020,-12,26688,0
21895,-25080,-5838,2034,-977,3316,-2581,-11905,-958,1791,-1229,-1344,37328,538,26,79,0,0,0,0,0,0,0,0,-32315,0,0,0,3927,-6,26708,0
21905,9894,-6712,-2784,-499,1018,-798,-11735,780,3144,-655,520,37360,458,27,79,0,0,0,0,0,0,0,0,-32315,0,0,0,3929,2,26728,0
21915,20366,-10998,-3932,-339,-629,714,-11304,892,2247,-808,240,37394,376,27,79,0,0,0,0,0,0,0,0,-32315,0,0,0,3963,3,26748,0
21925,4984,-6956,-2972,268,-1777,1324,-11116,264,-9,-1294,-208,37431,300,27,79,0,0,0,0,0,0,0,0,-32315,0,0,0,3986,1,26768,0
21935,-4834,-10524,332,927,-2271,800,-11112,-26,-884,-1004,-288,37453,280,27,79,0,0,0,0,0,0,0,0,-32316,0,0,0,4011,2,26788,0
21945,-10474,-6724,3636,286,-233,255,-11077,123,-267,-1025,-120,37456,292,27,79,0,0,0,0,0,0,0,0,-32315,0,0,0,4020,1,26809,0
21955,-2426,-7600,3676,273,1288,0,-10991,202,194,-988,-136,37454,290,27,79,0,0,0,0,0,0,0,0,-32314,0,0,0,4020,0,26828,0
21965,878,-9288,4024,-286,1422,-281,-10961,-9,-35,-961,-384,37448,283,27,79,0,0,0,0,0,0,0,0,-32315,0,0,0,4006,-1,26848,0
21975,1950,-8744,932,-209,162,-219,-11020,-150,-302,-974,-552,37445,283,26,79,0,0,0,0,0,0,0,0,-32315,0,0,0,3999,0,26868,0
21985,378,-9086,348,-236,4,6,-11067,-66,-118,-1037,-360,37447,293,26,79,0,0,0,0,0,0,0,0,-32315,0,0,0,3994,0,26888,0
21995,-478,-8092,-282,-196,19,65,-11064,29,144,-1011,-264,37448,303,27,79,0,0,0,0,0,0,0,0,-32315,0,0,0,3994,0,26908,0
22005,-460,-8120,58,-116,32,18,-11061,-9,82,-994,-304,37446,295,26,79,0,0,0,0,0,0,0,0,-32315,0,0,0,3994,0,26928,0
22015,-646,-8322,516,-98,48,-14,-11064,3,-21,-1001,-280,37446,292,27,79,0,0,0,0,0,0,0,0,-32315,0,0,0,3994,0,26948,0
22025,-226,-8170,440,-85,60,-67,-11064,-6,2,-999,-288,37447,291,26,79,0,0,0,0,0,0,0,0,-32315,0,0,0,3994,0,26968,0
22035,-4,-8256,20,-62,43,-60,-11068,-13,-2,-999,-296,37450,288,26,79,0,0,0,0,0,0,0,0,-32315,0,0,0,3993,0,26988,0
22045,186,-8312,-192,27,2,-16,-11070,-3,-5,-1000,-296,37451,290,27,79,0,0,0,0,0,0,0,0,-32315,0,0,0,3993,0,27008,0
22055,-46,-8266,276,54,-20,-17,-11070,-3,7,-1001,-304,37449,292,26,79,0,0,0,0,0,0,0,0,-32315,0,0,0,3994,0,27028,0
22065,-448,-8378,1014,46,-30,-40,-11071,5,0,-998,-304,37450,292,26,79,0,0,0,0,0,0,0,0,-32315,0,0,0,3994,0,27048,0
22075,-442,-8356,1296,6,2,-63,-11076,-7,-8,-1004,-304,37450,291,27,79,0,0,0,0,0,0,0,0,-32315,0,0,0,3993,0,27068,0
22085,-114,-8180,1254,-65,46,-108,-11085,-26,-8,-999,-304,37452,291,26,79,0,0,0,0,0,0,0,0,-32316,0,0,0,3991,0,27088,0
22095,74,-8304,902,-101,52,-107,-11098,-36,-20,-1000,-320,37449,295,27,79,0,0,0,0,0,0,0,0,-32315,0,0,0,3991,0,27108,0
22105,110,-8260,508,-109,56,-130,-11131,-102,-49,-975,-440,37449,295,27,79,0,0,0,0,0,0,0,0,-32315,0,0,0,3988,0,27128,0
22115,-322,-8354,508,-105,107,-128,-11168,-67,-48,-1010,-376,37447,301,27,79,0,0,0,0,0,0,0,0,-32316,0,0,0,3986,0,27148,0
22125,128,-8286,434,-82,94,-71,-11188,-30,40,-1005,-336,37447,313,27,79,0,0,0,0,0,0,0,0,-32315,0,0,0,3983,0,27168,0
22135,466,-8246,346,-62,28,7,-11186,19,71,-1004,-296,37449,330,27,79,0,0,0,0,0,0,0,0,-32316,0,0,0,3982,0,27188,0
22145,-2,-8244,552,-50,-13,30,-11187,-3,35,-1000,-296,37450,328,26,79,0,0,0,0,0,0,0,0,-32316,0,0,0,3983,0,27208,0
22155,-388,-8316,702,-47,19,15,-11187,6,-2,-997,-296,37459,329,26,79,0,0,0,0,0,0,0,0,-32316,0,0,0,3983,0,27228,0
22165,-362,-8272,680,-61,42,-20,-11188,7,4,-999,-288,37461,324,26,79,0,0,0,0,0,0,0,0,-32316,0,0,0,3983,0,27248,0
22175,-86,-8286,656,-66,41,-34,-11190,-7,0,-997,-304,37472,334,27,79,0,0,0,0,0,0,0,0,-32316,0,0,0,3982,0,27268,0
22185,-50,-8344,616,-72,16,-39,-11191,-7,4,-996,-296,37465,339,27,79,0,0,0,0,0,0,0,0,-32316,0,0,0,3983,0,27288,0
22195,-190,-8236,592,-69,7,-30,-11198,-7,-11,-1000,-280,37464,336,26,79,0,0,0,0,0,0,0,0,-32315,0,0,0,3981,0,27308,0
22205,-64,-8194,684,-78,27,-37,-11198,0,2,-999,-296,37455,325,26,79,0,0,0,0,0,0,0,0,-32315,0,0,0,3982,0,27328,0
22215,82,-8298,692,-78,32,-39,-11201,-8,2,-998,-288,37449,318,26,79,0,0,0,0,0,0,0,0,-32316,0,0,0,3982,0,27348,0
22225,-34,-8268,602,-90,28,-11,-11206,-10,-8,-997,-288,37450,310,26,79,0,0,0,0,0,0,0,0,-32316,0,0,0,3981,0,27368,0
22235,46,-8272,610,-91,27,-5,-11208,-3,4,-1003,-272,37452,310,26,79,0,0,0,0,0,0,0,0,-32316,0,0,0,3981,0,27388,0
22245,36,-8304,616,-82,32,0,-11207,6,10,-1000,-288,37453,319,27,79,0,0,0,0,0,0,0,0,-32316,0,0,0,3980,0,27408,0
22255,-6,-8232,626,-82,29,3,-11211,-11,-5,-1002,-312,37456,330,26,79,0,0,0,0,0,0,0,0,-32316,0,0,0,3981,0,27428,0
22265,-56,-8296,642,-81,43,15,-11213,-3,3,-1002,-304,37465,318,26,79,0,0,0,0,0,0,0,0,-32315,0,0,0,3981,0,27448,0
22275,-40,-8316,646,-94,39,9,-11212,5,4,-998,-280,37465,313,26,79,0,0,0,0,0,0,0,0,-32316,0,0,0,3981,0,27468,0
22285,-64,-8266,630,-94,34,17,-11213,3,1,-1000,-288,37467,313,26,79,0,0,0,0,0,0,0,0,-32316,0,0,0,3980,0,27488,0
22295,-82,-8264,592,-99,33,26,-11214,-4,-1,-1000,-280,37454,329,27,79,0,0,0,0,0,0,0,0,-32315,0,0,0,3980,0,27508,0
22305,-76,-8286,622,-104,38,17,-11214,-2,3,-1003,-296,37450,336,26,79,0,0,0,0,0,0,0,0,-32316,0,0,0,3981,0,27529,0
22315,-64,-8262,576,-97,36,5,-11213,0,1,-1003,-296,37450,342,27,79,0,0,0,0,0,0,0,0,-32316,0,0,0,3981,0,27549,0
22325,-130,-8226,516,-93,33,13,-11215,-5,-4,-1000,-288,37450,334,27,79,0,0,0,0,0,0,0,0,-32315,0,0,0,3979,0,27569,0
22335,-120,-8260,552,-97,35,8,-11217,-5,0,-1000,-264,37447,336,27,79,0,0,0,0,0,0,0,0,-32316,0,0,0,3980,0,27589,0
22345,-12,-8312,606,-93,37,1,-11219,-4,-3,-996,-288,37444,332,26,79,0,0,0,0,0,0,0,0,-32315,0,0,0,3980,0,27609,0
22355,-72,-8284,564,-89,34,6,-11223,-13,-8,-999,-312,37440,334,27,79,0,0,0,0,0,0,0,0,-32315,0,0,0,3980,0,27629,0
22365,4,-8262,572,-97,43,-4,-11234,-32,-13,-992,-352,37450,333,26,79,0,0,0,0,0,0,0,0,-32316,0,0,0,3978,0,27649,0
22375,-46,-8294,600,-95,55,-33,-11255,-64,-27,-989,-392,37451,333,26,79,0,0,0,0,0,0,0,0,-32315,0,0,0,3976,0,27669,0
22385,-360,-8284,626,-85,90,-11,-11271,-17,-19,-1010,-320,37451,326,27,79,0,0,0,0,0,0,0,0,-32316,0,0,0,3975,0,27689,0
22395,220,-8248,544,-98,63,24,-11269,4,50,-999,-304,37446,315,26,79,0,0,0,0,0,0,0,0,-32316,0,0,0,3975,0,27709,0
22405,162,-8322,534,-91,20,45,-11269,0,27,-998,-296,37448,303,26,79,0,0,0,0,0,0,0,0,-32316,0,0,0,3975,0,27729,0
22415,-26,-8274,574,-87,34,57,-11267,10,-4,-998,-304,37449,299,27,79,0,0,0,0,0,0,0,0,-32315,0,0,0,3975,0,27749,0
22425,-198,-8288,602,-93,52,40,-11268,-1,4,-1002,-288,37447,304,26,79,0,0,0,0,0,0,0,0,-32315,0,0,0,3975,0,27769,0
22435,-60,-8272,616,-97,60,38,-11269,-9,-3,-996,-296,37447,308,27,79,0,0,0,0,0,0,0,0,-32315,0,0,0,3976,0,27789,0
22445,30,-8250,550,-98,49,50,-11269,-5,-2,-995,-296,37449,305,26,79,0,0,0,0,0,0,0,0,-32315,0,0,0,3975,0,27809,0
22455,-116,-8258,530,-92,41,57,-11268,3,7,-1002,-304,37453,302,26,79,0,0,0,0,0,0,0,0,-32315,0,0,0,3976,0,27829,0
22465,-182,-8304,578,-93,43,44,-11267,2,3,-999,-296,37455,302,27,79,0,0,0,0,0,0,0,0,-32315,0,0,0,3976,0,27849,0
22475,-222,-8290,584,-84,49,37,-11266,5,1,-997,-304,37454,303,26,79,0,0,0,0,0,0,0,0,-32315,0,0,0,3975,0,27869,0
22485,-94,-8260,536,-92,50,33,-11267,-7,1,-998,-296,37454,302,27,79,0,0,0,0,0,0,0,0,-32316,0,0,0,3975,0,27889,0
22495,22,-8326,534,-89,48,29,-11266,-5,-3,-996,-304,37457,298,26,79,0,0,0,0,0,0,0,0,-32316,0,0,0,3976,0,27909,0
22505,-48,-8298,532,-85,49,35,-11265,10,-1,-997,-296,37454,310,26,79,0,0,0,0,0,0,0,0,-32316,0,0,0,3976,0,27930,0
22515,-54,-8252,534,-83,47,39,-11265,-1,-2,-1000,-304,37453,313,27,79,0,0,0,0,0,0,0,0,-32315,0,0,0,3975,0,27949,0
22525,-44,-8272,528,-72,47,31,-11264,-1,-5,-998,-296,37451,311,27,79,0,0,0,0,0,0,0,0,-32316,0,0,0,3975,0,27969,0
22535,-128,-8286,564,-80,50,34,-11264,1,-3,-996,-296,37455,307,27,79,0,0,0,0,0,0,0,0,-32315,0,0,0,3975,0,27989,0
22545,-126,-8260,580,-80,54,34,-11264,3,0,-997,-304,37459,310,27,79,0,0,0,0,0,0,0,0,-32315,0,0,0,3975,0,28009,0
22555,-120,-8308,608,-84,48,38,-11262,1,4,-999,-304,37457,304,27,79,0,0,0,0,0,0,0,0,-32315,0,0,0,3976,0,28029,0
22565,-102,-8266,572,-82,50,28,-11263,3,6,-1000,-304,37451,301,27,79,0,0,0,0,0,0,0,0,-32316,0,0,0,3976,0,28049,0
22575,-138,-8288,544,-78,45,36,-11262,0,-3,-995,-296,37459,292,27,79,0,0,0,0,0,0,0,0,-32315,0,0,0,3976,0,28069,0
22585,-124,-8310,534,-84,46,30,-11261,-8,-1,-1000,-304,37464,294,27,79,0,0,0,0,0,0,0,0,-32315,0,0,0,3977,0,28089,0
22595,-64,-8300,528,-79,57,29,-11261,5,6,-998,-296,37466,289,26,79,0,0,0,0,0,0,0,0,-32315,0,0,0,3976,0,28109,0
22605,-110,-8260,530,-74,41,29,-11261,-3,-2,-997,-296,37455,301,27,79,0,0,0,0,0,0,0,0,-32315,0,0,0,3976,0,28129,0
22615,-58,-8292,496,-72,45,27,-11259,0,-3,-997,-304,37454,303,27,79,0,0,0,0,0,0,0,0,-32315,0,0,0,3976,0,28149,0
22625,-90,-8294,536,-70,46,23,-11260,-3,7,-995,-288,37455,300,26,79,0,0,0,0,0,0,0,0,-32315,0,0,0,3976,0,28169,0
22635,-190,-8254,550,-69,43,19,-11260,0,-3,-998,-304,37457,305,26,79,0,0,0,0,0,0,0,0,-32315,0,0,0,3976,0,28189,0
22645,-158,-8260,524,-64,41,18,-11260,0,-4,-998,-296,37455,305,26,79,0,0,0,0,0,0,0,0,-32316,0,0,0,3976,0,28209,0
22655,-140,-8292,550,-62,40,9,-11260,0,3,-1000,-296,37455,310,27,79,0,0,0,0,0,0,0,0,-32315,0,0,0,3976,0,28229,0
22665,-56,-8260,552,-71,42,12,-11261,0,3,-998,-304,37459,308,26,79,0,0,0,0,0,0,0,0,-32315,0,0,0,3976,0,28249,0
22675,-76,-8260,542,-69,44,8,-11259,0,1,-997,-296,37467,306,26,79,0,0,0,0,0,0,0,0,-32316,0,0,0,3976,0,28269,0
22685,-30,-8306,532,-72,39,19,-11260,-3,-2,-1000,-304,37465,310,27,79,0,0,0,0,0,0,0,0,-32316,0,0,0,3977,0,28289,0
22695,-38,-8280,570,-66,41,20,-11260,0,5,-997,-296,37463,310,26,79,0,0,0,0,0,0,0,0,-32315,0,0,0,3976,0,28309,0
22705,-84,-8272,514,-65,34,20,-11258,9,4,-997,-296,37462,311,26,79,0,0,0,0,0,0,0,0,-32316,0,0,0,3976,0,28329,0
22715,-110,-8300,528,-64,37,18,-11260,3,1,-998,-304,37460,308,26,79,0,0,0,0,0,0,0,0,-32315,0,0,0,3976,0,28349,0
22725,-128,-8240,518,-63,37,15,-11259,0,3,-996,-296,37461,308,27,79,0,0,0,0,0,0,0,0,-32316,0,0,0,3976,0,28369,0
22735,-156,-8256,538,-59,47,10,-11259,2,2,-997,-304,37460,305,26,79,0,0,0,0,0,0,0,0,-32315,0,0,0,3975,0,28389,0
22745,-110,-8312,552,-59,44,16,-11259,-7,5,-998,-304,37462,305,26,79,0,0,0,0,0,0,0,0,-32316,0,0,0,3976,0,28409,0
22755,-48,-8266,522,-59,38,15,-11260,-8,4,-998,-296,37464,307,26,79,0,0,0,0,0,0,0,0,-32316,0,0,0,3976,0,28430,0
22765,-116,-8272,510,-56,32,16,-11259,-2,6,-1003,-304,37463,312,27,79,0,0,0,0,0,0,0,0,-32316,0,0,0,3976,0,28449,0
22775,-102,-8286,512,-58,43,15,-11259,0,5,-1001,-296,37463,312,26,79,0,0,0,0,0,0,0,0,-32316,0,0,0,3976,0,28469,0
22785,-76,-8280,544,-60,38,13,-11258,0,4,-1000,-304,37465,311,27,79,0,0,0,0,0,0,0,0,-32315,0,0,0,3976,0,28489,0
22795,-48,-8258,534,-60,41,20,-11259,-6,1,-996,-296,37468,315,27,79,0,0,0,0,0,0,0,0,-32316,0,0,0,3976,0,28509,0
22805,-56,-8290,564,-55,39,20,-11258,-3,1,-999,-296,37469,323,27,79,0,0,0,0,0,0,0,0,-32315,0,0,0,3976,0,28529,0
22815,-66,-8288,546,-59,40,18,-11257,3,-4,-998,-296,37464,322,27,79,0,0,0,0,0,0,0,0,-32316,0,0,0,3975,0,28549,0
22825,-126,-8308,488,-55,50,14,-11256,6,6,-998,-304,37460,318,26,79,0,0,0,0,0,0,0,0,-32315,0,0,0,3977,0,28569,0
22835,-118,-8278,500,-48,33,17,-11255,1,-1,-994,-288,37461,315,26,79,0,0,0,0,0,0,0,0,-32316,0,0,0,3978,0,28589,0
22845,-130,-8302,474,-45,42,13,-11256,0,0,-998,-304,37464,315,26,79,0,0,0,0,0,0,0,0,-32315,0,0,0,3977,0,28609,0
22855,-124,-8278,498,-40,43,14,-11255,7,1,-999,-296,37464,309,27,79,0,0,0,0,0,0,0,0,-32315,0,0,0,3976,0,28629,0
22865,-76,-8302,536,-42,40,16,-11256,3,3,-998,-288,37463,303,26,79,0,0,0,0,0,0,0,0,-32315,0,0,0,3977,0,28649,0
22875,-78,-8316,546,-42,43,18,-11255,0,2,-999,-304,37464,307,26,79,0,0,0,0,0,0,0,0,-32316,0,0,0,3977,0,28669,0
22885,-96,-8270,544,-51,38,18,-11255,8,1,-999,-288,37470,312,27,79,0,0,0,0,0,0,0,0,-32316,0,0,0,3977,0,28689,0
22895,-56,-8284,542,-44,43,19,-11254,4,-1,-998,-304,37470,314,26,79,0,0,0,0,0,0,0,0,-32315,0,0,0,3978,0,28709,0
22905,-44,-8292,496,-40,46,15,-11255,-1,2,-1003,-296,37467,312,27,79,0,0,0,0,0,0,0,0,-32316,0,0,0,3977,0,28729,0
22915,-52,-8276,532,-43,49,24,-11255,0,-6,-1001,-288,37463,313,26,79,0,0,0,0,0,0,0,0,-32315,0,0,0,3976,0,28749,0
22925,-72,-8284,550,-39,38,18,-11252,0,7,-1000,-280,37460,302,26,79,0,0,0,0,0,0,0,0,-32315,0,0,0,3976,0,28769,0
22935,-138,-8286,550,-40,46,21,-11253,1,-6,-1002,-296,37463,302,27,79,0,0,0,0,0,0,0,0,-32317,0,0,0,3979,0,28789,0
22945,-114,-8280,544,-45,46,11,-11253,-1,1,-1001,-304,37463,309,27,79,0,0,0,0,0,0,0,0,-32316,0,0,0,3979,0,28809,0
22955,-96,-8268,550,-43,43,16,-11251,3,-3,-994,-288,37464,318,27,79,0,0,0,0,0,0,0,0,-32315,0,0,0,3977,0,28829,0
22965,-136,-8298,500,-41,36,7,-11252,-4,1,-997,-296,37466,304,27,79,0,0,0,0,0,0,0,0,-32315,0,0,0,3977,0,28849,0
22975,-88,-8262,510,-39,38,7,-11251,-2,1,-1000,-304,37466,309,27,79,0,0,0,0,0,0,0,0,-32316,0,0,0,3977,0,28869,0
22985,-28,-8276,550,-33,43,16,-11252,-1,-4,-995,-296,37466,305,26,79,0,0,0,0,0,0,0,0,-32315,0,0,0,3979,0,28889,0
22995,-118,-8306,556,-37,39,17,-11250,8,5,-996,-312,37471,316,26,79,0,0,0,0,0,0,0,0,-32316,0,0,0,3977,0,28909,0
23005,-100,-8266,572,-35,39,8,-11251,2,2,-999,-304,37470,317,27,79,0,0,0,0,0,0,0,0,-32316,0,0,0,3977,0,28929,0
23015,-58,-8314,544,-40,34,6,-11251,1,-3,-1000,-304,37467,313,27,79,0,0,0,0,0,0,0,0,-32315,0,0,0,3977,0,28949,0
23025,-64,-8282,558,-42,44,9,-11251,3,3,-1000,-296,37460,325,27,79,0,0,0,0,0,0,0,0,-32315,0,0,0,3978,0,28969,0
23035,-98,-8268,528,-40,39,6,-11252,-4,-6,-997,-296,37461,326,26,79,0,0,0,0,0,0,0,0,-32316,0,0,0,3978,0,28989,0
23045,-132,-8274,520,-41,39,5,-11250,-11,4,-999,-296,37458,323,26,79,0,0,0,0,0,0,0,0,-32315,0,0,0,3978,0,29009,0
23055,-114,-8262,530,-38,39,6,-11252,-4,-7,-997,-288,37453,319,27,79,0,0,0,0,0,0,0,0,-32316,0,0,0,3977,0,29029,0
23065,-124,-8278,536,-39,37,4,-11251,1,1,-1001,-296,37451,309,27,79,0,0,0,0,0,0,0,0,-32315,0,0,0,3978,0,29049,0
23075,-48,-8270,532,-35,39,2,-11250,6,3,-998,-312,37449,319,27,79,0,0,0,0,0,0,0,0,-32315,0,0,0,3977,0,29069,0
23085,-62,-8292,550,-36,39,6,-11250,6,4,-1000,-304,37453,321,26,79,0,0,0,0,0,0,0,0,-32316,0,0,0,3977,0,29089,0
23095,-78,-8290,526,-36,40,-2,-11251,0,5,-996,-304,37459,322,26,79,0,0,0,0,0,0,0,0,-32316,0,0,0,3977,0,29109,0
23105,-78,-8288,550,-33,34,4,-11251,-3,2,-1001,-296,37459,322,27,79,0,0,0,0,0,0,0,0,-32316,0,0,0,3976,0,29129,0
23115,-36,-8266,524,-32,40,5,-11251,4,-2,-1000,-296,37457,322,26,79,0,0,0,0,0,0,0,0,-32316,0,0,0,3977,0,29149,0
23125,-50,-8304,560,-34,35,6,-11252,0,2,-999,-312,37453,316,27,79,0,0,0,0,0,0,0,0,-32316,0,0,0,3979,0,29169,0
23135,-138,-8274,558,-40,35,3,-11253,-2,-5,-997,-296,37455,322,27,79,0,0,0,0,0,0,0,0,-32316,0,0,0,3977,0,29189,0
23145,-128,-8284,552,-38,37,2,-11252,-3,-1,-1000,-296,37456,316,27,79,0,0,0,0,0,0,0,0,-32315,0,0,0,3977,0,29209,0
23155,-96,-8258,580,-44,41,-2,-11252,0,1,-1002,-312,37453,318,27,79,0,0,0,0,0,0,0,0,-32316,0,0,0,3976,0,29229,0
23165,-94,-8288,512,-41,38,-1,-11254,-4,-4,-999,-304,37452,315,27,79,0,0,0,0,0,0,0,0,-32315,0,0,0,3977,0,29249,0
23175,-80,-8268,542,-38,38,5,-11252,-1,0,-995,-296,37452,314,27,79,0,0,0,0,0,0,0,0,-32316,0,0,0,3977,0,29269,0
23185,-34,-8288,542,-34,34,3,-11253,2,2,-998,-288,37457,314,27,79,0,0,0,0,0,0,0,0,-32316,0,0,0,3977,0,29289,0
23195,-56,-8272,578,-31,36,7,-11253,-1,3,-997,-304,37455,311,27,79,0,0,0,0,0,0,0,0,-32315,0,0,0,3976,0,29309,0
23205,-56,-8288,600,-35,37,8,-11254,1,-2,-998,-312,37455,318,27,79,0,0,0,0,0,0,0,0,-32316,0,0,0,3977,0,29329,0
23215,-58,-8284,582,-37,33,4,-11253,-5,1,-999,-288,37455,320,26,79,0,0,0,0,0,0,0,0,-32315,0,0,0,3976,0,29349,0
23225,-42,-8288,562,-40,40,4,-11255,0,-1,-1004,-304,37458,321,26,79,0,0,0,0,0,0,0,0,-32315,0,0,0,3977,0,29369,0
23235,-88,-8270,572,-44,40,2,-11255,-1,-1,-996,-288,37455,316,26,79,0,0,0,0,0,0,0,0,-32315,0,0,0,3977,0,29389,0
23245,-64,-8268,554,-40,43,4,-11254,-5,5,-1000,-296,37452,315,27,79,0,0,0,0,0,0,0,0,-32315,0,0,0,3978,0,29409,0
23255,-70,-8280,536,-37,31,8,-11255,-1,-3,-997,-288,37450,315,26,79,0,0,0,0,0,0,0,0,-32315,0,0,0,3978,0,29429,0
23265,-78,-8252,592,-39,34,14,-11253,0,1,-997,-304,37451,313,26,79,0,0,0,0,0,0,0,0,-32315,0,0,0,3978,0,29449,0
23275,-82,-8278,594,-38,35,11,-11255,-1,2,-998,-296,37451,315,27,79,0,0,0,0,0,0,0,0,-32316,0,0,0,3977,0,29469,0
23285,-62,-8272,562,-40,38,5,-11255,-1,-1,-1000,-296,37450,318,26,79,0,0,0,0,0,0,0,0,-32315,0,0,0,3977,0,29489,0
23295,-14,-8272,572,-42,41,3,-11254,4,-2,-996,-288,37449,318,27,79,0,0,0,0,0,0,0,0,-32315,0,0,0,3976,0,29509,0
23305,-80,-8280,582,-47,41,8,-11255,6,-3,-996,-288,37455,322,26,79,0,0,0,0,0,0,0,0,-32315,0,0,0,3977,0,29530,0
23315,-54,-8260,570,-42,42,5,-11255,3,7,-1000,-296,37456,325,26,79,0,0,0,0,0,0,0,0,-32315,0,0,0,3979,0,29550,0
23325,-42,-8274,576,-36,37,8,-11256,-4,0,-997,-304,37457,323,27,79,0,0,0,0,0,0,0,0,-32315,0,0,0,3977,0,29570,0
23335,-74,-8278,546,-42,44,3,-11255,1,0,-1000,-304,37450,310,26,79,0,0,0,0,0,0,0,0,-32316,0,0,0,3976,0,29590,0
23345,-60,-8246,564,-41,36,7,-11255,1,2,-1000,-296,37449,306,26,79,0,0,0,0,0,0,0,0,-32316,0,0,0,3977,0,29610,0
23355,-88,-8276,548,-43,33,9,-11257,-1,3,-999,-288,37449,301,27,79,0,0,0,0,0,0,0,0,-32316,0,0,0,3977,0,29630,0
23365,-70,-8274,536,-44,39,14,-11257,-4,-1,-999,-296,37448,310,27,79,0,0,0,0,0,0,0,0,-32316,0,0,0,3976,0,29650,0
23375,-62,-8258,542,-40,36,5,-11256,1,-3,-997,-296,37447,315,26,79,0,0,0,0,0,0,0,0,-32316,0,0,0,3976,0,29670,0
23385,-68,-8314,580,-41,39,11,-11257,-2,1,-997,-304,37448,313,26,79,0,0,0,0,0,0,0,0,-32315,0,0,0,3976,0,29690,0
23395,-28,-8260,586,-41,34,14,-11256,-5,-1,-998,-304,37449,315,27,79,0,0,0,0,0,0,0,0,-32315,0,0,0,3976,0,29710,0
23405,-34,-8272,554,-42,34,16,-11255,7,-2,-997,-304,37450,305,27,79,0,0,0,0,0,0,0,0,-32315,0,0,0,3976,0,29730,0
23415,-40,-8282,590,-51,36,12,-11257,-7,-2,-1001,-296,37450,298,27,79,0,0,0,0,0,0,0,0,-32316,0,0,0,3976,0,29750,0
23425,4,-8296,584,-41,43,17,-11256,1,7,-997,-312,37452,302,26,79,0,0,0,0,0,0,0,0,-32316,0,0,0,3976,0,29770,0
23435,-66,-8268,564,-46,42,23,-11256,4,3,-999,-296,37454,301,26,79,0,0,0,0,0,0,0,0,-32315,0,0,0,3976,0,29790,0
23445,-114,-8276,566,-34,43,16,-11256,-8,0,-998,-296,37453,307,26,79,0,0,0,0,0,0,0,0,-32315,0,0,0,3977,0,29810,0
23455,-126,-8292,544,-44,36,22,-11256,7,0,-996,-304,37464,306,27,79,0,0,0,0,0,0,0,0,-32316,0,0,0,3977,0,29830,0
23465,-150,-8268,556,-39,37,12,-11258,-7,3,-1000,-296,37475,311,26,79,0,0,0,0,0,0,0,0,-32315,0,0,0,3976,0,29850,0
23475,-134,-8300,554,-43,34,6,-11255,3,-3,-997,-288,37481,314,26,79,0,0,0,0,0,0,0,0,-32315,0,0,0,3977,0,29870,0
23485,-104,-8292,536,-38,36,4,-11255,8,-5,-998,-296,37472,315,26,79,0,0,0,0,0,0,0,0,-32315,0,0,0,3977,0,29890,0
23495,-32,-8256,552,-28,36,1,-11256,3,-2,-997,-296,37462,318,27,79,0,0,0,0,0,0,0,0,-32315,0,0,0,3976,0,29910,0
23505,-48,-8312,540,-22,39,1,-11258,-9,1,-996,-296,37455,314,26,79,0,0,0,0,0,0,0,0,-32315,0,0,0,3976,0,29931,0
23515,-50,-8302,562,-25,38,4,-11256,2,-1,-1000,-304,37458,320,26,79,0,0,0,0,0,0,0,0,-32315,0,0,0,3976,0,29950,0
23525,-88,-8258,554,-25,37,2,-11256,0,-4,-998,-304,37458,319,27,79,0,0,0,0,0,0,0,0,-32315,0,0,0,3976,0,29970,0
23535,-98,-8276,588,-23,43,1,-11258,-4,0,-999,-304,37458,317,26,79,0,0,0,0,0,0,0,0,-32316,0,0,0,3976,0,29990,0
23545,-64,-8272,608,-28,42,1,-11258,6,-5,-991,-296,37455,312,27,79,0,0,0,0,0,0,0,0,-32316,0,0,0,3976,0,30010,0
23555,-118,-8248,584,-24,37,1,-11260,-3,-2,-999,-296,37457,310,27,79,0,0,0,0,0,0,0,0,-32315,0,0,0,3976,0,30030,0
23565,-62,-8274,574,-27,40,6,-11259,1,-2,-1001,-304,37456,306,27,79,0,0,0,0,0,0,0,0,-32315,0,0,0,3976,0,30051,0
23575,-38,-8286,550,-23,35,2,-11259,3,8,-999,-296,37454,300,27,79,0,0,0,0,0,0,0,0,-32315,0,0,0,3975,0,30070,0
23585,-124,-8252,578,-22,39,4,-11259,4,1,-998,-296,37456,297,27,79,0,0,0,0,0,0,0,0,-32315,0,0,0,3975,0,30090,0
23595,-114,-8286,590,-23,36,1,-11260,-2,-2,-996,-296,37458,299,27,79,0,0,0,0,0,0,0,0,-32315,0,0,0,3975,0,30110,0
23605,-80,-8276,600,-22,42,-3,-11261,-4,0,-997,-304,37459,297,27,79,0,0,0,0,0,0,0,0,-32315,0,0,0,3976,0,30130,0
23615,-62,-8268,582,-24,40,-7,-11261,-1,-3,-1002,-296,37461,305,27,79,0,0,0,0,0,0,0,0,-32315,0,0,0,3976,0,30150,0
23625,-42,-8276,568,-25,47,-1,-11261,6,4,-997,-304,37460,308,26,79,0,0,0,0,0,0,0,0,-32315,0,0,0,3975,0,30170,0
23635,-84,-8278,538,-27,46,-7,-11261,9,3,-999,-296,37462,312,27,79,0,0,0,0,0,0,0,0,-32316,0,0,0,3975,0,30190,0
23645,-86,-8324,626,-27,48,1,-11263,-2,-2,-999,-304,37458,308,26,79,0,0,0,0,0,0,0,0,-32315,0,0,0,3975,0,30210,0
23655,-32,-8246,584,-24,42,5,-11264,-3,-1,-997,-304,37456,304,26,79,0,0,0,0,0,0,0,0,-32315,0,0,0,3975,0,30230,0
23665,-48,-8304,590,-24,40,8,-11264,0,4,-1001,-296,37453,305,27,79,0,0,0,0,0,0,0,0,-32315,0,0,0,3975,0,30250,0
23675,-46,-8258,618,-30,43,6,-11264,5,-2,-1001,-304,37457,291,27,79,0,0,0,0,0,0,0,0,-32315,0,0,0,3975,0,30270,0
23685,-12,-8262,630,-31,42,9,-11264,-7,1,-998,-304,37461,289,27,79,0,0,0,0,0,0,0,0,-32315,0,0,0,3975,0,30290,0
23695,8,-8270,660,-37,40,13,-11264,5,5,-998,-304,37461,281,27,79,0,0,0,0,0,0,0,0,-32315,0,0,0,3975,0,30310,0
23705,-42,-8296,630,-45,36,14,-11265,5,6,-1006,-304,37461,285,26,79,0,0,0,0,0,0,0,0,-32315,0,0,0,3975,0,30330,0
23715,-34,-8256,588,-42,38,14,-11264,-7,3,-999,-304,37467,296,27,79,0,0,0,0,0,0,0,0,-32315,0,0,0,3976,0,30350,0
23725,-86,-8296,538,-41,40,19,-11264,8,1,-1001,-304,37472,300,26,79,0,0,0,0,0,0,0,0,-32315,0,0,0,3976,0,30370,0
23735,-54,-8270,558,-43,38,12,-11264,-2,-6,-998,-304,37476,308,26,79,0,0,0,0,0,0,0,0,-32316,0,0,0,3975,0,30390,0
23745,-26,-8266,584,-37,43,14,-11264,4,2,-996,-304,37469,296,27,79,0,0,0,0,0,0,0,0,-32316,0,0,0,3975,0,30410,0
23755,-68,-8302,598,-40,39,20,-11263,3,0,-999,-312,37469,305,27,79,0,0,0,0,0,0,0,0,-32315,0,0,0,3976,0,30430,0
23765,-82,-8282,632,-46,39,17,-11263,6,-1,-998,-304,37468,305,27,79,0,0,0,0,0,0,0,0,-32315,0,0,0,3976,0,30450,0
23775,-50,-8262,604,-41,41,16,-11264,0,3,-1002,-320,37469,315,27,79,0,0,0,0,0,0,0,0,-32315,0,0,0,3976,0,30470,0
23785,-58,-8288,620,-46,35,17,-11264,0,2,-997,-296,37467,318,27,79,0,0,0,0,0,0,0,0,-32315,0,0,0,3975,0,30490,0
23795,-22,-8266,626,-47,37,20,-11265,-4,-6,-998,-296,37465,314,27,79,0,0,0,0,0,0,0,0,-32315,0,0,0,3975,0,30510,0
23805,-50,-8248,616,-47,37,19,-11264,4,-1,-999,-296,37462,316,27,79,0,0,0,0,0,0,0,0,-32315,0,0,0,3976,0,30530,0
23815,-20,-8294,592,-47,43,18,-11264,-3,1,-1000,-304,37468,320,26,79,0,0,0,0,0,0,0,0,-32315,0,0,0,3975,0,30550,0
23825,16,-8268,596,-50,39,20,-11264,-3,-1,-998,-304,37468,316,26,79,0,0,0,0,0,0,0,0,-32315,0,0,0,3975,0,30570,0
23835,-80,-8272,620,-49,42,22,-11263,-6,1,-998,-296,37466,315,27,79,0,0,0,0,0,0,0,0,-32315,0,0,0,3975,0,30590,0
23845,-58,-8302,590,-52,40,17,-11263,2,1,-997,-312,37462,299,27,79,0,0,0,0,0,0,0,0,-32315,0,0,0,3975,0,30610,0
23855,-92,-8298,584,-47,35,21,-11265,-1,0,-1002,-296,37464,298,27,79,0,0,0,0,0,0,0,0,-32315,0,0,0,3975,0,30630,0
23865,-110,-8262,560,-52,38,24,-11262,5,2,-999,-296,37466,302,27,79,0,0,0,0,0,0,0,0,-32316,0,0,0,3976,0,30650,0
23875,-100,-8296,588,-46,33,11,-11265,-5,4,-999,-304,37465,303,27,79,0,0,0,0,0,0,0,0,-32315,0,0,0,3976,0,30670,0
23885,-88,-8280,630,-47,43,5,-11264,-3,0,-997,-296,37465,303,27,79,0,0,0,0,0,0,0,0,-32315,0,0,0,3975,0,30690,0
23895,-52,-8270,610,-50,43,-3,-11264,3,-1,-997,-296,37468,305,26,79,0,0,0,0,0,0,0,0,-32315,0,0,0,3975,0,30710,0
23905,-10,-8298,592,-46,39,2,-11264,-1,3,-1001,-304,37468,309,26,79,0,0,0,0,0,0,0,0,-32315,0,0,0,3976,0,30730,0
23915,-20,-8302,604,-52,33,6,-11264,1,-3,-999,-296,37468,314,27,79,0,0,0,0,0,0,0,0,-32315,0,0,0,3975,0,30750,0
23925,-14,-8286,614,-48,39,11,-11265,-6,-1,-995,-304,37467,314,26,79,0,0,0,0,0,0,0,0,-32315,0,0,0,3976,0,30770,0
23935,-12,-8248,574,-50,45,15,-11264,0,-1,-997,-296,37463,315,27,79,0,0,0,0,0,0,0,0,-32315,0,0,0,3975,0,30790,0
23945,8,-8290,612,-52,36,16,-11263,-1,7,-996,-296,37465,311,27,79,0,0,0,0,0,0,0,0,-32315,0,0,0,3976,0,30810,0
23955,-30,-8266,634,-56,46,15,-11264,5,-2,-1001,-288,37463,315,27,79,0,0,0,0,0,0,0,0,-32315,0,0,0,3976,0,30830,0
23965,-108,-8274,624,-55,46,30,-11263,1,3,-1002,-304,37462,314,27,79,0,0,0,0,0,0,0,0,-32315,0,0,0,3976,0,30850,0
23975,-68,-8256,618,-59,44,23,-11263,0,1,-998,-312,37459,309,27,79,0,0,0,0,0,0,0,0,-32315,0,0,0,3975,0,30870,0
23985,-82,-8276,596,-60,44,17,-11262,4,5,-1002,-304,37459,304,27,79,0,0,0,0,0,0,0,0,-32315,0,0,0,3975,0,30890,0
23995,-78,-8284,556,-55,50,16,-11264,-1,1,-1000,-304,37460,305,27,79,0,0,0,0,0,0,0,0,-32316,0,0,0,3976,0,30910,0
24005,-16,-8272,582,-50,49,19,-11263,0,2,-998,-304,37459,314,27,79,0,0,0,0,0,0,0,0,-32316,0,0,0,3976,0,30930,0
24015,8,-8284,626,-55,50,23,-11263,0,-1,-999,-296,37455,309,27,79,0,0,0,0,0,0,0,0,-32315,0,0,0,3976,0,30950,0
24025,-16,-8284,666,-58,57,31,-11261,3,1,-997,-304,37461,314,27,79,0,0,0,0,0,0,0,0,-32316,0,0,0,3976,0,30970,0
24035,20,-8236,666,-73,53,38,-11261,-5,1,-998,-304,37462,320,27,79,0,0,0,0,0,0,0,0,-32315,0,0,0,3976,0,30990,0
24045,36,-8280,642,-75,56,40,-11260,-2,2,-997,-296,37464,321,26,79,0,0,0,0,0,0,0,0,-32316,0,0,0,3976,0,31010,0
24055,8,-8294,614,-73,56,47,-11260,0,0,-995,-296,37458,318,27,79,0,0,0,0,0,0,0,0,-32315,0,0,0,3976,0,31030,0
24065,-118,-8240,522,-73,45,48,-11258,-6,-1,-1000,-296,37453,314,27,79,0,0,0,0,0,0,0,0,-32315,0,0,0,3977,0,31050,0
24075,-88,-8310,544,-65,53,46,-11255,0,-2,-999,-296,37454,308,27,79,0,0,0,0,0,0,0,0,-32316,0,0,0,3977,0,31070,0
24085,-114,-8284,572,-57,46,40,-11255,1,-7,-997,-296,37456,307,27,79,0,0,0,0,0,0,0,0,-32316,0,0,0,3976,0,31090,0
24095,-204,-8256,542,-56,50,35,-11253,8,-4,-1000,-304,37459,312,26,79,0,0,0,0,0,0,0,0,-32316,0,0,0,3977,0,31110,0
24105,-158,-8276,568,-51,44,22,-11253,-1,-5,-997,-296,37456,317,27,79,0,0,0,0,0,0,0,0,-32316,0,0,0,3977,0,31130,0
24115,-134,-8240,554,-48,42,18,-11252,3,-4,-999,-296,37455,307,26,79,0,0,0,0,0,0,0,0,-32315,0,0,0,3977,0,31150,0
24125,-130,-8290,508,-42,41,10,-11253,2,0,-1000,-312,37459,307,26,79,0,0,0,0,0,0,0,0,-32316,0,0,0,3977,0,31170,0
24135,-114,-8276,542,-39,37,5,-11253,0,2,-998,-296,37460,315,26,79,0,0,0,0,0,0,0,0,-32315,0,0,0,3977,0,31190,0
24145,-76,-8248,572,-33,39,3,-11252,-1,5,-996,-304,37458,322,26,79,0,0,0,0,0,0,0,0,-32316,0,0,0,3977,0,31210,0
24155,-72,-8306,608,-35,36,3,-11252,4,2,-998,-296,37452,317,26,79,0,0,0,0,0,0,0,0,-32315,0,0,0,3977,0,31230,0
24165,-20,-8268,644,-44,40,3,-11253,11,0,-1001,-304,37451,312,27,79,0,0,0,0,0,0,0,0,-32315,0,0,0,3977,0,31250,0
24175,-36,-8274,634,-41,39,5,-11252,0,2,-1001,-312,37454,305,27,79,0,0,0,0,0,0,0,0,-32316,0,0,0,3977,0,31270,0
24185,-26,-8288,596,-39,36,6,-11253,-4,-7,-1000,-304,37454,306,27,79,0,0,0,0,0,0,0,0,-32315,0,0,0,3977,0,31290,0
24195,-60,-8298,578,-43,39,7,-11253,5,2,-1001,-296,37454,303,27,79,0,0,0,0,0,0,0,0,-32315,0,0,0,3977,0,31310,0
24205,-4,-8276,560,-39,45,12,-11254,-4,3,-994,-296,37452,307,27,79,0,0,0,0,0,0,0,0,-32315,0,0,0,3976,0,31330,0
24215,-18,-8296,588,-40,43,18,-11252,8,-1,-999,-312,37451,311,27,79,0,0,0,0,0,0,0,0,-32316,0,0,0,3977,0,31350,0
24225,-70,-8280,598,-41,40,18,-11254,-2,-2,-994,-288,37451,318,27,79,0,0,0,0,0,0,0,0,-32316,0,0,0,3977,0,31370,0
24235,-86,-8252,610,-41,37,23,-11252,7,-3,-995,-296,37457,313,26,79,0,0,0,0,0,0,0,0,-32315,0,0,0,3978,0,31390,0
24245,-54,-8306,606,-48,37,19,-11253,0,1,-1001,-304,37458,317,26,79,0,0,0,0,0,0,0,0,-32315,0,0,0,3977,0,31410,0
24255,-30,-8260,596,-40,44,17,-11253,1,1,-998,-312,37458,315,27,79,0,0,0,0,0,0,0,0,-32315,0,0,0,3977,0,31430,0
24265,-26,-8296,574,-44,42,17,-11254,-6,-4,-996,-296,37453,313,26,79,0,0,0,0,0,0,0,0,-32315,0,0,0,3976,0,31450,0
24275,0,-8304,566,-43,47,20,-11253,2,5,-1001,-312,37451,305,27,79,0,0,0,0,0,0,0,0,-32315,0,0,0,3977,0,31470,0
24285,38,-8286,574,-35,46,30,-11254,-3,3,-997,-296,37452,305,26,79,0,0,0,0,0,0,0,0,-32315,0,0,0,3977,0,31490,0
24295,6,-8292,574,-37,41,31,-11252,5,2,-999,-304,37450,306,26,79,0,0,0,0,0,0,0,0,-32315,0,0,0,3977,0,31510,0
24305,-74,-8320,570,-36,40,36,-11252,3,-2,-1001,-304,37448,311,27,79,0,0,0,0,0,0,0,0,-32315,0,0,0,3977,0,31531,0
24315,-86,-8286,578,-33,47,34,-11251,8,-7,-997,-288,37448,309,26,79,0,0,0,0,0,0,0,0,-32315,0,0,0,3977,0,31551,0
24325,-114,-8266,582,-30,43,33,-11252,-6,-2,-999,-312,37450,308,26,79,0,0,0,0,0,0,0,0,-32315,0,0,0,3977,0,31571,0
24335,-108,-8256,584,-29,42,31,-11250,0,-5,-1001,-288,37454,307,27,79,0,0,0,0,0,0,0,0,-32315,0,0,0,3978,0,31591,0
24345,-122,-8256,578,-27,42,19,-11251,1,3,-1001,-304,37458,307,26,79,0,0,0,0,0,0,0,0,-32315,0,0,0,3978,0,31611,0
24355,-82,-8262,608,-27,45,20,-11250,-6,-1,-1000,-312,37456,318,27,79,0,0,0,0,0,0,0,0,-32315,0,0,0,3978,0,31631,0
24365,-64,-8290,554,-27,44,12,-11250,0,-3,-1001,-288,37456,317,27,79,0,0,0,0,0,0,0,0,-32315,0,0,0,3979,0,31651,0
24375,-90,-8282,538,-22,35,13,-11250,-1,2,-998,-296,37450,313,27,79,0,0,0,0,0,0,0,0,-32316,0,0,0,3978,0,31671,0
24385,-62,-8244,564,-15,40,10,-11250,1,2,-998,-304,37450,312,26,79,0,0,0,0,0,0,0,0,-32316,0,0,0,3977,0,31691,0
24395,34,-8320,598,-6,79,1,-11251,-4,3,-998,-296,37450,313,27,79,0,0,0,0,0,0,0,0,-32315,0,0,0,3977,0,31711,0
24405,-122,-8284,632,-18,31,9,-11250,-3,-1,-1000,-304,37450,312,27,79,0,0,0,0,0,0,0,0,-32315,0,0,0,3979,0,31731,0
24415,-28,-8280,626,-23,34,14,-11250,2,-2,-998,-296,37453,309,27,79,0,0,0,0,0,0,0,0,-32316,0,0,0,3977,0,31751,0
24425,-74,-8286,626,-19,59,19,-11250,1,7,-997,-296,37454,308,26,79,0,0,0,0,0,0,0,0,-32315,0,0,0,3977,0,31771,0
24435,-100,-8292,648,-25,53,22,-11251,0,-1,-995,-288,37455,304,26,79,0,0,0,0,0,0,0,0,-32315,0,0,0,3978,0,31791,0
24445,-74,-8282,644,-26,43,18,-11251,-3,3,-1000,-288,37456,300,26,79,0,0,0,0,0,0,0,0,-32315,0,0,0,3978,0,31811,0
24455,-86,-8268,620,-32,43,13,-11252,-5,-2,-997,-312,37462,309,27,79,0,0,0,0,0,0,0,0,-32316,0,0,0,3979,0,31831,0
24465,-110,-8292,636,-26,46,10,-11250,-3,-3,-1001,-304,37466,311,27,79,0,0,0,0,0,0,0,0,-32315,0,0,0,3977,0,31851,0
24475,12,-8316,696,-21,70,4,-11248,5,-3,-998,-296,37466,313,27,79,0,0,0,0,0,0,0,0,-32315,0,0,0,3977,0,31871,0
24485,-82,-8296,642,-28,40,3,-11252,-2,0,-996,-280,37458,308,26,79,0,0,0,0,0,0,0,0,-32316,0,0,0,3977,0,31891,0
24495,-54,-8264,602,-31,41,6,-11252,-1,3,-1001,-296,37458,303,26,79,0,0,0,0,0,0,0,0,-32316,0,0,0,3977,0,31911,0
24505,-82,-8272,566,-33,30,2,-11252,-4,5,-998,-304,37458,303,27,79,0,0,0,0,0,0,0,0,-32316,0,0,0,3977,0,31932,0
24515,-36,-8268,616,-30,39,3,-11252,-1,3,-998,-304,37458,310,26,79,0,0,0,0,0,0,0,0,-32316,0,0,0,3977,0,31951,0
24525,-24,-8280,668,-33,43,1,-11254,-3,3,-997,-296,37456,312,27,79,0,0,0,0,0,0,0,0,-32316,0,0,0,3977,0,31971,0
24535,-42,-8276,642,-36,35,5,-11252,1,-1,-996,-288,37452,308,26,79,0,0,0,0,0,0,0,0,-32316,0,0,0,3977,0,31991,0
24545,-14,-8268,646,-41,40,12,-11252,6,1,-1000,-304,37454,308,26,79,0,0,0,0,0,0,0,0,-32315,0,0,0,3977,0,32011,0
24555,-86,-8312,614,-30,47,11,-11251,5,0,-999,-288,37458,311,27,79,0,0,0,0,0,0,0,0,-32315,0,0,0,3977,0,32031,0
24565,-60,-8294,650,-43,40,12,-11253,1,2,-997,-288,37457,313,26,79,0,0,0,0,0,0,0,0,-32315,0,0,0,3977,0,32051,0
24575,-30,-8280,652,-43,43,12,-11254,-1,-5,-1001,-296,37455,312,27,79,0,0,0,0,0,0,0,0,-32315,0,0,0,3977,0,32071,0
24585,-66,-8264,648,-47,35,13,-11254,-8,1,-995,-296,37455,317,27,79,0,0,0,0,0,0,0,0,-32316,0,0,0,3977,0,32091,0
24595,-68,-8284,670,-51,38,18,-11254,-4,1,-999,-304,37459,307,27,79,0,0,0,0,0,0,0,0,-32315,0,0,0,3976,0,32111,0
24605,-82,-8280,642,-56,42,17,-11254,-4,4,-1000,-304,37459,310,27,79,0,0,0,0,0,0,0,0,-32315,0,0,0,3977,0,32131,0
24615,-48,-8270,626,-61,40,21,-11253,14,11,-997,-288,37457,305,26,79,0,0,0,0,0,0,0,0,-32316,0,0,0,3977,0,32151,0
24625,-32,-8300,646,-59,45,26,-11253,4,2,-998,-296,37455,307,27,79,0,0,0,0,0,0,0,0,-32316,0,0,0,3977,0,32171,0
24635,18,-8278,656,-62,40,26,-11254,7,4,-995,-288,37457,304,27,79,0,0,0,0,0,0,0,0,-32316,0,0,0,3977,0,32191,0
24645,-36,-8278,632,-62,41,25,-11253,0,1,-999,-304,37458,304,27,79,0,0,0,0,0,0,0,0,-32315,0,0,0,3977,0,32211,0
24655,-62,-8284,608,-62,40,25,-11252,8,-2,-999,-296,37461,307,26,79,0,0,0,0,0,0,0,0,-32316,0,0,0,3978,0,32231,0
24665,-104,-8288,612,-57,43,23,-11253,0,2,-996,-288,37461,307,26,79,0,0,0,0,0,0,0,0,-32316,0,0,0,3977,0,32251,0
24675,-162,-8244,560,-56,40,15,-11252,7,0,-999,-304,37464,313,27,79,0,0,0,0,0,0,0,0,-32315,0,0,0,3979,0,32271,0
24685,-120,-8268,592,-55,41,12,-11255,3,7,-995,-288,37462,307,27,79,0,0,0,0,0,0,0,0,-32316,0,0,0,3977,0,32292,0
24695,-716,-8300,638,-55,34,20,-11230,121,39,-424,0,37462,307,27,79,0,0,0,0,0,0,0,0,-32315,0,0,0,3978,0,32312,0
24705,1774,-7722,38,-7,-154,244,-11140,195,195,-369,0,37462,310,26,79,0,0,0,0,0,0,0,0,-32315,0,0,0,3988,1,32332,0
24715,886,-8200,340,-32,-344,260,-11086,96,52,-202,0,37465,307,26,79,0,0,0,0,0,0,0,0,-32315,0,0,0,3994,0,32353,0
24725,-384,-8522,1030,66,-369,251,-11046,90,-101,-165,0,37469,310,27,79,0,0,0,0,0,0,0,0,-32315,0,0,0,4001,1,32373,0
24735,-370,-8138,568,22,-291,245,-10999,96,-12,-193,0,37480,295,27,79,0,0,0,0,0,0,0,0,-32315,0,0,0,4009,0,32393,0
24745,-486,-8346,820,-34,-143,152,-10973,45,-32,-103,0,37482,297,27,79,0,0,0,0,0,0,0,0,-32315,0,0,0,4014,0,32413,0
24755,-562,-8268,832,-64,-8,112,-10954,43,-58,-85,0,37489,297,26,79,0,0,0,0,0,0,0,0,-32315,0,0,0,4015,0,32433,0
24765,-470,-8250,720,-81,76,40,-10946,15,-33,-35,0,37481,297,26,79,0,0,0,0,0,0,0,0,-32315,0,0,0,4018,0,32453,0
24775,-252,-8310,776,-103,156,15,-10945,-2,-40,-7,0,37475,299,27,79,0,0,0,0,0,0,0,0,-32315,0,0,0,4018,0,32473,0
24785,-104,-8214,576,-107,156,11,-10944,8,-12,-4,0,37467,304,27,79,0,0,0,0,0,0,0,0,-32315,0,0,0,4015,0,32493,0
24795,-32,-8290,464,-97,113,18,-10944,0,-2,-1,0,37466,310,27,79,0,0,0,0,0,0,0,0,-32315,0,0,0,4015,0,32513,0
24805,8,-8282,388,-60,42,35,-10944,-6,3,-4,0,37468,312,27,79,0,0,0,0,0,0,0,0,-32315,0,0,0,4013,0,32533,0
24815,-84,-8244,424,-40,32,42,-10942,9,2,-12,0,37470,308,27,79,0,0,0,0,0,0,0,0,-32315,0,0,0,4015,0,32553,0
24825,-164,-8302,626,-37,38,47,-10938,10,8,-23,0,37471,300,27,79,0,0,0,0,0,0,0,0,-32315,0,0,0,4015,0,32573,0
24835,-160,-8278,710,-34,43,50,-10931,19,4,-38,0,37472,299,27,79,0,0,0,0,0,0,0,0,-32315,0,0,0,4017,0,32593,0
24845,-50,-8290,708,-49,24,72,-10917,29,17,-75,0,37471,297,27,79,0,0,0,0,0,0,0,0,-32315,0,0,0,4018,0,32613,0
24855,140,-8274,590,-51,-8,111,-10891,55,39,-131,0,37478,298,27,79,0,0,0,0,0,0,0,0,-32315,0,0,0,4020,0,32633,0
24865,70,-8270,580,-47,-69,115,-10879,11,5,-65,0,37477,297,27,79,0,0,0,0,0,0,0,0,-32315,0,0,0,4022,0,32653,0
24875,-358,-8326,730,-36,-54,93,-10871,14,-36,-40,0,37479,289,27,79,0,0,0,0,0,0,0,0,-32315,0,0,0,4023,0,32673,0
24885,-398,-8238,720,-63,44,78,-10859,23,-5,-67,0,37477,281,27,79,0,0,0,0,0,0,0,0,-32315,0,0,0,4024,0,32693,0
24895,-154,-8274,622,-56,41,78,-10841,35,22,-86,0,37474,276,27,79,0,0,0,0,0,0,0,0,-32316,0,0,0,4027,0,32713,0
24905,-40,-8286,578,-46,10,67,-10834,9,-5,-33,0,37473,269,26,79,0,0,0,0,0,0,0,0,-32315,0,0,0,4028,0,32733,0
24915,-290,-8266,574,-54,24,48,-10835,-1,-41,-4,0,37470,254,27,79,0,0,0,0,0,0,0,0,-32315,0,0,0,4028,0,32753,0
24925,-358,-8272,610,-47,62,33,-10832,0,-7,-12,0,37469,260,27,79,0,0,0,0,0,0,0,0,-32315,0,0,0,4028,0,32773,0
24935,-214,-8268,630,-55,70,24,-10831,0,-1,-6,0,37469,260,27,79,0,0,0,0,0,0,0,0,-32315,0,0,0,4027,0,32793,0
24945,-110,-8266,636,-50,79,18,-10831,-5,-4,-3,0,37468,266,27,79,0,0,0,0,0,0,0,0,-32315,0,0,0,4028,0,32813,0
24955,-62,-8254,632,-54,68,29,-10830,-1,-3,-3,0,37469,268,26,79,0,0,0,0,0,0,0,0,-32315,0,0,0,4027,0,32833,0
24965,-92,-8282,656,-47,46,38,-10830,-9,-4,-9,0,37468,267,26,79,0,0,0,0,0,0,0,0,-32315,0,0,0,4028,0,32853,0
24975,-110,-8278,660,-52,45,38,-10828,9,-5,-9,0,37467,265,27,79,0,0,0,0,0,0,0,0,-32315,0,0,0,4028,0,32873,0
24985,-182,-8304,604,-55,52,38,-10826,10,6,-10,0,37465,270,27,79,0,0,0,0,0,0,0,0,-32315,0,0,0,4028,0,32893,0
24995,-226,-8264,610,-50,63,35,-10824,7,7,-9,0,37465,276,27,79,0,0,0,0,0,0,0,0,-32315,0,0,0,4027,0,32913,0
25005,-134,-8272,624,-53,79,30,-10823,5,2,-6,0,37466,280,27,79,0,0,0,0,0,0,0,0,-32315,0,0,0,4027,0,32933,0
25015,-136,-8284,622,-53,68,31,-10823,-8,2,-9,0,37465,271,27,79,0,0,0,0,0,0,0,0,-32316,0,0,0,4028,0,32953,0
25025,-128,-8264,618,-52,51,42,-10821,10,-2,-8,0,37463,269,27,79,0,0,0,0,0,0,0,0,-32315,0,0,0,4027,0,32973,0
25035,-128,-8232,600,-48,32,35,-10819,8,6,-11,0,37463,265,27,79,0,0,0,0,0,0,0,0,-32315,0,0,0,4028,0,32993,0
25045,-232,-8258,614,-37,35,32,-10817,16,5,-15,0,37464,275,27,79,0,0,0,0,0,0,0,0,-32315,0,0,0,4027,0,33013,0
25055,-218,-8234,656,-47,46,28,-10817,0,1,-14,0,37465,275,27,79,0,0,0,0,0,0,0,0,-32315,0,0,0,4028,0,33033,0
25065,-180,-8268,632,-47,47,21,-10814,3,-1,-14,0,37467,269,27,79,0,0,0,0,0,0,0,0,-32315,0,0,0,4028,0,33053,0
25075,-146,-8304,630,-43,41,26,-10812,8,2,-13,0,37465,260,27,79,0,0,0,0,0,0,0,0,-32315,0,0,0,4028,0,33073,0
25085,-126,-8256,624,-43,42,24,-10810,-4,1,-15,0,37466,270,27,79,0,0,0,0,0,0,0,0,-32315,0,0,0,4028,0,33093,0
25095,-126,-8268,606,-41,28,30,-10804,15,3,-23,0,37467,269,26,79,0,0,0,0,0,0,0,0,-32315,0,0,0,4028,0,33113,0
25105,-90,-8288,626,-42,15,48,-10798,16,11,-41,0,37464,273,26,79,0,0,0,0,0,0,0,0,-32315,0,0,0,4029,0,33132,0
25115,-52,-8298,614,-42,-4,69,-10786,33,16,-71,0,37461,269,27,79,0,0,0,0,0,0,0,0,-32315,0,0,0,4031,0,33153,0
25125,20,-8234,596,-33,-41,82,-10771,22,15,-63,0,37458,264,27,79,0,0,0,0,0,0,0,0,-32316,0,0,0,4034,0,33172,0
25135,-240,-8292,662,-37,-32,62,-10767,0,-23,-15,0,37460,265,27,79,0,0,0,0,0,0,0,0,-32315,0,0,0,4034,0,33192,0
25145,-402,-8240,700,-51,53,39,-10766,8,-22,-15,0,37460,273,27,79,0,0,0,0,0,0,0,0,-32315,0,0,0,4034,0,33212,0
25155,-274,-8278,730,-58,73,24,-10765,-1,-3,-11,0,37461,279,26,79,0,0,0,0,0,0,0,0,-32315,0,0,0,4035,0,33232,0
25165,-68,-8272,614,-63,64,16,-10762,8,-1,-2,0,37460,284,27,79,0,0,0,0,0,0,0,0,-32315,0,0,0,4033,0,33252,0
25175,-114,-8288,598,-54,37,31,-10765,0,-6,-4,0,37470,292,27,79,0,0,0,0,0,0,0,0,-32315,0,0,0,4034,0,33272,0
25185,-174,-8258,572,-54,33,31,-10764,-4,-1,-8,0,37475,295,27,79,0,0,0,0,0,0,0,0,-32315,0,0,0,4035,0,33292,0
25195,-218,-8300,630,-50,36,25,-10760,6,4,-10,0,37476,300,27,79,0,0,0,0,0,0,0,0,-32315,0,0,0,4034,0,33313,0
25205,-210,-8232,616,-51,51,13,-10759,0,5,-7,0,37467,297,27,79,0,0,0,0,0,0,0,0,-32315,0,0,0,4035,0,33333,0
25215,-150,-8256,626,-46,58,14,-10760,0,-2,-3,0,37461,296,27,79,0,0,0,0,0,0,0,0,-32315,0,0,0,4034,0,33357,0
25225,-114,-8294,650,-46,42,20,-10759,7,1,-2,0,37460,300,27,79,0,0,0,0,0,0,0,0,-32315,0,0,0,4035,0,33377,0
25235,-140,-8268,658,-52,31,30,-10759,-1,4,-3,0,37461,302,27,79,0,0,0,0,0,0,0,0,-32315,0,0,0,4034,0,33397,0
25245,-204,-8274,644,-56,43,25,-10757,3,2,-5,0,37459,308,27,79,0,0,0,0,0,0,0,0,-32315,0,0,0,4036,0,33417,0
25255,-234,-8258,626,-54,40,22,-10757,7,-2,-5,0,37454,302,27,79,0,0,0,0,0,0,0,0,-32315,0,0,0,4034,0,33437,0
25265,-224,-8274,622,-54,40,18,-10758,-9,-4,-3,0,37452,303,27,79,0,0,0,0,0,0,0,0,-32315,0,0,0,4034,0,33457,0
25275,-218,-8296,620,-53,37,14,-10757,-2,-2,0,0,37460,294,27,79,0,0,0,0,0,0,0,0,-32315,0,0,0,4035,0,33477,0
25285,-180,-8290,610,-48,39,10,-10755,7,-7,0,0,37461,292,27,79,0,0,0,0,0,0,0,0,-32316,0,0,0,4035,0,33497,0
25295,-242,-8248,590,-43,28,11,-10757,-1,-2,1,0,37463,289,26,79,0,0,0,0,0,0,0,0,-32315,0,0,0,4034,0,33517,0
25305,-198,-8278,614,-45,32,7,-10757,0,-1,0,0,37459,291,26,79,0,0,0,0,0,0,0,0,-32315,0,0,0,4035,0,33538,0
25315,-148,-8264,638,-47,38,8,-10759,-1,-3,1,0,37454,288,27,79,0,0,0,0,0,0,0,0,-32315,0,0,0,4035,0,33558,0
25325,-140,-8270,584,-42,32,6,-10758,-1,3,1,0,37453,283,27,79,0,0,0,0,0,0,0,0,-32315,0,0,0,4035,0,33578,0
25335,-110,-8254,658,-44,34,10,-10759,-1,-3,1,0,37453,284,27,79,0,0,0,0,0,0,0,0,-32315,0,0,0,4035,0,33598,0
25345,-110,-8258,664,-48,31,18,-10758,-2,-1,1,0,37454,286,26,79,0,0,0,0,0,0,0,0,-32315,0,0,0,4035,0,33618,0
25355,-134,-8284,666,-47,29,19,-10758,-2,4,0,0,37454,289,26,79,0,0,0,0,0,0,0,0,-32315,0,0,0,4034,0,33638,0
25365,-184,-8274,614,-52,25,18,-10758,4,-1,0,0,37453,300,27,79,0,0,0,0,0,0,0,0,-32315,0,0,0,4035,0,33658,0
25375,-158,-8250,616,-43,30,16,-10758,3,-3,0,0,37452,304,26,79,0,0,0,0,0,0,0,0,-32315,0,0,0,4036,0,33678,0
25385,-202,-8288,610,-50,23,17,-10757,20,3,0,0,37455,309,27,79,0,0,0,0,0,0,0,0,-32315,0,0,0,4036,0,33699,0
25395,-204,-8282,614,-43,30,10,-10758,-4,-6,1,0,37455,302,27,79,0,0,0,0,0,0,0,0,-32315,0,0,0,4035,0,33719,0
25405,-186,-8248,590,-39,16,12,-10759,0,3,1,0,37455,298,27,79,0,0,0,0,0,0,0,0,-32315,0,0,0,4035,0,33739,0
25415,-154,-8300,634,-42,7,15,-10760,0,0,0,0,37452,295,27,79,0,0,0,0,0,0,0,0,-32316,0,0,0,4035,0,33759,0
25425,-144,-8266,702,-41,-1,14,-10759,0,-1,0,0,37453,288,27,79,0,0,0,0,0,0,0,0,-32315,0,0,0,4036,0,33779,0
25435,-124,-8276,714,-40,-17,13,-10759,0,-4,2,0,37455,289,27,79,0,0,0,0,0,0,0,0,-32315,0,0,0,4036,0,33799,0
25445,-112,-8282,644,-50,-18,25,-10759,6,-5,0,0,37455,296,27,79,0,0,0,0,0,0,0,0,-32315,0,0,0,4037,0,33819,0
25455,-162,-8294,688,-57,-6,24,-10760,1,1,-2,0,37455,302,27,79,0,0,0,0,0,0,0,0,-32315,0,0,0,4037,0,33839,0
25465,-158,-8268,652,-65,27,30,-10759,4,0,1,0,37456,296,27,79,0,0,0,0,0,0,0,0,-32315,0,0,0,4037,0,33859,0
25475,-162,-8286,640,-70,45,28,-10760,1,1,0,0,37459,287,27,79,0,0,0,0,0,0,0,0,-32315,0,0,0,4038,0,33879,0
25485,-120,-8274,670,-68,53,29,-10758,0,2,-3,0,37462,299,27,79,0,0,0,0,0,0,0,0,-32315,0,0,0,4038,0,33899,0
25495,-110,-8274,678,-69,51,33,-10759,-1,-4,0,0,37462,307,27,79,0,0,0,0,0,0,0,0,-32315,0,0,0,4038,0,33919,0
25505,-162,-8276,608,-65,47,45,-10759,-1,2,-3,0,37461,306,27,79,0,0,0,0,0,0,0,0,-32315,0,0,0,4038,0,33939,0
25515,-256,-8272,592,-60,44,37,-10760,1,4,-2,0,37461,305,27,79,0,0,0,0,0,0,0,0,-32315,0,0,0,4037,0,33959,0
25525,-332,-8258,554,-58,46,25,-10759,-2,1,0,0,37461,293,27,79,0,0,0,0,0,0,0,0,-32315,0,0,0,4038,0,33979,0
25535,-322,-8286,584,-55,44,17,-10758,2,-2,0,0,37460,298,27,79,0,0,0,0,0,0,0,0,-32315,0,0,0,4039,0,33999,0
25545,-254,-8296,576,-47,39,0,-10759,-1,6,2,0,37458,291,26,79,0,0,0,0,0,0,0,0,-32315,0,0,0,4038,0,34019,0
25555,-180,-8264,598,-48,36,-5,-10759,0,-7,2,0,37459,284,27,79,0,0,0,0,0,0,0,0,-32315,0,0,0,4038,0,34039,0
25565,-134,-8296,606,-45,31,-3,-10759,6,2,2,0,37462,277,27,79,0,0,0,0,0,0,0,0,-32315,0,0,0,4038,0,34059,0
25575,-142,-8298,606,-39,28,-3,-10759,-5,-5,2,0,37461,281,27,79,0,0,0,0,0,0,0,0,-32315,0,0,0,4037,0,34079,0
25585,-142,-8266,636,-40,32,1,-10759,-5,4,0,0,37458,284,27,79,0,0,0,0,0,0,0,0,-32315,0,0,0,4038,0,34099,0
25595,-118,-8286,626,-41,25,13,-10759,6,10,1,0,37464,295,26,79,0,0,0,0,0,0,0,0,-32315,0,0,0,4038,0,34119,0
25605,-148,-8282,650,-42,1,12,-10759,9,2,0,0,37466,286,26,79,0,0,0,0,0,0,0,0,-32315,0,0,0,4038,0,34139,0
25615,-176,-8280,654,-41,-2,11,-10759,0,-1,0,0,37466,287,27,79,0,0,0,0,0,0,0,0,-32315,0,0,0,4038,0,34159,0
25625,-194,-8286,646,-35,4,7,-10760,-4,-3,0,0,37460,291,27,79,0,0,0,0,0,0,0,0,-32315,0,0,0,4039,0,34179,0
25635,-196,-8260,626,-42,8,4,-10759,4,2,0,0,37461,293,27,79,0,0,0,0,0,0,0,0,-32315,0,0,0,4039,0,34199,0
25645,-176,-8234,608,-42,15,-1,-10760,-7,2,0,0,37464,294,27,79,0,0,0,0,0,0,0,0,-32315,0,0,0,4040,0,34219,0
25655,-146,-8266,618,-37,18,1,-10760,7,1,2,0,37464,291,27,79,0,0,0,0,0,0,0,0,-32315,0,0,0,4040,0,34239,0
25665,-154,-8266,602,-37,10,-2,-10761,-7,-3,2,0,37462,292,27,79,0,0,0,0,0,0,0,0,-32315,0,0,0,4040,0,34259,0
25675,-166,-8256,634,-37,8,-4,-10761,0,0,3,0,37461,298,27,79,0,0,0,0,0,0,0,0,-32315,0,0,0,4040,0,34279,0
25685,-146,-8258,644,-34,-1,2,-10760,5,-2,0,0,37464,301,27,79,0,0,0,0,0,0,0,0,-32315,0,0,0,4040,0,34299,0
25695,-164,-8272,662,-42,6,7,-10762,-2,-2,1,0,37471,298,27,79,0,0,0,0,0,0,0,0,-32315,0,0,0,4042,0,34319,0
25705,-164,-8268,670,-46,28,5,-10763,-8,-7,1,0,37471,298,27,79,0,0,0,0,0,0,0,0,-32315,0,0,0,4040,0,34339,0
25715,-148,-8292,668,-46,37,5,-10760,10,0,2,0,37468,288,27,79,0,0,0,0,0,0,0,0,-32315,0,0,0,4042,0,34359,0
25725,-132,-8270,638,-49,38,8,-10762,-4,1,2,0,37464,278,27,79,0,0,0,0,0,0,0,0,-32315,0,0,0,4041,0,34379,0
25735,-144,-8252,638,-51,35,8,-10762,1,1,1,0,37465,273,26,79,0,0,0,0,0,0,0,0,-32315,0,0,0,4040,0,34399,0
25745,-190,-8254,630,-50,20,4,-10761,0,3,1,0,37467,288,26,79,0,0,0,0,0,0,0,0,-32315,0,0,0,4042,0,34419,0
25755,-208,-8298,626,-45,15,7,-10762,0,2,-1,0,37465,297,27,79,0,0,0,0,0,0,0,0,-32315,0,0,0,4042,0,34439,0
25765,-174,-8258,636,-47,23,7,-10760,4,2,2,0,37464,292,27,79,0,0,0,0,0,0,0,0,-32315,0,0,0,4042,0,34459,0
25775,-202,-8238,614,-46,25,0,-10762,5,1,1,0,37468,285,27,79,0,0,0,0,0,0,0,0,-32315,0,0,0,4042,0,34479,0
25785,-142,-8266,638,-46,29,-1,-10762,6,1,1,0,37469,292,27,79,0,0,0,0,0,0,0,0,-32315,0,0,0,4042,0,34499,0
25795,-170,-8270,646,-39,24,1,-10762,4,1,2,0,37473,292,26,79,0,0,0,0,0,0,0,0,-32315,0,0,0,4043,0,34519,0
25805,-140,-8272,628,-42,26,3,-10761,9,1,2,0,37467,292,27,79,0,0,0,0,0,0,0,0,-32315,0,0,0,4042,0,34539,0
25815,-110,-8288,654,-53,20,3,-10764,-1,-6,0,0,37468,290,27,79,0,0,0,0,0,0,0,0,-32315,0,0,0,4042,0,34559,0
25825,-130,-8260,664,-43,26,0,-10763,0,1,1,0,37467,286,27,79,0,0,0,0,0,0,0,0,-32315,0,0,0,4042,0,34579,0
25835,-136,-8264,662,-44,32,4,-10763,2,-3,1,0,37471,291,27,79,0,0,0,0,0,0,0,0,-32315,0,0,0,4042,0,34599,0
25845,-130,-8308,640,-52,33,9,-10765,-9,0,0,0,37469,286,27,79,0,0,0,0,0,0,0,0,-32315,0,0,0,4042,0,34619,0
25855,-152,-8240,624,-49,38,11,-10764,0,2,-2,0,37473,284,27,79,0,0,0,0,0,0,0,0,-32315,0,0,0,4041,0,34639,0
25865,-144,-8278,636,-47,31,7,-10765,-12,-1,0,0,37476,280,27,79,0,0,0,0,0,0,0,0,-32315,0,0,0,4044,0,34659,0
25875,-178,-8252,634,-53,28,8,-10762,-1,3,0,0,37478,293,27,79,0,0,0,0,0,0,0,0,-32315,0,0,0,4042,0,34679,0
25885,-166,-8286,648,-50,31,7,-10763,-5,-1,0,0,37474,291,27,79,0,0,0,0,0,0,0,0,-32316,0,0,0,4044,0,34699,0
25895,-162,-8274,648,-50,35,11,-10764,0,4,0,0,37481,295,27,79,0,0,0,0,0,0,0,0,-32315,0,0,0,4042,0,34719,0
25905,-130,-8284,642,-56,39,14,-10764,9,0,0,0,37483,292,27,79,0,0,0,0,0,0,0,0,-32315,0,0,0,4043,0,34739,0
25915,-134,-8270,674,-60,42,10,-10762,-5,2,-1,0,37483,283,27,79,0,0,0,0,0,0,0,0,-32315,0,0,0,4043,0,34759,0
25925,-152,-8284,632,-55,33,17,-10764,-1,-1,1,0,37473,290,27,79,0,0,0,0,0,0,0,0,-32315,0,0,0,4043,0,34779,0
25935,-158,-8272,638,-52,32,15,-10763,2,0,0,0,37468,292,26,79,0,0,0,0,0,0,0,0,-32315,0,0,0,4042,0,34799,0
25945,-172,-8280,630,-50,33,12,-10763,4,5,0,0,37465,294,26,79,0,0,0,0,0,0,0,0,-32316,0,0,0,4044,0,34819,0
25955,-140,-8252,626,-61,40,12,-10763,0,5,0,0,37464,290,27,79,0,0,0,0,0,0,0,0,-32315,0,0,0,4043,0,34839,0
25965,-132,-8284,632,-57,36,12,-10764,-1,-2,2,0,37465,295,26,79,0,0,0,0,0,0,0,0,-32315,0,0,0,4043,0,34859,0
25975,-140,-8284,594,-55,36,13,-10763,7,5,0,0,37464,297,27,79,0,0,0,0,0,0,0,0,-32315,0,0,0,4043,0,34879,0
25985,-150,-8266,612,-49,29,9,-10764,7,0,0,0,37463,297,26,79,0,0,0,0,0,0,0,0,-32315,0,0,0,4043,0,34899,0
25995,-164,-8272,604,-56,31,14,-10765,-9,0,0,0,37464,297,26,79,0,0,0,0,0,0,0,0,-32315,0,0,0,4044,0,34919,0
26005,-124,-8270,640,-54,27,10,-10764,2,-3,0,0,37464,299,27,79,0,0,0,0,0,0,0,0,-32315,0,0,0,4043,0,34939,0
26015,-142,-8262,674,-58,36,13,-10765,-4,2,0,0,37478,303,27,79,0,0,0,0,0,0,0,0,-32315,0,0,0,4043,0,34959,0
26025,-144,-8286,652,-56,31,13,-10763,0,-2,0,0,37485,296,27,79,0,0,0,0,0,0,0,0,-32315,0,0,0,4044,0,34979,0
26035,-140,-8244,648,-56,35,15,-10766,-9,-5,0,0,37490,295,27,79,0,0,0,0,0,0,0,0,-32315,0,0,0,4043,0,34999,0
26045,-142,-8256,634,-62,36,12,-10764,-2,-1,0,0,37482,297,27,79,0,0,0,0,0,0,0,0,-32315,0,0,0,4044,0,35019,0
26055,-134,-8262,616,-57,39,11,-10765,5,-3,0,0,37470,297,27,79,0,0,0,0,0,0,0,0,-32315,0,0,0,4044,0,35039,0
26065,-136,-8282,644,-58,31,13,-10764,1,7,1,0,37461,287,27,79,0,0,0,0,0,0,0,0,-32315,0,0,0,4044,0,35059,0
26075,-150,-8264,640,-54,37,17,-10764,-3,3,0,0,37459,286,27,79,0,0,0,0,0,0,0,0,-32315,0,0,0,4045,0,35079,0
26085,-152,-8274,618,-58,35,17,-10764,5,1,0,0,37460,291,27,79,0,0,0,0,0,0,0,0,-32315,0,0,0,4045,0,35099,0
26095,-172,-8252,634,-56,35,15,-10764,1,0,0,0,37461,297,27,79,0,0,0,0,0,0,0,0,-32315,0,0,0,4044,0,35119,0
26105,-140,-8252,626,-58,37,18,-10764,-2,3,1,0,37460,293,27,79,0,0,0,0,0,0,0,0,-32315,0,0,0,4044,0,35139,0
26115,-150,-8318,640,-55,34,14,-10765,-4,1,0,0,37463,296,27,79,0,0,0,0,0,0,0,0,-32315,0,0,0,4044,0,35159,0
26125,-158,-8274,638,-60,41,19,-10766,-6,-6,0,0,37461,295,27,79,0,0,0,0,0,0,0,0,-32315,0,0,0,4044,0,35179,0
26135,-166,-8260,650,-51,39,14,-10765,0,-5,0,0,37463,292,27,79,0,0,0,0,0,0,0,0,-32315,0,0,0,4045,0,35199,0
26145,-140,-8278,640,-56,38,15,-10765,-7,1,0,0,37459,289,27,79,0,0,0,0,0,0,0,0,-32315,0,0,0,4044,0,35219,0
26155,-166,-8264,618,-57,34,12,-10765,-6,-1,1,0,37461,295,27,79,0,0,0,0,0,0,0,0,-32315,0,0,0,4045,0,35239,0
26165,-136,-8242,608,-55,38,15,-10765,-4,3,0,0,37460,299,27,79,0,0,0,0,0,0,0,0,-32315,0,0,0,4044,0,35259,0
26175,-144,-8260,622,-52,30,13,-10765,0,-4,0,0,37457,295,27,79,0,0,0,0,0,0,0,0,-32315,0,0,0,4045,0,35279,0
26185,-134,-8288,644,-53,36,12,-10765,3,-4,0,0,37457,298,26,79,0,0,0,0,0,0,0,0,-32315,0,0,0,4044,0,35299,0
26195,-134,-8274,632,-54,36,11,-10763,10,5,0,0,37457,303,27,79,0,0,0,0,0,0,0,0,-32315,0,0,0,4044,0,35319,0
26205,-128,-8276,630,-53,39,16,-10765,-2,-1,2,0,37459,298,26,79,0,0,0,0,0,0,0,0,-32315,0,0,0,4044,0,35339,0
26215,-120,-8298,634,-52,39,12,-10765,0,-1,-3,0,37464,287,26,79,0,0,0,0,0,0,0,0,-32315,0,0,0,4044,0,35359,0
26225,-150,-8268,656,-48,40,14,-10763,6,-1,0,0,37462,287,27,79,0,0,0,0,0,0,0,0,-32315,0,0,0,4044,0,35379,0
26235,-146,-8288,634,-45,34,14,-10766,0,-1,0,0,37461,292,27,79,0,0,0,0,0,0,0,0,-32315,0,0,0,4044,0,35399,0
26245,-132,-8272,626,-50,40,14,-10765,2,0,-1,0,37462,290,27,79,0,0,0,0,0,0,0,0,-32315,0,0,0,4044,0,35419,0
26255,-154,-8254,628,-54,40,14,-10763,8,0,0,0,37456,284,27,79,0,0,0,0,0,0,0,0,-32315,0,0,0,4044,0,35439,0
26265,-144,-8298,630,-47,42,15,-10765,0,-3,0,0,37455,289,27,79,0,0,0,0,0,0,0,0,-32315,0,0,0,4045,0,35459,0
26275,-150,-8288,612,-53,37,12,-10764,0,-1,1,0,37454,290,27,79,0,0,0,0,0,0,0,0,-32315,0,0,0,4045,0,35479,0
26285,-138,-8268,630,-48,29,13,-10764,-3,-3,-1,0,37454,291,27,79,0,0,0,0,0,0,0,0,-32315,0,0,0,4043,0,35499,0
26295,-210,-8254,630,-46,26,7,-10765,-4,-1,2,0,37454,288,27,79,0,0,0,0,0,0,0,0,-32315,0,0,0,4044,0,35519,0
26305,-246,-8258,620,-47,20,-3,-10765,0,10,2,0,37455,289,27,79,0,0,0,0,0,0,0,0,-32315,0,0,0,4045,0,35540,0
26315,-208,-8262,638,-46,31,-11,-10765,-3,-1,2,0,37455,292,27,79,0,0,0,0,0,0,0,0,-32315,0,0,0,4045,0,35560,0
26325,-154,-8278,632,-43,32,-15,-10766,-7,2,4,0,37456,296,27,79,0,0,0,0,0,0,0,0,-32315,0,0,0,4044,0,35580,0
26335,-86,-8242,612,-43,35,-11,-10766,0,-4,5,0,37456,291,27,79,0,0,0,0,0,0,0,0,-32315,0,0,0,4044,0,35600,0
26345,-84,-8250,612,-39,24,-6,-10767,-4,-2,2,0,37457,288,27,79,0,0,0,0,0,0,0,0,-32315,0,0,0,4044,0,35620,0
26355,-90,-8230,598,-33,26,-5,-10769,-5,-1,3,0,37452,287,27,79,0,0,0,0,0,0,0,0,-32315,0,0,0,4043,0,35640,0
26365,-124,-8282,622,-27,-2,8,-10768,0,0,2,0,37452,283,27,79,0,0,0,0,0,0,0,0,-32315,0,0,0,4044,0,35660,0
26375,-112,-8234,588,-29,18,10,-10767,0,0,1,0,37450,293,27,79,0,0,0,0,0,0,0,0,-32315,0,0,0,4044,0,35680,0
26385,-224,-8250,694,-26,27,-2,-10768,2,2,1,0,37453,289,27,79,0,0,0,0,0,0,0,0,-32315,0,0,0,4045,0,35700,0
26395,-224,-8258,674,-35,31,-4,-10767,1,1,2,0,37450,286,27,79,0,0,0,0,0,0,0,0,-32315,0,0,0,4045,0,35720,0
26405,-136,-8284,668,-45,39,-7,-10767,5,-1,2,0,37450,286,26,79,0,0,0,0,0,0,0,0,-32315,0,0,0,4044,0,35740,0
26415,-114,-8260,664,-40,44,-9,-10769,-7,7,4,0,37452,288,26,79,0,0,0,0,0,0,0,0,-32315,0,0,0,4044,0,35760,0
26425,-86,-8264,656,-42,35,-3,-10771,-9,-7,1,0,37460,297,27,79,0,0,0,0,0,0,0,0,-32315,0,0,0,4044,0,35780,0
26435,-98,-8288,658,-46,39,-2,-10770,-5,4,1,0,37461,298,27,79,0,0,0,0,0,0,0,0,-32315,0,0,0,4044,0,35800,0
26445,-96,-8270,628,-43,42,6,-10769,4,2,0,0,37459,295,27,79,0,0,0,0,0,0,0,0,-32315,0,0,0,4044,0,35820,0
26455,-76,-8292,616,-47,37,12,-10770,0,3,0,0,37453,292,27,79,0,0,0,0,0,0,0,0,-32315,0,0,0,4043,0,35840,0
26465,-72,-8260,654,-52,36,19,-10769,1,4,-1,0,37454,289,27,79,0,0,0,0,0,0,0,0,-32315,0,0,0,4044,0,35860,0
26475,-84,-8258,676,-49,35,23,-10768,6,2,0,0,37455,292,27,79,0,0,0,0,0,0,0,0,-32315,0,0,0,4044,0,35880,0
26485,-106,-8288,664,-50,40,29,-10769,-1,-1,-1,0,37455,297,27,79,0,0,0,0,0,0,0,0,-32314,0,0,0,4044,0,35900,0
26495,-110,-8274,648,-50,38,35,-10769,-1,-3,-1,0,37455,298,27,79,0,0,0,0,0,0,0,0,-32315,0,0,0,4045,0,35920,0
26505,-150,-8228,622,-55,40,35,-10769,0,-1,0,0,37456,290,27,79,0,0,0,0,0,0,0,0,-32315,0,0,0,4044,0,35940,0
26515,-158,-8238,642,-58,37,37,-10769,2,4,-2,0,37460,285,27,79,0,0,0,0,0,0,0,0,-32315,0,0,0,4045,0,35960,0
26525,-140,-8276,638,-56,47,38,-10768,1,3,-3,0,37470,276,27,79,0,0,0,0,0,0,0,0,-32315,0,0,0,4044,0,35980,0
26535,-182,-8206,514,-55,39,30,-10768,1,1,-1,0,37471,283,27,79,0,0,0,0,0,0,0,0,-32315,0,0,0,4045,0,36000,0
26545,-146,-8266,632,-44,42,33,-10769,0,4,-2,0,37470,284,26,79,0,0,0,0,0,0,0,0,-32315,0,0,0,4044,0,36020,0
26555,-142,-8314,678,-42,45,30,-10767,3,1,-1,0,37469,282,26,79,0,0,0,0,0,0,0,0,-32315,0,0,0,4044,0,36040,0
26565,-172,-8284,638,-43,38,28,-10768,-3,-2,-1,0,37465,281,27,79,0,0,0,0,0,0,0,0,-32315,0,0,0,4045,0,36060,0
26575,-146,-8268,658,-44,42,23,-10766,3,-1,0,0,37467,286,27,79,0,0,0,0,0,0,0,0,-32315,0,0,0,4044,0,36080,0
26585,-128,-8268,626,-47,40,26,-10767,-3,-4,-2,0,37464,292,27,79,0,0,0,0,0,0,0,0,-32315,0,0,0,4044,0,36100,0
26595,-146,-8284,678,-48,39,25,-10766,10,0,-2,0,37463,294,27,79,0,0,0,0,0,0,0,0,-32315,0,0,0,4045,0,36120,0
26605,-126,-8292,664,-48,39,29,-10767,2,0,-1,0,37462,297,26,79,0,0,0,0,0,0,0,0,-32315,0,0,0,4045,0,36140,0
26615,-124,-8274,620,-48,39,29,-10767,-7,-1,-2,0,37462,297,27,79,0,0,0,0,0,0,0,0,-32315,0,0,0,4045,0,36160,0
26625,-170,-8268,632,-45,46,29,-10767,2,4,-4,0,37461,301,27,79,0,0,0,0,0,0,0,0,-32315,0,0,0,4045,0,36180,0
26635,-162,-8278,598,-48,50,28,-10765,4,-3,-2,0,37461,298,27,79,0,0,0,0,0,0,0,0,-32315,0,0,0,4045,0,36201,0
26645,-152,-8292,634,-45,49,28,-10766,-1,0,-5,0,37465,304,27,79,0,0,0,0,0,0,0,0,-32315,0,0,0,4045,0,36221,0
26655,-138,-8282,662,-44,48,25,-10765,0,3,-2,0,37465,297,27,79,0,0,0,0,0,0,0,0,-32315,0,0,0,4045,0,36241,0
26665,-158,-8272,648,-46,46,28,-10767,-3,4,-2,0,37462,291,27,79,0,0,0,0,0,0,0,0,-32315,0,0,0,4045,0,36261,0
26675,-204,-8296,660,-47,42,21,-10765,-1,-2,-1,0,37461,293,27,79,0,0,0,0,0,0,0,0,-32315,0,0,0,4045,0,36281,0
26685,-176,-8256,624,-41,50,17,-10765,0,-2,-1,0,37462,297,27,79,0,0,0,0,0,0,0,0,-32315,0,0,0,4045,0,36301,0
26695,-202,-8270,610,-41,46,13,-10764,3,1,0,0,37461,292,26,79,0,0,0,0,0,0,0,0,-32315,0,0,0,4045,0,36321,0
26705,-240,-8268,622,-42,37,4,-10765,0,1,0,0,37461,294,27,79,0,0,0,0,0,0,0,0,-32315,0,0,0,4045,0,36341,0
26715,-228,-8262,640,-39,42,1,-10765,-5,-4,0,0,37462,296,27,79,0,0,0,0,0,0,0,0,-32315,0,0,0,4045,0,36361,0
26725,-190,-8268,654,-37,42,-10,-10765,-6,-7,1,0,37464,291,27,79,0,0,0,0,0,0,0,0,-32315,0,0,0,4045,0,36381,0
26735,-160,-8288,630,-39,40,-9,-10766,8,5,3,0,37467,285,27,79,0,0,0,0,0,0,0,0,-32315,0,0,0,4046,0,36401,0
26745,-110,-8278,652,-36,29,-13,-10765,9,-4,1,0,37470,281,26,79,0,0,0,0,0,0,0,0,-32315,0,0,0,4045,0,36421,0
26755,-100,-8250,650,-39,32,-1,-10766,-1,0,1,0,37468,284,26,79,0,0,0,0,0,0,0,0,-32315,0,0,0,4045,0,36442,0
26765,-124,-8266,672,-36,35,-3,-10767,-2,1,2,0,37469,292,27,79,0,0,0,0,0,0,0,0,-32315,0,0,0,4044,0,36462,0
26775,-128,-8270,688,-40,42,-2,-10766,7,1,1,0,37464,292,27,79,0,0,0,0,0,0,0,0,-32315,0,0,0,4044,0,36482,0
26785,-94,-8256,692,-49,39,4,-10766,3,8,0,0,37466,297,27,79,0,0,0,0,0,0,0,0,-32314,0,0,0,4044,0,36502,0
26795,-102,-8288,696,-48,35,5,-10768,-7,2,0,0,37466,293,26,79,0,0,0,0,0,0,0,0,-32314,0,0,0,4044,0,36522,0
26805,-150,-8274,642,-47,31,9,-10767,1,4,0,0,37467,294,26,79,0,0,0,0,0,0,0,0,-32315,0,0,0,4044,0,36542,0
26815,-162,-8250,642,-44,33,8,-10767,-8,-5,0,0,37468,292,27,79,0,0,0,0,0,0,0,0,-32315,0,0,0,4045,0,36562,0
26825,-200,-8248,610,-49,33,-1,-10767,-4,0,0,0,37469,291,27,79,0,0,0,0,0,0,0,0,-32315,0,0,0,4044,0,36582,0
26835,-196,-8250,634,-40,30,-4,-10769,-3,5,3,0,37467,280,27,79,0,0,0,0,0,0,0,0,-32314,0,0,0,4045,0,36602,0
26845,-160,-8256,632,-39,33,-12,-10768,1,4,2,0,37476,282,27,79,0,0,0,0,0,0,0,0,-32315,0,0,0,4044,0,36622,0
26855,-128,-8288,650,-45,28,-9,-10768,-4,0,0,0,37477,286,27,79,0,0,0,0,0,0,0,0,-32315,0,0,0,4044,0,36642,0
26865,-92,-8252,666,-47,32,-7,-10770,-6,-5,2,0,37478,290,27,79,0,0,0,0,0,0,0,0,-32315,0,0,0,4044,0,36662,0
26875,-58,-8284,670,-47,33,-2,-10769,7,4,3,0,37471,290,27,79,0,0,0,0,0,0,0,0,-32315,0,0,0,4044,0,36682,0
26885,-38,-8284,664,-50,32,10,-10768,3,4,1,0,37471,287,27,79,0,0,0,0,0,0,0,0,-32315,0,0,0,4043,0,36702,0
26895,-94,-8276,676,-52,37,15,-10769,4,0,0,0,37469,292,27,79,0,0,0,0,0,0,0,0,-32315,0,0,0,4044,0,36723,0
26905,-106,-8300,664,-52,40,18,-10768,4,3,-1,0,37467,295,27,79,0,0,0,0,0,0,0,0,-32315,0,0,0,4045,0,36743,0
26915,-128,-8258,688,-58,42,17,-10769,3,1,0,0,37466,285,27,79,0,0,0,0,0,0,0,0,-32315,0,0,0,4044,0,36763,0
26925,-136,-8262,660,-62,40,13,-10767,6,5,1,0,37469,285,27,79,0,0,0,0,0,0,0,0,-32315,0,0,0,4044,0,36783,0
26935,-134,-8260,638,-52,42,14,-10768,3,-1,0,0,37469,288,27,79,0,0,0,0,0,0,0,0,-32315,0,0,0,4045,0,36803,0
26945,-136,-8278,616,-55,39,15,-10770,-6,-3,0,0,37472,291,27,79,0,0,0,0,0,0,0,0,-32316,0,0,0,4044,0,36823,0
26955,-154,-8280,618,-59,35,13,-10768,-3,-4,0,0,37470,287,27,79,0,0,0,0,0,0,0,0,-32314,0,0,0,4045,0,36843,0
26965,-134,-8270,666,-56,40,11,-10769,1,2,0,0,37468,286,27,79,0,0,0,0,0,0,0,0,-32315,0,0,0,4045,0,36863,0
26975,-148,-8262,634,-56,40,9,-10770,-7,3,1,0,37464,290,27,79,0,0,0,0,0,0,0,0,-32315,0,0,0,4043,0,36883,0
26985,-134,-8288,648,-53,36,11,-10769,1,-4,0,0,37460,294,27,79,0,0,0,0,0,0,0,0,-32315,0,0,0,4044,0,36903,0
26995,-134,-8276,684,-50,34,10,-10768,1,1,0,0,37459,289,26,79,0,0,0,0,0,0,0,0,-32315,0,0,0,4044,0,36924,0
27005,-110,-8280,642,-57,41,9,-10769,-8,-3,1,0,37457,288,27,79,0,0,0,0,0,0,0,0,-32315,0,0,0,4044,0,36944,0
27015,-126,-8282,640,-55,37,15,-10769,1,-3,0,0,37460,291,27,79,0,0,0,0,0,0,0,0,-32315,0,0,0,4044,0,36964,0
27025,-100,-8256,676,-52,37,18,-10770,0,3,0,0,37460,291,27,79,0,0,0,0,0,0,0,0,-32315,0,0,0,4044,0,36984,0
27035,-118,-8274,650,-57,44,21,-10767,8,3,0,0,37456,290,27,79,0,0,0,0,0,0,0,0,-32315,0,0,0,4045,0,37004,0
27045,-134,-8278,648,-55,38,23,-10769,-5,-3,-1,0,37463,288,27,79,0,0,0,0,0,0,0,0,-32315,0,0,0,4044,0,37024,0
27055,-128,-8256,656,-60,46,25,-10767,7,3,-2,0,37467,292,27,79,0,0,0,0,0,0,0,0,-32315,0,0,0,4044,0,37044,0
27065,-130,-8278,658,-59,41,26,-10768,-5,2,-1,0,37471,291,27,79,0,0,0,0,0,0,0,0,-32315,0,0,0,4045,0,37064,0
27075,-130,-8260,652,-52,41,25,-10769,0,-3,-1,0,37462,295,27,79,0,0,0,0,0,0,0,0,-32315,0,0,0,4045,0,37084,0
27085,-124,-8232,650,-58,44,26,-10767,0,5,-1,0,37459,296,26,79,0,0,0,0,0,0,0,0,-32315,0,0,0,4045,0,37104,0
27095,-130,-8284,626,-59,43,23,-10768,3,0,-1,0,37459,295,26,79,0,0,0,0,0,0,0,0,-32315,0,0,0,4044,0,37124,0
27105,-108,-8278,632,-57,44,18,-10767,8,3,0,0,37458,296,27,79,0,0,0,0,0,0,0,0,-32315,0,0,0,4045,0,37144,0
27115,-154,-8282,658,-60,44,26,-10768,1,0,-2,0,37460,302,27,79,0,0,0,0,0,0,0,0,-32315,0,0,0,4045,0,37164,0
27125,-154,-8280,650,-56,38,21,-10768,-3,0,-1,0,37456,300,27,79,0,0,0,0,0,0,0,0,-32315,0,0,0,4045,0,37184,0
27135,-114,-8260,672,-55,42,22,-10767,-3,-1,0,0,37455,291,27,79,0,0,0,0,0,0,0,0,-32315,0,0,0,4045,0,37204,0
27145,-144,-8290,626,-54,42,20,-10767,-1,-4,0,0,37463,292,27,79,0,0,0,0,0,0,0,0,-32315,0,0,0,4045,0,37224,0
27155,-184,-8282,636,-56,36,18,-10767,2,-1,-1,0,37464,284,27,79,0,0,0,0,0,0,0,0,-32315,0,0,0,4045,0,37244,0
27165,-140,-8294,668,-60,46,19,-10766,0,2,0,0,37466,286,27,79,0,0,0,0,0,0,0,0,-32315,0,0,0,4045,0,37264,0
27175,-124,-8236,628,-57,40,20,-10767,3,-3,-1,0,37460,277,27,79,0,0,0,0,0,0,0,0,-32315,0,0,0,4045,0,37284,0
27185,-144,-8226,598,-54,41,17,-10766,2,5,0,0,37458,272,26,79,0,0,0,0,0,0,0,0,-32315,0,0,0,4045,0,37304,0
27195,-188,-8268,630,-51,36,12,-10767,-5,-2,0,0,37460,271,26,79,0,0,0,0,0,0,0,0,-32315,0,0,0,4045,0,37324,0
27205,-178,-8270,648,-53,37,14,-10767,0,-2,0,0,37461,279,27,79,0,0,0,0,0,0,0,0,-32315,0,0,0,4045,0,37344,0
27215,-162,-8266,650,-53,39,6,-10766,4,-3,0,0,37462,282,27,79,0,0,0,0,0,0,0,0,-32315,0,0,0,4045,0,37364,0
27225,-102,-8266,658,-52,44,8,-10766,-1,0,0,0,37462,287,27,79,0,0,0,0,0,0,0,0,-32315,0,0,0,4045,0,37384,0
27235,-106,-8286,622,-51,42,8,-10767,-2,3,0,0,37462,292,27,79,0,0,0,0,0,0,0,0,-32315,0,0,0,4045,0,37404,0
27245,-82,-8286,628,-50,38,8,-10767,-1,-3,0,0,37464,292,27,79,0,0,0,0,0,0,0,0,-32315,0,0,0,4046,0,37424,0
27255,-132,-8292,630,-49,44,14,-10766,0,-6,0,0,37460,286,27,79,0,0,0,0,0,0,0,0,-32315,0,0,0,4045,0,37444,0
27265,-132,-8268,648,-50,38,13,-10767,-4,0,0,0,37458,292,27,79,0,0,0,0,0,0,0,0,-32315,0,0,0,4045,0,37464,0
27275,-154,-8256,648,-51,39,18,-10766,5,3,0,0,37454,294,27,79,0,0,0,0,0,0,0,0,-32315,0,0,0,4047,0,37484,0
27285,-118,-8276,652,-55,36,14,-10767,-3,0,-1,0,37454,297,27,79,0,0,0,0,0,0,0,0,-32315,0,0,0,4046,0,37504,0
27295,-118,-8294,684,-52,44,18,-10765,1,-2,0,0,37465,293,27,79,0,0,0,0,0,0,0,0,-32315,0,0,0,4045,0,37524,0
27305,-140,-8250,620,-55,37,18,-10766,-5,-3,0,0,37467,288,27,79,0,0,0,0,0,0,0,0,-32315,0,0,0,4045,0,37545,0
27315,-172,-8298,646,-55,41,11,-10767,-2,8,0,0,37468,290,27,79,0,0,0,0,0,0,0,0,-32315,0,0,0,4045,0,37565,0
27325,-172,-8254,630,-54,41,6,-10769,-1,6,0,0,37458,297,27,79,0,0,0,0,0,0,0,0,-32316,0,0,0,4045,0,37585,0
27335,-176,-8250,640,-54,35,3,-10768,-5,-6,0,0,37452,295,27,79,0,0,0,0,0,0,0,0,-32315,0,0,0,4045,0,37605,0
27345,-120,-8278,636,-57,34,-2,-10768,5,-1,0,0,37460,298,27,79,0,0,0,0,0,0,0,0,-32315,0,0,0,4045,0,37625,0
27355,-132,-8292,610,-51,40,3,-10768,-5,-1,0,0,37461,285,27,79,0,0,0,0,0,0,0,0,-32315,0,0,0,4045,0,37645,0
27365,-102,-8240,636,-53,44,3,-10767,5,-4,0,0,37461,277,26,79,0,0,0,0,0,0,0,0,-32315,0,0,0,4045,0,37665,0
27375,-90,-8278,626,-50,41,11,-10766,5,-5,0,0,37460,280,26,79,0,0,0,0,0,0,0,0,-32315,0,0,0,4045,0,37685,0
27385,-110,-8286,642,-55,36,14,-10766,5,-2,-1,0,37454,280,26,79,0,0,0,0,0,0,0,0,-32315,0,0,0,4046,0,37705,0
27395,-110,-8248,662,-61,44,20,-10767,3,1,0,0,37454,278,26,79,0,0,0,0,0,0,0,0,-32315,0,0,0,4045,0,37725,0
27405,-124,-8272,672,-53,35,18,-10766,4,-1,2,0,37455,283,27,79,0,0,0,0,0,0,0,0,-32315,0,0,0,4045,0,37745,0
27415,-132,-8284,652,-63,37,16,-10768,-7,2,0,0,37453,280,27,79,0,0,0,0,0,0,0,0,-32314,0,0,0,4045,0,37765,0
27425,-126,-8244,642,-62,44,14,-10768,0,0,1,0,37452,289,27,79,0,0,0,0,0,0,0,0,-32315,0,0,0,4046,0,37785,0
27435,-136,-8288,622,-56,40,11,-10765,7,-6,0,0,37453,288,27,79,0,0,0,0,0,0,0,0,-32315,0,0,0,4045,0,37805,0
27445,-140,-8276,630,-59,41,13,-10767,0,-2,0,0,37458,295,27,79,0,0,0,0,0,0,0,0,-32315,0,0,0,4045,0,37825,0
27455,-148,-8252,644,-54,42,14,-10768,-3,-1,0,0,37459,293,27,79,0,0,0,0,0,0,0,0,-32315,0,0,0,4045,0,37845,0
27465,-108,-8280,644,-51,45,15,-10768,2,0,0,0,37460,295,27,79,0,0,0,0,0,0,0,0,-32315,0,0,0,4045,0,37865,0
27475,-96,-8286,614,-51,42,13,-10767,0,2,-1,0,37459,291,27,79,0,0,0,0,0,0,0,0,-32315,0,0,0,4045,0,37885,0
27485,-138,-8242,630,-52,38,13,-10769,-2,4,0,0,37455,287,27,79,0,0,0,0,0,0,0,0,-32315,0,0,0,4045,0,37905,0
27495,-138,-8280,664,-57,42,18,-10768,0,2,0,0,37455,290,27,79,0,0,0,0,0,0,0,0,-32315,0,0,0,4045,0,37925,0
27505,-126,-8258,668,-57,44,19,-10768,-5,-6,0,0,37454,292,27,79,0,0,0,0,0,0,0,0,-32315,0,0,0,4045,0,37945,0
27515,-98,-8260,636,-63,41,22,-10768,1,-3,-1,0,37457,289,27,79,0,0,0,0,0,0,0,0,-32315,0,0,0,4045,0,37965,0
27525,-118,-8266,618,-54,42,18,-10767,1,5,0,0,37461,291,27,79,0,0,0,0,0,0,0,0,-32315,0,0,0,4045,0,37985,0
27535,-128,-8268,630,-59,42,21,-10767,0,2,0,0,37462,288,27,79,0,0,0,0,0,0,0,0,-32315,0,0,0,4045,0,38005,0
27545,-144,-8268,622,-56,42,29,-10766,3,2,0,0,37461,297,27,79,0,0,0,0,0,0,0,0,-32315,0,0,0,4045,0,38025,0
27555,-134,-8258,608,-56,43,28,-10768,-3,0,0,0,37460,294,27,79,0,0,0,0,0,0,0,0,-32315,0,0,0,4045,0,38045,0
27565,-146,-8270,616,-57,44,24,-10767,2,-5,-1,0,37462,294,27,79,0,0,0,0,0,0,0,0,-32315,0,0,0,4045,0,38065,0
27575,-138,-8286,630,-51,40,29,-10767,-4,-4,0,0,37467,294,27,79,0,0,0,0,0,0,0,0,-32315,0,0,0,4045,0,38085,0
27585,-130,-8260,636,-51,49,24,-10767,-10,1,-1,0,37462,288,27,79,0,0,0,0,0,0,0,0,-32315,0,0,0,4045,0,38105,0
27595,-116,-8268,636,-50,44,22,-10766,4,1,0,0,37460,292,27,79,0,0,0,0,0,0,0,0,-32315,0,0,0,4045,0,38125,0
27605,-116,-8280,634,-52,45,27,-10767,-7,2,-1,0,37461,292,27,79,0,0,0,0,0,0,0,0,-32315,0,0,0,4045,0,38145,0
27615,-152,-8264,656,-52,42,26,-10767,1,4,0,0,37463,286,27,79,0,0,0,0,0,0,0,0,-32315,0,0,0,4045,0,38165,0
27625,-140,-8306,630,-52,46,24,-10766,1,-3,-1,0,37461,284,27,79,0,0,0,0,0,0,0,0,-32315,0,0,0,4046,0,38185,0
27635,-144,-8266,662,-56,43,22,-10766,0,-1,-2,0,37458,291,27,79,0,0,0,0,0,0,0,0,-32315,0,0,0,4045,0,38205,0
27645,-140,-8228,634,-55,43,29,-10765,0,-4,0,0,37457,290,27,79,0,0,0,0,0,0,0,0,-32315,0,0,0,4044,0,38225,0
27655,-154,-8286,628,-52,39,29,-10766,4,1,-2,0,37466,292,27,79,0,0,0,0,0,0,0,0,-32315,0,0,0,4045,0,38245,0
27665,-166,-8264,630,-45,39,24,-10766,1,1,0,0,37467,282,27,79,0,0,0,0,0,0,0,0,-32315,0,0,0,4045,0,38265,0
27675,-160,-8236,630,-47,41,22,-10766,2,5,-1,0,37467,283,27,79,0,0,0,0,0,0,0,0,-32315,0,0,0,4046,0,38285,0
27685,-154,-8282,654,-44,40,16,-10765,0,-5,0,0,37461,279,27,79,0,0,0,0,0,0,0,0,-32315,0,0,0,4045,0,38305,0
27695,-134,-8276,662,-47,50,18,-10767,-2,0,-1,0,37463,287,27,79,0,0,0,0,0,0,0,0,-32315,0,0,0,4045,0,38325,0
27705,-82,-8278,674,-50,45,19,-10766,-3,-1,-1,0,37465,290,27,79,0,0,0,0,0,0,0,0,-32315,0,0,0,4045,0,38345,0
27715,-78,-8284,634,-50,47,24,-10764,8,2,0,0,37466,294,27,79,0,0,0,0,0,0,0,0,-32315,0,0,0,4045,0,38365,0
27725,-140,-8282,662,-53,52,30,-10766,-9,3,-1,0,37464,291,27,79,0,0,0,0,0,0,0,0,-32315,0,0,0,4045,0,38385,0
27735,-116,-8266,622,-52,55,32,-10766,-9,1,-2,0,37465,283,27,79,0,0,0,0,0,0,0,0,-32315,0,0,0,4045,0,38405,0
27745,-148,-8284,632,-51,41,31,-10765,5,6,-3,0,37466,287,27,79,0,0,0,0,0,0,0,0,-32315,0,0,0,4045,0,38425,0
27755,-156,-8280,638,-38,46,32,-10764,-5,-3,-1,0,37471,286,27,79,0,0,0,0,0,0,0,0,-32315,0,0,0,4046,0,38445,0
27765,-164,-8252,614,-48,46,28,-10764,0,1,-3,0,37470,290,27,79,0,0,0,0,0,0,0,0,-32315,0,0,0,4045,0,38465,0
27775,-146,-8282,646,-50,48,23,-10764,8,0,-1,0,37470,286,26,79,0,0,0,0,0,0,0,0,-32315,0,0,0,4045,0,38485,0
27785,-144,-8254,634,-54,48,24,-10764,-6,4,0,0,37467,286,26,79,0,0,0,0,0,0,0,0,-32315,0,0,0,4046,0,38505,0
27795,-132,-8254,638,-46,48,25,-10763,5,-1,0,0,37468,289,27,79,0,0,0,0,0,0,0,0,-32314,0,0,0,4045,0,38525,0
27805,-138,-8284,632,-46,49,27,-10764,-3,6,-1,0,37465,284,27,79,0,0,0,0,0,0,0,0,-32315,0,0,0,4045,0,38545,0
27815,-160,-8260,656,-44,52,27,-10762,5,-4,-3,0,37465,284,27,79,0,0,0,0,0,0,0,0,-32315,0,0,0,4046,0,38565,0
27825,-134,-8266,676,-45,55,27,-10764,0,-2,-1,0,37466,271,27,79,0,0,0,0,0,0,0,0,-32315,0,0,0,4044,0,38585,0
27835,-130,-8276,650,-52,59,26,-10761,-1,2,-2,0,37469,280,27,79,0,0,0,0,0,0,0,0,-32315,0,0,0,4045,0,38605,0
27845,-110,-8260,642,-51,60,31,-10762,0,-1,-4,0,37471,287,27,79,0,0,0,0,0,0,0,0,-32315,0,0,0,4045,0,38625,0
27855,-130,-8256,626,-51,59,25,-10762,-1,-2,-3,0,37472,296,27,79,0,0,0,0,0,0,0,0,-32315,0,0,0,4045,0,38645,0
27865,-164,-8290,584,-52,51,27,-10762,-1,2,-2,0,37483,283,27,79,0,0,0,0,0,0,0,0,-32315,0,0,0,4045,0,38665,0
27875,-182,-8274,594,-50,52,25,-10761,0,0,-1,0,37485,285,27,79,0,0,0,0,0,0,0,0,-32315,0,0,0,4045,0,38685,0
27885,-196,-8248,626,-47,56,21,-10761,3,-1,-1,0,37484,286,27,79,0,0,0,0,0,0,0,0,-32315,0,0,0,4046,0,38705,0
27895,-156,-8256,646,-48,53,16,-10761,6,4,-1,0,37474,296,27,79,0,0,0,0,0,0,0,0,-32315,0,0,0,4045,0,38725,0
27905,-148,-8250,640,-47,50,21,-10761,0,2,0,0,37472,300,27,79,0,0,0,0,0,0,0,0,-32315,0,0,0,4045,0,38745,0
27915,-130,-8274,638,-52,58,18,-10759,4,4,2,0,37470,299,27,79,0,0,0,0,0,0,0,0,-32315,0,0,0,4044,0,38765,0
27925,-120,-8292,654,-49,52,25,-10760,5,6,-2,0,37467,306,27,79,0,0,0,0,0,0,0,0,-32315,0,0,0,4044,0,38785,0
27935,-126,-8306,646,-50,52,21,-10761,3,1,0,0,37464,308,27,79,0,0,0,0,0,0,0,0,-32315,0,0,0,4045,0,38805,0
27945,-138,-8284,654,-52,59,21,-10760,0,0,-3,0,37461,307,27,79,0,0,0,0,0,0,0,0,-32316,0,0,0,4045,0,38825,0
27955,-156,-8262,658,-56,63,24,-10760,12,-1,0,0,37462,292,27,79,0,0,0,0,0,0,0,0,-32315,0,0,0,4044,0,38845,0
27965,-180,-8264,646,-52,65,23,-10760,3,1,1,0,37467,289,27,79,0,0,0,0,0,0,0,0,-32315,0,0,0,4043,0,38865,0
27975,-158,-8284,638,-58,67,21,-10761,2,-3,0,0,37466,290,27,79,0,0,0,0,0,0,0,0,-32315,0,0,0,4044,0,38885,0
27985,-168,-8276,594,-56,66,20,-10762,-10,-2,0,0,37463,300,27,79,0,0,0,0,0,0,0,0,-32315,0,0,0,4044,0,38905,0
27995,-182,-8274,618,-53,45,22,-10758,16,5,-1,0,37460,301,27,79,0,0,0,0,0,0,0,0,-32315,0,0,0,4044,0,38925,0
28005,-162,-8260,636,-50,40,16,-10761,-8,-1,0,0,37456,293,27,79,0,0,0,0,0,0,0,0,-32315,0,0,0,4044,0,38945,0
28015,-164,-8262,636,-49,41,17,-10760,-3,-5,0,0,37457,295,27,79,0,0,0,0,0,0,0,0,-32315,0,0,0,4043,0,38965,0
28025,-174,-8258,654,-52,38,14,-10759,3,4,0,0,37461,297,27,79,0,0,0,0,0,0,0,0,-32315,0,0,0,4044,0,38985,0
28035,-164,-8290,674,-55,46,16,-10760,2,2,1,0,37461,300,27,79,0,0,0,0,0,0,0,0,-32315,0,0,0,4044,0,39005,0
28045,-138,-8262,654,-53,48,20,-10760,0,0,-1,0,37461,303,27,79,0,0,0,0,0,0,0,0,-32315,0,0,0,4044,0,39025,0
28055,-114,-8290,636,-55,44,20,-10760,1,-1,0,0,37460,302,27,79,0,0,0,0,0,0,0,0,-32315,0,0,0,4043,0,39045,0
28065,-150,-8280,648,-50,33,20,-10759,8,1,0,0,37461,303,27,79,0,0,0,0,0,0,0,0,-32315,0,0,0,4044,0,39065,0
28075,-196,-8256,636,-46,31,22,-10760,-6,3,-2,0,37462,301,27,79,0,0,0,0,0,0,0,0,-32315,0,0,0,4044,0,39085,0
28085,-230,-8284,618,-45,34,15,-10759,9,2,0,0,37464,286,27,79,0,0,0,0,0,0,0,0,-32315,0,0,0,4043,0,39105,0
28095,-216,-8278,630,-39,33,13,-10759,-5,6,0,0,37463,284,27,79,0,0,0,0,0,0,0,0,-32314,0,0,0,4044,0,39125,0
28105,-162,-8286,632,-44,27,4,-10759,6,-2,1,0,37463,275,27,79,0,0,0,0,0,0,0,0,-32315,0,0,0,4044,0,39145,0
28115,-150,-8274,634,-42,27,6,-10761,-4,-3,0,0,37459,281,27,79,0,0,0,0,0,0,0,0,-32315,0,0,0,4043,0,39165,0
28125,-106,-8260,608,-39,23,8,-10761,-3,-5,1,0,37458,286,27,79,0,0,0,0,0,0,0,0,-32315,0,0,0,4043,0,39185,0
28135,-128,-8282,630,-43,19,8,-10761,0,-2,2,0,37455,298,27,79,0,0,0,0,0,0,0,0,-32315,0,0,0,4044,0,39205,0
28145,-124,-8276,654,-44,33,14,-10762,1,2,2,0,37454,294,26,79,0,0,0,0,0,0,0,0,-32315,0,0,0,4044,0,39225,0
28155,-122,-8272,688,-45,38,14,-10759,13,8,0,0,37458,289,27,79,0,0,0,0,0,0,0,0,-32315,0,0,0,4044,0,39245,0
28165,-94,-8258,686,-49,44,18,-10761,-1,1,1,0,37461,286,27,79,0,0,0,0,0,0,0,0,-32315,0,0,0,4044,0,39265,0
28175,-82,-8294,684,-51,47,19,-10760,0,6,0,0,37461,291,27,79,0,0,0,0,0,0,0,0,-32315,0,0,0,4044,0,39285,0
