state_time,accelx,accely,accelz,gyrox,gyroy,gyroz,mot_ang,mot_vel,mot_acc,mot_cur,mot_volt,batt_volt,batt_curr,temperature,status_mn,status_ex,status_re,genvar_0,genvar_1,genvar_2,genvar_3,genvar_4,genvar_5,genvar_6,genvar_7,genvar_8,genvar_9,ank_ang,ank_vel,sys_time,event flags
11254,80,-8212,1138,-48,36,7,6896,7,1,0,0,37156,291,26,79,0,0,0,0,0,0,0,0,-32316,0,0,0,3954,0,6808,0
11264,74,-8216,1138,-47,42,9,6896,5,4,1,0,37155,294,26,79,0,0,0,0,0,0,0,0,-32316,0,0,0,3953,0,11274,0
11274,72,-8232,1160,-49,41,11,6896,-1,2,0,0,37153,298,26,79,0,0,0,0,0,0,0,0,-32316,0,0,0,3954,0,11294,0
11284,76,-8222,1180,-50,47,15,6896,3,-1,0,0,37154,299,26,79,0,0,0,0,0,0,0,0,-32316,0,0,0,3954,0,11314,0
11294,104,-8216,1178,-51,40,13,6896,2,5,0,0,37156,296,26,79,0,0,0,0,0,0,0,0,-32316,0,0,0,3954,0,11334,0
11304,112,-8184,1194,-54,38,22,6896,1,-1,0,0,37161,299,26,79,0,0,0,0,0,0,0,0,-32316,0,0,0,3954,0,11354,0
11314,88,-8226,1174,-55,46,26,6895,-5,2,0,0,37160,298,26,79,0,0,0,0,0,0,0,0,-32316,0,0,0,3955,0,11374,0
11324,70,-8192,1154,-53,42,25,6897,2,7,2,0,37159,299,26,79,0,0,0,0,0,0,0,0,-32316,0,0,0,3954,0,11398,0
11334,62,-8198,1148,-51,50,27,6894,0,5,0,0,37155,302,26,79,0,0,0,0,0,0,0,0,-32316,0,0,0,3954,0,11418,0
11344,44,-8202,1132,-54,38,23,6896,6,-6,0,0,37155,308,26,79,0,0,0,0,0,0,0,0,-32316,0,0,0,3955,0,11438,0
11354,26,-8208,1154,-51,42,23,6896,-3,-2,0,0,37154,300,26,79,0,0,0,0,0,0,0,0,-32316,0,0,0,3953,0,11458,0
11364,48,-8208,1170,-50,46,15,6896,10,1,1,0,37154,296,26,79,0,0,0,0,0,0,0,0,-32316,0,0,0,3954,0,11478,0
11374,64,-8198,1172,-49,46,16,6897,2,1,0,0,37154,296,26,79,0,0,0,0,0,0,0,0,-32316,0,0,0,3954,0,11498,0
11384,84,-8212,1156,-49,42,20,6895,-11,-2,0,0,37153,302,26,79,0,0,0,0,0,0,0,0,-32316,0,0,0,3955,0,11518,0
11394,92,-8228,1142,-51,49,20,6896,1,-2,0,0,37154,299,26,79,0,0,0,0,0,0,0,0,-32316,0,0,0,3954,0,11538,0
11404,98,-8212,1158,-49,49,23,6895,2,0,0,0,37153,294,26,79,0,0,0,0,0,0,0,0,-32316,0,0,0,3954,0,11558,0
11414,78,-8194,1160,-50,41,24,6896,1,-1,0,0,37155,292,26,79,0,0,0,0,0,0,0,0,-32316,0,0,0,3954,0,11578,0
11424,64,-8222,1168,-51,35,16,6896,-1,2,1,0,37154,292,26,79,0,0,0,0,0,0,0,0,-32316,0,0,0,3955,0,11598,0
11434,58,-8208,1170,-56,38,19,6896,2,-1,1,0,37153,296,26,79,0,0,0,0,0,0,0,0,-32316,0,0,0,3955,0,11618,0
11444,54,-8208,1154,-53,39,17,6896,-1,0,2,0,37152,299,26,79,0,0,0,0,0,0,0,0,-32317,0,0,0,3954,0,11638,0
11454,50,-8202,1164,-55,45,16,6897,0,-5,0,0,37153,297,26,79,0,0,0,0,0,0,0,0,-32316,0,0,0,3955,0,11658,0
11464,64,-8196,1128,-50,42,13,6896,0,2,0,0,37153,298,26,79,0,0,0,0,0,0,0,0,-32316,0,0,0,3954,0,11678,0
11474,68,-8198,1126,-47,45,11,6896,3,-2,2,0,37153,290,26,79,0,0,0,0,0,0,0,0,-32316,0,0,0,3954,0,11699,0
11484,72,-8228,1138,-48,39,12,6896,5,6,0,0,37154,290,26,79,0,0,0,0,0,0,0,0,-32316,0,0,0,3954,0,11719,0
11494,70,-8206,1152,-48,41,15,6895,-5,5,0,0,37156,293,26,79,0,0,0,0,0,0,0,0,-32316,0,0,0,3955,0,11739,0
11504,84,-8178,1172,-50,41,15,6895,-3,2,0,0,37155,295,26,79,0,0,0,0,0,0,0,0,-32317,0,0,0,3955,0,11759,0
11514,36,-8216,1178,-48,44,12,6896,-6,1,1,0,37162,290,26,79,0,0,0,0,0,0,0,0,-32316,0,0,0,3954,0,11779,0
11524,90,-8184,1176,-52,44,12,6896,1,6,1,0,37162,292,26,79,0,0,0,0,0,0,0,0,-32317,0,0,0,3954,0,11799,0
11534,100,-8184,1166,-52,43,13,6896,3,0,0,0,37165,293,26,79,0,0,0,0,0,0,0,0,-32316,0,0,0,3955,0,11819,0
11544,58,-8216,1148,-54,42,15,6896,-2,10,0,0,37158,300,26,79,0,0,0,0,0,0,0,0,-32316,0,0,0,3954,0,11839,0
11554,46,-8220,1144,-55,43,14,6895,1,-1,1,0,37156,304,26,79,0,0,0,0,0,0,0,0,-32316,0,0,0,3954,0,11859,0
11564,74,-8198,1176,-58,44,23,6896,5,0,0,0,37156,302,26,79,0,0,0,0,0,0,0,0,-32316,0,0,0,3955,0,11879,0
11574,80,-8210,1194,-56,48,22,6896,2,2,2,0,37157,299,26,79,0,0,0,0,0,0,0,0,-32316,0,0,0,3955,0,11899,0
11584,94,-8202,1160,-56,43,18,6894,-8,0,1,0,37157,296,26,79,0,0,0,0,0,0,0,0,-32316,0,0,0,3955,0,11919,0
11594,78,-8188,1164,-56,45,21,6896,2,-3,1,0,37157,296,26,79,0,0,0,0,0,0,0,0,-32316,0,0,0,3954,0,11939,0
11604,88,-8226,1146,-55,41,19,6895,-5,-1,0,0,37157,298,26,79,0,0,0,0,0,0,0,0,-32316,0,0,0,3955,0,11959,0
11614,64,-8176,1150,-57,40,24,6894,-3,2,0,0,37160,297,26,79,0,0,0,0,0,0,0,0,-32316,0,0,0,3955,0,11979,0
11624,72,-8204,1144,-55,40,22,6896,0,0,3,0,37167,298,26,79,0,0,0,0,0,0,0,0,-32316,0,0,0,3955,0,11999,0
11634,50,-8200,1142,-49,39,20,6896,3,3,1,0,37164,298,26,79,0,0,0,0,0,0,0,0,-32317,0,0,0,3955,0,12019,0
11644,44,-8202,1158,-52,43,16,6897,5,-8,0,0,37163,302,26,79,0,0,0,0,0,0,0,0,-32316,0,0,0,3955,0,12039,0
11654,56,-8206,1182,-51,38,20,6896,7,-5,2,0,37159,301,26,79,0,0,0,0,0,0,0,0,-32316,0,0,0,3954,0,12059,0
11664,56,-8220,1152,-57,41,17,6896,4,-4,1,0,37161,309,26,79,0,0,0,0,0,0,0,0,-32316,0,0,0,3955,0,12079,0
11674,76,-8216,1150,-55,45,21,6895,0,-5,1,0,37158,302,26,79,0,0,0,0,0,0,0,0,-32316,0,0,0,3955,0,12099,0
11684,42,-8184,1138,-54,42,21,6896,2,-3,0,0,37157,301,26,79,0,0,0,0,0,0,0,0,-32316,0,0,0,3955,0,12119,0
11694,60,-8216,1152,-55,44,15,6895,0,1,0,0,37157,295,26,79,0,0,0,0,0,0,0,0,-32316,0,0,0,3955,0,12139,0
11704,66,-8198,1154,-52,42,18,6896,1,1,0,0,37161,299,26,79,0,0,0,0,0,0,0,0,-32316,0,0,0,3955,0,12159,0
11714,44,-8190,1138,-54,41,21,6895,0,7,0,0,37161,300,26,79,0,0,0,0,0,0,0,0,-32316,0,0,0,3955,0,12179,0
11724,96,-8242,1128,-47,41,15,6896,2,3,0,0,37167,302,26,79,0,0,0,0,0,0,0,0,-32316,0,0,0,3956,0,12199,0
11734,68,-8208,1156,-47,46,14,6895,-6,5,0,0,37165,299,26,79,0,0,0,0,0,0,0,0,-32316,0,0,0,3956,0,12219,0
11744,50,-8190,1168,-49,44,19,6895,-11,1,1,0,37169,302,26,79,0,0,0,0,0,0,0,0,-32316,0,0,0,3956,0,12239,0
11754,72,-8192,1172,-49,43,20,6896,-3,0,1,0,37162,304,26,79,0,0,0,0,0,0,0,0,-32316,0,0,0,3956,0,12259,0
11764,94,-8192,1174,-52,46,14,6895,-5,0,0,0,37161,298,26,79,0,0,0,0,0,0,0,0,-32316,0,0,0,3956,0,12279,0
11774,90,-8206,1162,-53,40,18,6895,1,6,1,0,37158,296,26,79,0,0,0,0,0,0,0,0,-32316,0,0,0,3955,0,12299,0
11784,84,-8216,1142,-50,42,20,6894,-5,-3,0,0,37162,292,26,79,0,0,0,0,0,0,0,0,-32317,0,0,0,3956,0,12319,0
11794,100,-8224,1134,-57,40,23,6895,-2,4,0,0,37165,294,26,79,0,0,0,0,0,0,0,0,-32316,0,0,0,3956,0,12339,0
11804,74,-8188,1152,-49,42,18,6896,3,6,0,0,37163,298,26,79,0,0,0,0,0,0,0,0,-32316,0,0,0,3956,0,12359,0
11814,66,-8194,1138,-49,39,16,6895,-2,-3,-1,0,37161,298,26,79,0,0,0,0,0,0,0,0,-32316,0,0,0,3956,0,12379,0
11824,54,-8188,1138,-54,46,19,6897,2,2,1,0,37162,299,26,79,0,0,0,0,0,0,0,0,-32316,0,0,0,3955,0,12399,0
11834,66,-8204,1144,-52,42,16,6897,1,-6,0,0,37168,296,26,79,0,0,0,0,0,0,0,0,-32316,0,0,0,3957,0,12419,0
11844,64,-8212,1152,-52,38,21,6895,0,-3,0,0,37171,289,26,79,0,0,0,0,0,0,0,0,-32316,0,0,0,3957,0,12439,0
11854,32,-8222,1178,-53,43,16,6895,0,4,0,0,37171,291,26,79,0,0,0,0,0,0,0,0,-32316,0,0,0,3956,0,12459,0
11864,66,-8198,1176,-55,40,20,6897,-2,-2,1,0,37170,302,26,79,0,0,0,0,0,0,0,0,-32316,0,0,0,3956,0,12479,0
11874,52,-8192,1174,-54,41,23,6895,-4,-4,2,0,37168,302,26,79,0,0,0,0,0,0,0,0,-32316,0,0,0,3956,0,12499,0
11884,62,-8190,1156,-51,41,16,6896,-7,-2,0,0,37169,291,26,79,0,0,0,0,0,0,0,0,-32316,0,0,0,3956,0,12519,0
11894,78,-8194,1142,-49,44,19,6897,2,-2,0,0,37170,293,26,79,0,0,0,0,0,0,0,0,-32316,0,0,0,3956,0,12539,0
11904,94,-8208,1154,-48,43,19,6894,-2,5,1,0,37169,296,26,79,0,0,0,0,0,0,0,0,-32316,0,0,0,3957,0,12559,0
11914,64,-8216,1174,-51,40,18,6897,1,-1,0,0,37169,313,26,79,0,0,0,0,0,0,0,0,-32316,0,0,0,3956,0,12579,0
11924,58,-8192,1158,-57,42,19,6894,0,0,1,0,37168,314,26,79,0,0,0,0,0,0,0,0,-32316,0,0,0,3956,0,12599,0
11934,58,-8202,1176,-58,44,21,6895,-3,1,0,0,37169,314,26,79,0,0,0,0,0,0,0,0,-32316,0,0,0,3956,0,12619,0
11944,92,-8210,1172,-56,39,22,6897,5,2,0,0,37165,304,26,79,0,0,0,0,0,0,0,0,-32316,0,0,0,3955,0,12639,0
11954,94,-8208,1180,-63,40,18,6897,8,5,1,0,37164,304,26,79,0,0,0,0,0,0,0,0,-32317,0,0,0,3956,0,12659,0
11964,30,-8208,1126,-56,41,18,6895,0,0,0,0,37162,302,26,79,0,0,0,0,0,0,0,0,-32317,0,0,0,3957,0,12679,0
11974,34,-8236,1138,-57,39,22,6897,4,5,0,0,37162,303,26,79,0,0,0,0,0,0,0,0,-32316,0,0,0,3956,0,12699,0
11984,52,-8230,1154,-55,42,16,6896,-3,3,0,0,37171,295,26,79,0,0,0,0,0,0,0,0,-32316,0,0,0,3956,0,12719,0
11994,70,-8214,1138,-54,47,20,6897,3,0,0,0,37176,294,26,79,0,0,0,0,0,0,0,0,-32316,0,0,0,3956,0,12739,0
12004,78,-8198,1158,-50,42,26,6896,4,-1,0,0,37176,297,26,79,0,0,0,0,0,0,0,0,-32316,0,0,0,3956,0,12759,0
12014,60,-8214,1168,-53,39,26,6895,-8,-1,0,0,37168,303,26,79,0,0,0,0,0,0,0,0,-32316,0,0,0,3955,0,12779,0
12024,80,-8190,1194,-53,38,22,6896,3,-1,1,0,37160,302,26,79,0,0,0,0,0,0,0,0,-32316,0,0,0,3956,0,12799,0
12034,68,-8190,1180,-59,41,28,6896,0,1,-1,0,37160,301,26,79,0,0,0,0,0,0,0,0,-32316,0,0,0,3957,0,12819,0
12044,30,-7952,1232,-56,36,24,6895,-8,-2,0,0,37160,305,26,79,0,0,0,0,0,0,0,0,-32316,0,0,0,3957,0,12839,0
12054,42,-8806,1182,-62,38,15,6897,6,-1,2,0,37161,305,26,79,0,0,0,0,0,0,0,0,-32316,0,0,0,3957,0,12859,0
12064,-18,-8178,1068,-68,53,34,6896,6,-3,0,0,37159,305,26,79,0,0,0,0,0,0,0,0,-32317,0,0,0,3957,0,12879,0
12074,48,-8116,948,-57,38,12,6896,-1,2,1,0,37159,308,26,79,0,0,0,0,0,0,0,0,-32316,0,0,0,3956,0,12899,0
12084,-4,-8182,1008,-38,49,14,6895,3,0,0,0,37160,310,26,79,0,0,0,0,0,0,0,0,-32316,0,0,0,3958,0,12919,0
12094,196,-8114,1036,-27,56,22,6895,-4,0,-1,0,37160,311,26,79,0,0,0,0,0,0,0,0,-32316,0,0,0,3957,0,12939,0
12104,138,-8086,1260,-38,16,37,6894,-4,-6,1,0,37159,307,26,79,0,0,0,0,0,0,0,0,-32316,0,0,0,3958,0,12959,0
12114,146,-8160,1392,-44,22,40,6897,5,4,-1,0,37160,307,26,79,0,0,0,0,0,0,0,0,-32317,0,0,0,3957,0,12979,0
12124,-168,-8186,1140,-48,25,49,6895,-4,1,0,0,37161,307,26,79,0,0,0,0,0,0,0,0,-32316,0,0,0,3957,0,12999,0
12134,84,-8114,1148,-43,37,32,6897,7,2,0,0,37159,299,26,79,0,0,0,0,0,0,0,0,-32316,0,0,0,3960,0,13019,0
12144,-76,-8112,1162,-36,33,-6,6895,2,-6,0,0,37157,303,26,79,0,0,0,0,0,0,0,0,-32316,0,0,0,3959,0,13039,0
12154,-62,-8348,1080,-49,44,2,6895,-8,2,1,0,37156,299,26,79,0,0,0,0,0,0,0,0,-32316,0,0,0,3959,0,13059,0
12164,18,-8434,1096,-34,32,-5,6895,0,-1,1,0,37157,297,26,79,0,0,0,0,0,0,0,0,-32316,0,0,0,3959,0,13079,0
12174,108,-8166,1090,-31,26,-12,6896,-4,3,3,0,37157,290,26,79,0,0,0,0,0,0,0,0,-32316,0,0,0,3958,0,13099,0
12184,52,-8142,1226,-31,24,-5,6897,-7,2,2,0,37154,286,26,79,0,0,0,0,0,0,0,0,-32316,0,0,0,3959,0,13119,0
12194,30,-8134,1146,-42,42,14,6897,2,-1,0,0,37152,294,26,79,0,0,0,0,0,0,0,0,-32316,0,0,0,3959,0,13139,0
12204,196,-8308,1150,-42,36,2,6895,-3,2,3,0,37155,295,26,79,0,0,0,0,0,0,0,0,-32316,0,0,0,3958,0,13159,0
12214,222,-8094,1176,-32,40,11,6896,7,0,0,0,37156,292,26,79,0,0,0,0,0,0,0,0,-32317,0,0,0,3958,0,13179,0
12224,168,-8250,1244,-47,60,48,6895,3,4,2,0,37156,292,26,79,0,0,0,0,0,0,0,0,-32316,0,0,0,3958,0,13199,0
12234,254,-8204,1336,-41,32,43,6896,-1,0,0,0,37155,293,26,79,0,0,0,0,0,0,0,0,-32316,0,0,0,3958,0,13219,0
12244,70,-8204,1300,-67,49,44,6895,-3,-1,-1,0,37154,296,26,79,0,0,0,0,0,0,0,0,-32316,0,0,0,3958,0,13239,0
12254,18,-8176,1234,-77,62,65,6895,4,-1,2,0,37162,293,26,79,0,0,0,0,0,0,0,0,-32316,0,0,0,3960,0,13259,0
12264,90,-8074,1122,-80,42,66,6896,1,-2,-1,0,37163,293,26,79,0,0,0,0,0,0,0,0,-32317,0,0,0,3960,0,13279,0
12274,98,-8222,1088,-75,29,62,6895,3,-2,0,0,37162,293,26,79,0,0,0,0,0,0,0,0,-32316,0,0,0,3961,0,13299,0
12284,-130,-8204,1088,-66,31,71,6896,7,2,0,0,37152,297,26,79,0,0,0,0,0,0,0,0,-32316,0,0,0,3961,0,13319,0
12294,8,-8084,1082,-62,33,68,6895,-5,-2,-2,0,37152,302,26,79,0,0,0,0,0,0,0,0,-32316,0,0,0,3963,0,13339,0
12304,-70,-8286,1172,-51,39,21,6895,-14,-1,3,0,37155,308,26,79,0,0,0,0,0,0,0,0,-32316,0,0,0,3963,0,13359,0
12314,-120,-8220,1122,-53,44,16,6895,-7,0,2,0,37153,309,26,79,0,0,0,0,0,0,0,0,-32316,0,0,0,3963,0,13379,0
12324,-48,-8180,1114,-54,40,2,6896,-2,-5,1,0,37149,298,26,79,0,0,0,0,0,0,0,0,-32316,0,0,0,3963,0,13399,0
12334,40,-8228,1098,-38,38,-13,6895,-4,0,1,0,37148,291,26,79,0,0,0,0,0,0,0,0,-32316,0,0,0,3963,0,13419,0
12344,52,-8256,1064,-27,22,-27,6896,-5,0,-1,0,37150,294,26,79,0,0,0,0,0,0,0,0,-32316,0,0,0,3961,0,13439,0
12354,32,-8162,1056,-28,29,-6,6896,0,5,1,0,37158,285,26,79,0,0,0,0,0,0,0,0,-32316,0,0,0,3962,0,13459,0
12364,126,-8198,1220,-22,24,-22,6896,-5,-7,0,0,37154,289,26,79,0,0,0,0,0,0,0,0,-32316,0,0,0,3962,0,13479,0
12374,60,-8210,1198,-26,28,-15,6896,0,6,1,0,37153,292,26,79,0,0,0,0,0,0,0,0,-32316,0,0,0,3961,0,13499,0
12384,156,-8240,1220,-41,42,8,6895,-5,-1,0,0,37151,302,26,79,0,0,0,0,0,0,0,0,-32316,0,0,0,3962,0,13519,0
12394,110,-8174,1272,-45,37,15,6895,-3,-1,0,0,37151,305,26,79,0,0,0,0,0,0,0,0,-32316,0,0,0,3961,0,13539,0
12404,90,-8212,1260,-56,41,15,6895,-9,-1,0,0,37151,302,26,79,0,0,0,0,0,0,0,0,-32316,0,0,0,3962,0,13559,0
12414,44,-8186,1190,-60,40,25,6896,4,3,0,0,37148,301,26,79,0,0,0,0,0,0,0,0,-32316,0,0,0,3961,0,13579,0
12424,124,-8164,1158,-61,49,30,6895,-1,2,1,0,37150,291,26,79,0,0,0,0,0,0,0,0,-32316,0,0,0,3961,0,13600,0
12434,96,-8246,1170,-60,45,23,6895,-5,6,0,0,37151,295,26,79,0,0,0,0,0,0,0,0,-32316,0,0,0,3961,0,13619,0
12444,76,-8188,1154,-60,44,36,6897,-3,-6,1,0,37151,306,26,79,0,0,0,0,0,0,0,0,-32316,0,0,0,3961,0,13639,0
12454,92,-8220,1190,-61,39,35,6896,5,-3,1,0,37154,311,26,79,0,0,0,0,0,0,0,0,-32316,0,0,0,3961,0,13660,0
12464,104,-8210,1232,-66,53,38,6895,6,-2,1,0,37158,310,26,79,0,0,0,0,0,0,0,0,-32316,0,0,0,3961,0,13680,0
12474,50,-8220,1226,-64,46,37,6894,-10,2,2,0,37159,302,26,79,0,0,0,0,0,0,0,0,-32316,0,0,0,3962,0,13701,0
12484,52,-8180,1214,-79,53,42,6895,-2,-3,0,0,37159,304,26,79,0,0,0,0,0,0,0,0,-32316,0,0,0,3961,0,13720,0
12494,28,-8214,1164,-77,43,26,6895,-7,-4,0,0,37152,305,26,79,0,0,0,0,0,0,0,0,-32316,0,0,0,3963,0,13740,0
12504,-44,-8182,1090,-71,51,34,6897,6,1,0,0,37152,297,26,79,0,0,0,0,0,0,0,0,-32316,0,0,0,3963,0,13761,0
12514,4,-8188,1054,-71,52,18,6896,3,4,0,0,37154,297,26,79,0,0,0,0,0,0,0,0,-32316,0,0,0,3964,0,13780,0
12524,40,-8198,1062,-57,38,14,6896,-9,-5,4,0,37155,294,26,79,0,0,0,0,0,0,0,0,-32317,0,0,0,3962,0,13801,0
12534,30,-8210,1076,-51,44,11,6897,9,2,-1,0,37160,295,26,79,0,0,0,0,0,0,0,0,-32316,0,0,0,3963,0,13821,0
12544,14,-8166,1104,-46,34,11,6895,-7,-3,0,0,37160,291,26,79,0,0,0,0,0,0,0,0,-32316,0,0,0,3962,0,13841,0
12554,54,-8218,1162,-40,32,5,6894,-2,4,3,0,37160,292,26,79,0,0,0,0,0,0,0,0,-32316,0,0,0,3963,0,13861,0
12564,86,-8200,1224,-49,36,14,6896,-3,-1,0,0,37163,301,26,79,0,0,0,0,0,0,0,0,-32316,0,0,0,3962,0,13881,0
12574,78,-8142,1216,-54,47,23,6896,6,3,1,0,37163,309,26,79,0,0,0,0,0,0,0,0,-32316,0,0,0,3962,0,13901,0
12584,58,-8240,1224,-62,42,13,6895,-3,2,0,0,37165,310,26,79,0,0,0,0,0,0,0,0,-32316,0,0,0,3962,0,13921,0
12594,52,-8212,1216,-61,42,20,6896,1,1,0,0,37159,307,26,79,0,0,0,0,0,0,0,0,-32316,0,0,0,3963,0,13941,0
12604,30,-8214,1146,-64,47,29,6895,0,1,0,0,37158,307,26,79,0,0,0,0,0,0,0,0,-32316,0,0,0,3962,0,13961,0
12614,54,-8194,1142,-66,46,24,6895,2,3,0,0,37155,313,26,79,0,0,0,0,0,0,0,0,-32316,0,0,0,3963,0,13981,0
12624,4,-8218,1106,-59,39,11,6896,6,-1,2,0,37151,303,26,79,0,0,0,0,0,0,0,0,-32316,0,0,0,3962,0,14001,0
12634,2,-8182,1072,-57,45,16,6897,1,-4,0,0,37153,300,26,79,0,0,0,0,0,0,0,0,-32316,0,0,0,3963,0,14021,0
12644,46,-8228,1094,-50,41,18,6896,-4,-4,1,0,37155,300,26,79,0,0,0,0,0,0,0,0,-32316,0,0,0,3963,0,14041,0
12654,52,-8204,1112,-45,32,3,6896,1,0,1,0,37156,304,26,79,0,0,0,0,0,0,0,0,-32316,0,0,0,3963,0,14061,0
12664,36,-8212,1150,-49,34,12,6897,9,-3,4,0,37161,317,26,79,0,0,0,0,0,0,0,0,-32317,0,0,0,3963,0,14081,0
12674,78,-8226,1206,-43,40,20,6896,1,-4,3,0,37163,313,26,79,0,0,0,0,0,0,0,0,-32316,0,0,0,3962,0,14101,0
12684,66,-8200,1208,-47,35,6,6897,5,-1,0,0,37163,309,26,79,0,0,0,0,0,0,0,0,-32316,0,0,0,3962,0,14121,0
12694,54,-8192,1196,-54,34,9,6895,0,-2,0,0,37158,296,26,79,0,0,0,0,0,0,0,0,-32316,0,0,0,3963,0,14141,0
12704,54,-8194,1174,-53,40,19,6895,0,-4,2,0,37157,301,26,79,0,0,0,0,0,0,0,0,-32316,0,0,0,3963,0,14161,0
12714,70,-8224,1190,-58,38,14,6896,1,4,0,0,37159,299,26,79,0,0,0,0,0,0,0,0,-32317,0,0,0,3962,0,14181,0
12724,34,-8230,1132,-59,41,16,6896,-4,-6,3,0,37159,293,26,79,0,0,0,0,0,0,0,0,-32316,0,0,0,3963,0,14201,0
12734,44,-8158,1122,-61,48,19,6896,0,3,0,0,37160,299,26,79,0,0,0,0,0,0,0,0,-32316,0,0,0,3962,0,14221,0
12744,46,-8236,1126,-54,43,15,6895,-1,1,0,0,37160,302,26,79,0,0,0,0,0,0,0,0,-32316,0,0,0,3963,0,14241,0
12754,50,-8224,1116,-53,41,14,6897,9,-1,1,0,37162,308,26,79,0,0,0,0,0,0,0,0,-32316,0,0,0,3963,0,14261,0
12764,44,-8194,1112,-52,44,17,6896,2,-2,0,0,37166,293,26,79,0,0,0,0,0,0,0,0,-32316,0,0,0,3963,0,14281,0
12774,68,-8212,1144,-53,41,21,6896,-7,-3,0,0,37169,298,26,79,0,0,0,0,0,0,0,0,-32316,0,0,0,3962,0,14301,0
12784,50,-8214,1180,-50,46,17,6896,7,0,0,0,37168,298,26,79,0,0,0,0,0,0,0,0,-32316,0,0,0,3963,0,14317,0
12794,50,-8176,1162,-55,40,24,6897,7,-4,1,0,37169,298,26,79,0,0,0,0,0,0,0,0,-32316,0,0,0,3963,0,14337,0
12804,80,-8202,1200,-61,46,28,6895,-5,-2,3,0,37163,299,26,79,0,0,0,0,0,0,0,0,-32317,0,0,0,3962,0,14359,0
12814,76,-8198,1212,-59,46,30,6896,7,-2,0,0,37161,292,26,79,0,0,0,0,0,0,0,0,-32316,0,0,0,3963,0,14377,0
12824,48,-8220,1170,-63,46,35,6896,2,-4,3,0,37160,295,26,79,0,0,0,0,0,0,0,0,-32316,0,0,0,3962,0,14397,0
12834,36,-8224,1150,-63,45,36,6896,0,-4,0,0,37161,302,26,79,0,0,0,0,0,0,0,0,-32316,0,0,0,3963,0,14416,0
12844,52,-8208,1148,-57,45,28,6896,-1,-3,0,0,37163,299,26,79,0,0,0,0,0,0,0,0,-32316,0,0,0,3964,0,14435,0
12854,-18,-8190,1120,-55,49,28,6895,-8,0,2,0,37165,295,26,79,0,0,0,0,0,0,0,0,-32316,0,0,0,3964,0,14454,0
12864,56,-8210,1100,-57,40,23,6896,4,-2,1,0,37166,292,26,79,0,0,0,0,0,0,0,0,-32316,0,0,0,3964,0,14472,0
12874,52,-8212,1122,-50,38,16,6894,-2,2,2,0,37170,292,26,79,0,0,0,0,0,0,0,0,-32316,0,0,0,3963,0,14491,0
12884,-6,-8202,1128,-48,42,19,6896,0,-7,0,0,37171,288,26,79,0,0,0,0,0,0,0,0,-32316,0,0,0,3963,0,14510,0
12894,0,-8212,1122,-46,41,20,6896,5,-1,2,0,37173,290,26,79,0,0,0,0,0,0,0,0,-32316,0,0,0,3964,0,14528,0
12904,46,-8206,1172,-45,37,8,6895,-1,-3,0,0,37166,295,26,79,0,0,0,0,0,0,0,0,-32316,0,0,0,3964,0,14547,0
12914,28,-8218,1154,-44,41,10,6895,0,5,0,0,37166,305,26,79,0,0,0,0,0,0,0,0,-32316,0,0,0,3964,0,14565,0
12924,48,-8182,1156,-45,43,19,6896,0,2,0,0,37164,308,26,79,0,0,0,0,0,0,0,0,-32316,0,0,0,3964,0,14583,0
12934,34,-8208,1164,-48,40,8,6896,-3,-1,0,0,37164,313,26,79,0,0,0,0,0,0,0,0,-32316,0,0,0,3964,0,14601,0
12944,84,-8180,1174,-49,43,15,6896,-3,5,0,0,37165,308,26,79,0,0,0,0,0,0,0,0,-32316,0,0,0,3964,0,14613,0
12954,86,-8186,1166,-47,42,19,6897,7,-2,3,0,37163,304,26,79,0,0,0,0,0,0,0,0,-32316,0,0,0,3964,0,14628,0
12964,70,-8224,1150,-45,41,17,6896,0,5,0,0,37161,301,26,79,0,0,0,0,0,0,0,0,-32317,0,0,0,3963,0,14644,0
12974,58,-8218,1144,-46,40,10,6895,-1,3,0,0,37167,300,26,79,0,0,0,0,0,0,0,0,-32316,0,0,0,3963,0,14662,0
12984,50,-8212,1162,-51,44,20,6895,0,1,1,0,37168,301,26,79,0,0,0,0,0,0,0,0,-32316,0,0,0,3964,0,14678,0
12994,36,-8210,1158,-50,48,21,6895,0,-2,0,0,37168,294,26,79,0,0,0,0,0,0,0,0,-32316,0,0,0,3964,0,14691,0
13004,18,-8190,1210,-48,36,14,6894,-6,0,3,0,37165,302,26,79,0,0,0,0,0,0,0,0,-32316,0,0,0,3963,0,14709,0
13014,20,-8176,1174,-51,39,20,6895,0,0,-1,0,37159,301,26,79,0,0,0,0,0,0,0,0,-32316,0,0,0,3964,0,14724,0
13024,82,-8236,1148,-53,39,22,6897,4,2,1,0,37158,294,26,79,0,0,0,0,0,0,0,0,-32316,0,0,0,3964,0,14739,0
13034,76,-8234,1180,-56,34,21,6896,9,0,1,0,37157,297,26,79,0,0,0,0,0,0,0,0,-32316,0,0,0,3964,0,14755,0
13044,22,-8208,1140,-51,43,21,6896,0,3,0,0,37157,299,26,79,0,0,0,0,0,0,0,0,-32316,0,0,0,3964,0,14768,0
13054,-10,-8254,1142,-60,45,21,6896,1,-2,1,0,37157,305,26,79,0,0,0,0,0,0,0,0,-32316,0,0,0,3964,0,14785,0
13064,56,-8188,1156,-54,47,16,6894,-7,1,0,0,37160,299,26,79,0,0,0,0,0,0,0,0,-32316,0,0,0,3965,0,14802,0
13074,40,-8192,1148,-56,46,15,6896,-1,0,1,0,37162,284,26,79,0,0,0,0,0,0,0,0,-32316,0,0,0,3964,0,14818,0
13084,2,-8220,1130,-58,40,20,6896,-4,5,2,0,37164,288,26,79,0,0,0,0,0,0,0,0,-32316,0,0,0,3964,0,14834,0
13094,48,-8212,1140,-55,36,15,6894,-3,-2,0,0,37162,297,26,79,0,0,0,0,0,0,0,0,-32316,0,0,0,3964,0,14849,0
13104,6,-8200,1126,-53,39,10,6894,-3,4,1,0,37162,300,26,79,0,0,0,0,0,0,0,0,-32316,0,0,0,3965,0,14868,0
13114,48,-8206,1110,-42,36,9,6897,3,4,-1,0,37159,308,26,79,0,0,0,0,0,0,0,0,-32316,0,0,0,3964,0,14888,0
13124,14,-8190,1162,-46,38,10,6895,-3,-1,2,0,37160,302,26,79,0,0,0,0,0,0,0,0,-32316,0,0,0,3964,0,14907,0
13134,38,-8200,1178,-47,37,5,6896,0,3,1,0,37159,297,26,79,0,0,0,0,0,0,0,0,-32316,0,0,0,3964,0,14927,0
13144,36,-8196,1162,-47,39,9,6895,-6,0,0,0,37157,298,26,79,0,0,0,0,0,0,0,0,-32316,0,0,0,3964,0,14947,0
13154,64,-8218,1182,-50,41,15,6895,0,-2,1,0,37155,298,26,79,0,0,0,0,0,0,0,0,-32316,0,0,0,3965,0,14966,0
13164,64,-8210,1174,-51,41,9,6897,0,6,0,0,37156,292,26,79,0,0,0,0,0,0,0,0,-32316,0,0,0,3964,0,14986,0
13174,56,-8212,1150,-53,41,12,6895,2,-6,1,0,37160,290,26,79,0,0,0,0,0,0,0,0,-32316,0,0,0,3963,0,15006,0
13184,26,-8176,1150,-49,37,11,6895,-1,0,0,0,37165,288,26,79,0,0,0,0,0,0,0,0,-32316,0,0,0,3964,0,15026,0
13194,58,-8222,1168,-49,39,13,6897,12,-1,0,0,37167,296,26,79,0,0,0,0,0,0,0,0,-32316,0,0,0,3964,0,15046,0
13204,28,-8192,1112,-49,38,14,6896,3,3,0,0,37169,293,26,79,0,0,0,0,0,0,0,0,-32316,0,0,0,3964,0,15066,0
13214,42,-8202,1132,-51,41,13,6895,-1,-3,0,0,37162,291,26,79,0,0,0,0,0,0,0,0,-32316,0,0,0,3964,0,15086,0
13224,24,-8206,1150,-47,40,12,6894,-9,2,0,0,37161,291,26,79,0,0,0,0,0,0,0,0,-32316,0,0,0,3964,0,15106,0
13234,12,-8232,1152,-43,43,10,6897,2,2,2,0,37159,303,26,79,0,0,0,0,0,0,0,0,-32316,0,0,0,3964,0,15126,0
13244,46,-8224,1160,-44,39,12,6897,0,-4,0,0,37159,308,26,79,0,0,0,0,0,0,0,0,-32316,0,0,0,3964,0,15146,0
13254,62,-8224,1158,-46,36,5,6896,7,1,1,0,37157,316,26,79,0,0,0,0,0,0,0,0,-32316,0,0,0,3964,0,15165,0
13264,38,-8190,1164,-43,39,14,6894,-8,1,0,0,37167,316,26,79,0,0,0,0,0,0,0,0,-32316,0,0,0,3964,0,15185,0
13274,44,-8202,1172,-53,37,14,6896,-3,-3,1,0,37175,309,26,79,0,0,0,0,0,0,0,0,-32316,0,0,0,3964,0,15205,0
13284,82,-8208,1160,-53,32,6,6896,-1,-1,4,0,37188,305,26,79,0,0,0,0,0,0,0,0,-32316,0,0,0,3964,0,15225,0
13294,48,-8226,1132,-52,35,12,6895,-5,8,0,0,37180,303,26,79,0,0,0,0,0,0,0,0,-32316,0,0,0,3964,0,15245,0
13304,42,-8218,1140,-54,43,14,6896,-3,-1,0,0,37169,306,26,79,0,0,0,0,0,0,0,0,-32316,0,0,0,3964,0,15265,0
13314,38,-8216,1140,-48,36,9,6896,2,2,-1,0,37159,302,26,79,0,0,0,0,0,0,0,0,-32316,0,0,0,3964,0,15285,0
13324,6,-8200,1148,-51,40,11,6896,7,-5,0,0,37150,300,26,79,0,0,0,0,0,0,0,0,-32316,0,0,0,3964,0,15305,0
13334,16,-8226,1160,-47,44,13,6895,1,6,2,0,37149,293,26,79,0,0,0,0,0,0,0,0,-32316,0,0,0,3964,0,15325,0
13344,42,-8172,1160,-50,41,11,6896,-1,-4,0,0,37151,296,26,79,0,0,0,0,0,0,0,0,-32316,0,0,0,3964,0,15345,0
13354,46,-8214,1162,-51,41,6,6896,8,0,1,0,37152,296,26,79,0,0,0,0,0,0,0,0,-32316,0,0,0,3964,0,15365,0
13364,48,-8204,1120,-50,37,13,6896,1,-4,0,0,37153,295,26,79,0,0,0,0,0,0,0,0,-32316,0,0,0,3964,0,15385,0
13374,64,-8206,1158,-49,37,14,6896,0,-3,1,0,37153,291,26,79,0,0,0,0,0,0,0,0,-32316,0,0,0,3963,0,15405,0
13384,58,-8230,1162,-50,33,12,6895,1,-1,0,0,37152,296,26,79,0,0,0,0,0,0,0,0,-32316,0,0,0,3963,0,15425,0
13394,70,-8226,1160,-56,38,15,6895,-1,-2,0,0,37160,303,26,79,0,0,0,0,0,0,0,0,-32316,0,0,0,3964,0,15445,0
13404,50,-8188,1170,-54,42,18,6895,-6,-2,1,0,37160,312,26,79,0,0,0,0,0,0,0,0,-32316,0,0,0,3964,0,15465,0
13414,44,-8206,1158,-53,41,15,6897,9,-1,0,0,37161,306,26,79,0,0,0,0,0,0,0,0,-32316,0,0,0,3964,0,15485,0
13424,28,-8214,1146,-53,43,14,6895,-3,1,0,0,37149,299,26,79,0,0,0,0,0,0,0,0,-32316,0,0,0,3963,0,15505,0
13434,36,-8178,1140,-46,40,17,6895,-4,-2,2,0,37150,297,26,79,0,0,0,0,0,0,0,0,-32316,0,0,0,3964,0,15525,0
13444,32,-8230,1136,-51,39,6,6896,1,2,0,0,37151,301,26,79,0,0,0,0,0,0,0,0,-32316,0,0,0,3963,0,15545,0
13454,54,-8184,1128,-46,38,10,6897,8,2,2,0,37152,299,26,79,0,0,0,0,0,0,0,0,-32316,0,0,0,3964,0,15565,0
13464,26,-8208,1148,-45,39,12,6894,-9,-1,0,0,37151,297,26,79,0,0,0,0,0,0,0,0,-32316,0,0,0,3964,0,15585,0
13474,18,-8234,1154,-46,36,8,6896,9,-4,2,0,37150,298,26,79,0,0,0,0,0,0,0,0,-32316,0,0,0,3964,0,15606,0
13484,48,-8180,1148,-41,39,3,6895,-1,3,1,0,37151,299,26,79,0,0,0,0,0,0,0,0,-32316,0,0,0,3964,0,15626,0
13494,76,-8202,1156,-42,35,10,6896,3,-8,0,0,37155,304,26,79,0,0,0,0,0,0,0,0,-32316,0,0,0,3963,0,15646,0
13504,80,-8212,1176,-44,32,8,6896,-4,1,0,0,37155,304,26,79,0,0,0,0,0,0,0,0,-32316,0,0,0,3964,0,15666,0
13514,70,-8210,1172,-50,41,11,6897,6,-3,0,0,37153,303,26,79,0,0,0,0,0,0,0,0,-32316,0,0,0,3964,0,15686,0
13524,50,-8214,1160,-52,40,18,6895,1,-1,1,0,37150,297,26,79,0,0,0,0,0,0,0,0,-32316,0,0,0,3963,0,15706,0
13534,64,-8230,1144,-50,44,18,6897,6,1,2,0,37154,297,26,79,0,0,0,0,0,0,0,0,-32316,0,0,0,3963,0,15726,0
13544,58,-8216,1150,-51,45,20,6896,-3,-1,0,0,37158,299,26,79,0,0,0,0,0,0,0,0,-32316,0,0,0,3963,0,15746,0
13554,44,-8216,1158,-53,40,20,6894,-6,-2,1,0,37158,298,26,79,0,0,0,0,0,0,0,0,-32316,0,0,0,3964,0,15766,0
13564,78,-8220,1158,-54,42,18,6896,-2,0,0,0,37156,300,26,79,0,0,0,0,0,0,0,0,-32316,0,0,0,3964,0,15786,0
13574,18,-8210,1172,-51,39,20,6895,-1,1,0,0,37155,300,26,79,0,0,0,0,0,0,0,0,-32316,0,0,0,3964,0,15806,0
13584,28,-8202,1148,-53,45,18,6897,8,3,1,0,37157,295,26,79,0,0,0,0,0,0,0,0,-32316,0,0,0,3963,0,15826,0
13594,32,-8226,1140,-50,42,16,6895,-11,-7,0,0,37162,288,26,79,0,0,0,0,0,0,0,0,-32316,0,0,0,3964,0,15846,0
13604,76,-8210,1150,-54,39,19,6895,3,-4,0,0,37158,291,26,79,0,0,0,0,0,0,0,0,-32316,0,0,0,3964,0,15866,0
13614,40,-8232,1140,-48,37,20,6896,5,-2,0,0,37159,291,26,79,0,0,0,0,0,0,0,0,-32316,0,0,0,3964,0,15886,0
13624,32,-8192,1190,-49,44,18,6897,-1,-4,0,0,37154,298,26,79,0,0,0,0,0,0,0,0,-32316,0,0,0,3964,0,15906,0
13634,32,-8220,1150,-50,48,14,6894,2,-5,0,0,37157,288,26,79,0,0,0,0,0,0,0,0,-32317,0,0,0,3963,0,15926,0
13644,56,-8216,1164,-52,47,16,6896,-2,-3,0,0,37156,291,26,79,0,0,0,0,0,0,0,0,-32316,0,0,0,3964,0,15946,0
13654,34,-8172,1148,-51,42,17,6894,-5,-2,0,0,37154,293,26,79,0,0,0,0,0,0,0,0,-32316,0,0,0,3964,0,15966,0
13664,62,-8226,1134,-50,47,19,6896,-1,-4,0,0,37155,296,26,79,0,0,0,0,0,0,0,0,-32316,0,0,0,3964,0,15986,0
13674,28,-8192,1146,-50,39,18,6898,7,0,0,0,37157,297,26,79,0,0,0,0,0,0,0,0,-32316,0,0,0,3964,0,16006,0
13684,18,-8180,1134,-45,40,13,6896,-6,-3,0,0,37157,299,26,79,0,0,0,0,0,0,0,0,-32316,0,0,0,3964,0,16026,0
13694,36,-8192,1150,-48,39,14,6896,0,1,1,0,37156,298,26,79,0,0,0,0,0,0,0,0,-32316,0,0,0,3964,0,16046,0
13704,24,-8198,1146,-50,36,10,6896,0,2,0,0,37162,303,26,79,0,0,0,0,0,0,0,0,-32316,0,0,0,3963,0,16066,0
13714,36,-8176,1156,-44,38,11,6896,0,3,1,0,37164,303,26,79,0,0,0,0,0,0,0,0,-32317,0,0,0,3963,0,16086,0
13724,62,-8238,1156,-51,38,9,6897,1,2,0,0,37163,305,26,79,0,0,0,0,0,0,0,0,-32316,0,0,0,3964,0,16106,0
13734,54,-8182,1158,-52,37,11,6896,3,1,1,0,37156,297,26,79,0,0,0,0,0,0,0,0,-32316,0,0,0,3963,0,16126,0
13744,68,-8202,1168,-53,38,13,6896,2,2,0,0,37156,290,26,79,0,0,0,0,0,0,0,0,-32316,0,0,0,3963,0,16146,0
13754,84,-8218,1178,-53,41,16,6895,-2,-2,1,0,37159,289,26,79,0,0,0,0,0,0,0,0,-32316,0,0,0,3963,0,16166,0
13764,28,-8194,1152,-53,34,16,6897,4,-5,1,0,37160,292,26,79,0,0,0,0,0,0,0,0,-32316,0,0,0,3963,0,16186,0
13774,24,-8220,1146,-51,39,18,6895,-1,0,0,0,37158,293,26,79,0,0,0,0,0,0,0,0,-32316,0,0,0,3962,0,16206,0
13784,34,-8202,1158,-45,45,17,6894,-10,2,1,0,37158,298,26,79,0,0,0,0,0,0,0,0,-32316,0,0,0,3963,0,16226,0
13794,64,-8180,1152,-49,33,15,6896,0,-3,-1,0,37160,302,26,79,0,0,0,0,0,0,0,0,-32317,0,0,0,3963,0,16246,0
13804,38,-8172,1164,-54,37,16,6895,-1,-4,0,0,37161,294,26,79,0,0,0,0,0,0,0,0,-32316,0,0,0,3964,0,16266,0
13814,18,-8208,1148,-57,38,12,6896,0,3,1,0,37162,296,26,79,0,0,0,0,0,0,0,0,-32316,0,0,0,3964,0,16286,0
13824,68,-8228,1158,-54,41,14,6895,-4,4,0,0,37161,294,26,79,0,0,0,0,0,0,0,0,-32316,0,0,0,3964,0,16306,0
13834,52,-8204,1138,-54,37,10,6896,-1,-3,1,0,37163,294,26,79,0,0,0,0,0,0,0,0,-32316,0,0,0,3964,0,16326,0
13844,70,-8214,1154,-53,41,17,6896,5,-1,-1,0,37162,287,26,79,0,0,0,0,0,0,0,0,-32316,0,0,0,3963,0,16346,0
13854,66,-8204,1154,-50,44,16,6895,-4,0,0,0,37165,290,26,79,0,0,0,0,0,0,0,0,-32316,0,0,0,3964,0,16366,0
13864,54,-8196,1162,-54,45,20,6896,-1,-2,1,0,37168,292,26,79,0,0,0,0,0,0,0,0,-32316,0,0,0,3964,0,16386,0
13874,72,-8204,1174,-53,45,19,6896,1,-2,0,0,37171,292,26,79,0,0,0,0,0,0,0,0,-32316,0,0,0,3963,0,16406,0
13884,60,-8214,1172,-56,42,21,6895,0,2,-1,0,37171,289,26,79,0,0,0,0,0,0,0,0,-32316,0,0,0,3963,0,16426,0
13894,40,-8198,1186,-57,42,19,6896,0,-3,1,0,37169,295,26,79,0,0,0,0,0,0,0,0,-32316,0,0,0,3964,0,16446,0
13904,26,-8218,1148,-56,38,18,6895,6,1,1,0,37168,299,26,79,0,0,0,0,0,0,0,0,-32316,0,0,0,3964,0,16466,0
13914,36,-8234,1122,-54,41,13,6896,9,4,0,0,37169,307,26,79,0,0,0,0,0,0,0,0,-32316,0,0,0,3964,0,16486,0
13924,34,-8182,1120,-55,45,12,6896,0,-2,0,0,37171,306,26,79,0,0,0,0,0,0,0,0,-32316,0,0,0,3963,0,16506,0
13934,36,-8206,1114,-47,42,9,6896,-1,-2,2,0,37168,307,26,79,0,0,0,0,0,0,0,0,-32316,0,0,0,3964,0,16526,0
13944,40,-8190,1146,-51,36,11,6896,-3,0,1,0,37163,304,26,79,0,0,0,0,0,0,0,0,-32316,0,0,0,3963,0,16546,0
13954,32,-8220,1162,-51,34,13,6897,8,3,1,0,37161,294,26,79,0,0,0,0,0,0,0,0,-32316,0,0,0,3963,0,16566,0
13964,16,-8214,1162,-44,42,15,6895,4,0,1,0,37159,288,26,79,0,0,0,0,0,0,0,0,-32316,0,0,0,3964,0,16586,0
13974,56,-8230,1160,-51,34,12,6895,-4,3,0,0,37159,288,26,79,0,0,0,0,0,0,0,0,-32316,0,0,0,3963,0,16606,0
13984,42,-8210,1198,-49,40,14,6894,0,-5,1,0,37160,294,26,79,0,0,0,0,0,0,0,0,-32316,0,0,0,3963,0,16626,0
13994,32,-8194,1168,-50,37,10,6896,6,4,0,0,37160,302,26,79,0,0,0,0,0,0,0,0,-32316,0,0,0,3963,0,16646,0
14004,20,-8202,1128,-53,43,9,6895,-1,1,0,0,37160,302,26,79,0,0,0,0,0,0,0,0,-32316,0,0,0,3962,0,16666,0
14014,34,-8194,1158,-50,41,7,6895,0,-5,0,0,37162,305,26,79,0,0,0,0,0,0,0,0,-32316,0,0,0,3964,0,16686,0
14024,68,-8220,1150,-47,42,9,6896,0,-2,0,0,37162,300,26,79,0,0,0,0,0,0,0,0,-32316,0,0,0,3962,0,16706,0
14034,54,-8216,1178,-54,42,16,6897,10,3,1,0,37162,296,26,79,0,0,0,0,0,0,0,0,-32316,0,0,0,3964,0,16726,0
14044,36,-8196,1166,-51,38,21,6895,-4,-2,0,0,37161,294,26,79,0,0,0,0,0,0,0,0,-32316,0,0,0,3963,0,16746,0
14054,36,-8210,1152,-52,38,18,6896,3,-1,2,0,37158,300,26,79,0,0,0,0,0,0,0,0,-32316,0,0,0,3963,0,16766,0
14064,38,-8198,1150,-50,39,17,6894,-6,-5,0,0,37157,311,26,79,0,0,0,0,0,0,0,0,-32316,0,0,0,3963,0,16786,0
14074,52,-8190,1166,-52,40,19,6897,3,5,1,0,37158,299,26,79,0,0,0,0,0,0,0,0,-32316,0,0,0,3962,0,16806,0
14084,48,-8200,1146,-53,43,16,6894,-5,0,1,0,37158,296,26,79,0,0,0,0,0,0,0,0,-32317,0,0,0,3964,0,16826,0
14094,60,-8228,1176,-58,40,23,6895,-3,-3,2,0,37158,297,26,79,0,0,0,0,0,0,0,0,-32316,0,0,0,3964,0,16846,0
14104,36,-8220,1170,-58,44,17,6895,1,-2,0,0,37154,300,26,79,0,0,0,0,0,0,0,0,-32316,0,0,0,3963,0,16866,0
14114,54,-8216,1182,-57,43,17,6895,-6,1,-1,0,37151,303,26,79,0,0,0,0,0,0,0,0,-32316,0,0,0,3963,0,16886,0
14124,58,-8186,1168,-57,40,24,6894,0,-2,0,0,37156,297,26,79,0,0,0,0,0,0,0,0,-32316,0,0,0,3963,0,16906,0
14134,52,-8186,1150,-56,43,22,6895,0,0,0,0,37160,298,26,79,0,0,0,0,0,0,0,0,-32316,0,0,0,3964,0,16926,0
14144,12,-8208,1132,-58,41,17,6897,3,-2,1,0,37158,296,26,79,0,0,0,0,0,0,0,0,-32316,0,0,0,3962,0,16946,0
14154,32,-8216,1132,-49,39,18,6896,-7,-2,0,0,37154,300,26,79,0,0,0,0,0,0,0,0,-32316,0,0,0,3963,0,16966,0
14164,56,-8214,1142,-53,40,19,6895,-1,-6,1,0,37153,292,26,79,0,0,0,0,0,0,0,0,-32316,0,0,0,3963,0,16986,0
14174,52,-8178,1170,-48,38,20,6896,5,-6,2,0,37153,294,26,79,0,0,0,0,0,0,0,0,-32316,0,0,0,3964,0,17006,0
14184,48,-8214,1158,-50,39,17,6896,0,0,0,0,37155,300,26,79,0,0,0,0,0,0,0,0,-32316,0,0,0,3963,0,17026,0
14194,54,-8210,1146,-55,40,17,6896,0,1,1,0,37153,308,26,79,0,0,0,0,0,0,0,0,-32316,0,0,0,3964,0,17046,0
14204,68,-8202,1172,-52,39,18,6896,-3,2,0,0,37151,303,26,79,0,0,0,0,0,0,0,0,-32316,0,0,0,3963,0,17066,0
14214,42,-8216,1164,-57,43,16,6896,7,-3,0,0,37153,307,26,79,0,0,0,0,0,0,0,0,-32316,0,0,0,3964,0,17086,0
14224,24,-8212,1150,-52,42,18,6897,1,0,1,0,37161,295,26,79,0,0,0,0,0,0,0,0,-32316,0,0,0,3964,0,17106,0
14234,34,-8190,1134,-52,49,20,6895,-3,0,1,0,37159,299,26,79,0,0,0,0,0,0,0,0,-32316,0,0,0,3963,0,17126,0
14244,32,-8200,1132,-45,43,18,6896,1,4,1,0,37156,295,26,79,0,0,0,0,0,0,0,0,-32316,0,0,0,3964,0,17146,0
14254,56,-8206,1152,-49,41,15,6897,4,-1,0,0,37148,295,26,79,0,0,0,0,0,0,0,0,-32316,0,0,0,3964,0,17166,0
14264,48,-8204,1150,-48,45,17,6895,-6,-7,2,0,37151,297,26,79,0,0,0,0,0,0,0,0,-32316,0,0,0,3963,0,17186,0
14274,12,-8236,1166,-49,43,16,6897,3,-2,2,0,37151,296,26,79,0,0,0,0,0,0,0,0,-32316,0,0,0,3964,0,17206,0
14284,22,-8226,1166,-49,40,8,6894,-1,0,0,0,37150,301,26,79,0,0,0,0,0,0,0,0,-32316,0,0,0,3964,0,17226,0
14294,28,-8198,1174,-48,38,13,6895,-2,-8,1,0,37148,294,26,79,0,0,0,0,0,0,0,0,-32316,0,0,0,3964,0,17246,0
14304,56,-8202,1170,-48,44,19,6895,0,-5,0,0,37148,296,26,79,0,0,0,0,0,0,0,0,-32316,0,0,0,3964,0,17266,0
14314,78,-8196,1154,-52,41,9,6894,-7,3,0,0,37149,301,26,79,0,0,0,0,0,0,0,0,-32316,0,0,0,3964,0,17286,0
14324,54,-8202,1162,-48,43,12,6895,-7,-10,1,0,37149,301,26,79,0,0,0,0,0,0,0,0,-32316,0,0,0,3964,0,17306,0
14334,58,-8204,1156,-47,45,17,6895,-2,1,0,0,37154,300,26,79,0,0,0,0,0,0,0,0,-32316,0,0,0,3964,0,17326,0
14344,54,-8204,1136,-53,42,19,6895,3,-1,0,0,37156,299,26,79,0,0,0,0,0,0,0,0,-32316,0,0,0,3963,0,17346,0
14354,66,-8202,1160,-50,44,18,6896,0,2,0,0,37157,306,26,79,0,0,0,0,0,0,0,0,-32316,0,0,0,3963,0,17366,0
14364,48,-8204,1150,-53,45,16,6894,-3,5,1,0,37151,305,26,79,0,0,0,0,0,0,0,0,-32316,0,0,0,3963,0,17386,0
14374,56,-8224,1158,-57,41,14,6894,-1,-3,0,0,37149,299,26,79,0,0,0,0,0,0,0,0,-32316,0,0,0,3964,0,17406,0
14384,32,-8210,1172,-53,40,19,6895,-12,1,0,0,37148,296,26,79,0,0,0,0,0,0,0,0,-32316,0,0,0,3964,0,17426,0
14394,16,-8184,1146,-55,41,17,6895,-5,4,0,0,37147,298,26,79,0,0,0,0,0,0,0,0,-32316,0,0,0,3964,0,17446,0
14404,42,-8212,1168,-51,46,20,6896,4,-3,0,0,37148,300,26,79,0,0,0,0,0,0,0,0,-32316,0,0,0,3964,0,17466,0
14414,60,-8214,1154,-53,40,19,6897,5,-4,0,0,37145,302,26,79,0,0,0,0,0,0,0,0,-32316,0,0,0,3964,0,17486,0
14424,56,-8218,1136,-56,43,16,6896,3,2,1,0,37146,297,26,79,0,0,0,0,0,0,0,0,-32316,0,0,0,3964,0,17506,0
14434,28,-8188,1138,-52,40,18,6895,-1,-2,-1,0,37148,298,26,79,0,0,0,0,0,0,0,0,-32316,0,0,0,3964,0,17526,0
14444,32,-8186,1154,-52,37,22,6895,0,2,0,0,37149,287,26,79,0,0,0,0,0,0,0,0,-32316,0,0,0,3964,0,17546,0
14454,44,-8192,1162,-49,41,14,6895,-3,-6,0,0,37148,290,26,79,0,0,0,0,0,0,0,0,-32316,0,0,0,3964,0,17566,0
14464,8,-8202,1162,-56,42,17,6895,-13,0,1,0,37146,287,26,79,0,0,0,0,0,0,0,0,-32316,0,0,0,3964,0,17586,0
14474,50,-8218,1172,-54,39,20,6897,3,-3,1,0,37146,285,26,79,0,0,0,0,0,0,0,0,-32316,0,0,0,3963,0,17607,0
14484,40,-8230,1126,-56,36,15,6895,-10,4,0,0,37149,287,26,79,0,0,0,0,0,0,0,0,-32316,0,0,0,3964,0,17627,0
14494,12,-8212,1138,-54,35,15,6895,1,2,1,0,37151,291,26,79,0,0,0,0,0,0,0,0,-32316,0,0,0,3964,0,17647,0
14504,28,-8202,1138,-56,38,11,6898,5,-3,0,0,37157,294,26,79,0,0,0,0,0,0,0,0,-32316,0,0,0,3964,0,17667,0
14514,32,-8210,1146,-50,39,9,6895,0,-1,0,0,37160,294,26,79,0,0,0,0,0,0,0,0,-32316,0,0,0,3964,0,17687,0
14524,70,-8214,1128,-43,40,9,6896,0,3,2,0,37162,299,26,79,0,0,0,0,0,0,0,0,-32316,0,0,0,3964,0,17707,0
14534,74,-8216,1146,-51,43,13,6895,-6,-1,0,0,37160,294,26,79,0,0,0,0,0,0,0,0,-32316,0,0,0,3964,0,17727,0
14544,66,-8180,1174,-45,44,12,6896,5,5,0,0,37172,299,26,79,0,0,0,0,0,0,0,0,-32316,0,0,0,3964,0,17747,0
14554,54,-8220,1184,-50,42,13,6896,1,-1,0,0,37179,295,26,79,0,0,0,0,0,0,0,0,-32316,0,0,0,3964,0,17767,0
14564,94,-8216,1182,-54,43,21,6897,-3,4,0,0,37177,298,26,79,0,0,0,0,0,0,0,0,-32316,0,0,0,3964,0,17787,0
14574,30,-8190,1168,-55,39,16,6896,3,-1,1,0,37163,295,26,79,0,0,0,0,0,0,0,0,-32316,0,0,0,3964,0,17807,0
14584,24,-8210,1152,-59,44,16,6896,0,-6,0,0,37151,298,26,79,0,0,0,0,0,0,0,0,-32316,0,0,0,3964,0,17827,0
14594,28,-8218,1132,-55,36,19,6896,0,-2,1,0,37151,290,26,79,0,0,0,0,0,0,0,0,-32316,0,0,0,3964,0,17847,0
14604,30,-8212,1128,-50,43,14,6896,0,-4,0,0,37149,283,26,79,0,0,0,0,0,0,0,0,-32316,0,0,0,3964,0,17867,0
14614,36,-8250,1134,-50,45,16,6895,2,5,0,0,37149,285,26,79,0,0,0,0,0,0,0,0,-32316,0,0,0,3964,0,17887,0
14624,42,-8224,1170,-48,41,11,6896,0,2,3,0,37150,291,26,79,0,0,0,0,0,0,0,0,-32316,0,0,0,3964,0,17907,0
14634,56,-8198,1164,-42,40,15,6896,0,1,0,0,37154,299,26,79,0,0,0,0,0,0,0,0,-32316,0,0,0,3964,0,17927,0
14644,70,-8228,1200,-48,48,20,6896,8,-1,-2,0,37161,294,26,79,0,0,0,0,0,0,0,0,-32316,0,0,0,3963,0,17947,0
14654,38,-8190,1170,-55,40,21,6896,4,5,0,0,37160,296,26,79,0,0,0,0,0,0,0,0,-32316,0,0,0,3963,0,17967,0
14664,40,-8230,1160,-60,47,22,6897,-3,-7,0,0,37157,296,26,79,0,0,0,0,0,0,0,0,-32316,0,0,0,3964,0,17987,0
14674,56,-8218,1182,-57,50,23,6897,0,-4,2,0,37153,297,26,79,0,0,0,0,0,0,0,0,-32316,0,0,0,3964,0,18007,0
14684,46,-8198,1160,-54,39,22,6897,10,0,0,0,37155,299,26,79,0,0,0,0,0,0,0,0,-32316,0,0,0,3964,0,18027,0
14694,10,-8182,1126,-54,43,22,6895,-8,-8,1,0,37155,295,26,79,0,0,0,0,0,0,0,0,-32316,0,0,0,3964,0,18047,0
14704,6,-8208,1108,-52,42,18,6895,0,1,1,0,37153,294,26,79,0,0,0,0,0,0,0,0,-32316,0,0,0,3964,0,18067,0
14714,2,-8206,1124,-51,45,18,6895,1,-7,0,0,37154,304,26,79,0,0,0,0,0,0,0,0,-32316,0,0,0,3964,0,18087,0
14724,46,-8218,1140,-52,33,13,6896,6,0,2,0,37157,302,26,79,0,0,0,0,0,0,0,0,-32316,0,0,0,3964,0,18107,0
14734,18,-8224,1150,-50,45,10,6895,-1,-2,0,0,37157,302,26,79,0,0,0,0,0,0,0,0,-32316,0,0,0,3964,0,18127,0
14744,46,-8194,1150,-51,40,7,6895,5,5,3,0,37161,293,26,79,0,0,0,0,0,0,0,0,-32315,0,0,0,3964,0,18147,0
14754,46,-8206,1162,-50,35,10,6896,0,3,1,0,37160,288,26,79,0,0,0,0,0,0,0,0,-32316,0,0,0,3964,0,18167,0
14764,56,-8212,1172,-50,38,11,6897,6,1,0,0,37163,290,26,79,0,0,0,0,0,0,0,0,-32316,0,0,0,3964,0,18187,0
14774,58,-8198,1164,-55,48,12,6896,-6,1,2,0,37160,290,26,79,0,0,0,0,0,0,0,0,-32316,0,0,0,3964,0,18207,0
14784,48,-8186,1166,-58,48,14,6896,9,-4,0,0,37159,293,26,79,0,0,0,0,0,0,0,0,-32316,0,0,0,3964,0,18227,0
14794,54,-8198,1134,-55,40,17,6896,0,3,1,0,37157,293,26,79,0,0,0,0,0,0,0,0,-32316,0,0,0,3964,0,18247,0
14804,40,-8216,1142,-56,43,20,6895,-10,-1,0,0,37158,297,26,79,0,0,0,0,0,0,0,0,-32316,0,0,0,3964,0,18267,0
14814,14,-8198,1144,-50,43,14,6895,-5,-1,0,0,37159,298,26,79,0,0,0,0,0,0,0,0,-32316,0,0,0,3963,0,18287,0
14824,30,-8192,1116,-47,40,17,6895,-6,-8,2,0,37159,298,26,79,0,0,0,0,0,0,0,0,-32316,0,0,0,3964,0,18307,0
14834,44,-8182,1122,-46,38,11,6896,3,4,0,0,37159,300,26,79,0,0,0,0,0,0,0,0,-32316,0,0,0,3964,0,18327,0
14844,14,-8200,1134,-41,45,3,6896,4,2,0,0,37159,305,26,79,0,0,0,0,0,0,0,0,-32316,0,0,0,3964,0,18347,0
14854,62,-8210,1148,-50,42,16,6895,0,3,3,0,37163,302,26,79,0,0,0,0,0,0,0,0,-32316,0,0,0,3965,0,18367,0
14864,64,-8218,1190,-46,38,12,6895,3,2,0,0,37163,291,26,79,0,0,0,0,0,0,0,0,-32316,0,0,0,3964,0,18387,0
14874,62,-8194,1170,-51,44,10,6896,7,3,2,0,37161,296,26,79,0,0,0,0,0,0,0,0,-32316,0,0,0,3965,0,18407,0
14884,54,-8218,1162,-52,45,12,6895,0,-1,0,0,37158,293,26,79,0,0,0,0,0,0,0,0,-32316,0,0,0,3964,0,18427,0
14894,82,-8232,1168,-58,45,15,6896,3,2,1,0,37160,296,26,79,0,0,0,0,0,0,0,0,-32316,0,0,0,3964,0,18447,0
14904,26,-8192,1156,-58,46,22,6895,4,3,0,0,37161,295,26,79,0,0,0,0,0,0,0,0,-32316,0,0,0,3963,0,18467,0
14914,34,-8182,1146,-50,41,16,6896,0,3,1,0,37162,296,26,79,0,0,0,0,0,0,0,0,-32316,0,0,0,3964,0,18487,0
14924,58,-8212,1134,-56,39,18,6896,3,-1,2,0,37162,302,26,79,0,0,0,0,0,0,0,0,-32316,0,0,0,3964,0,18507,0
14934,50,-8204,1146,-53,43,15,6896,-2,-2,1,0,37162,306,26,79,0,0,0,0,0,0,0,0,-32316,0,0,0,3964,0,18527,0
14944,40,-8180,1128,-56,44,18,6896,4,-2,0,0,37163,308,26,79,0,0,0,0,0,0,0,0,-32316,0,0,0,3963,0,18547,0
14954,20,-8216,1172,-50,38,19,6895,-7,-3,2,0,37170,315,26,79,0,0,0,0,0,0,0,0,-32316,0,0,0,3964,0,18567,0
14964,44,-8184,1148,-54,41,21,6896,0,2,0,0,37168,312,26,79,0,0,0,0,0,0,0,0,-32316,0,0,0,3964,0,18587,0
14974,52,-8210,1164,-59,42,17,6897,5,0,3,0,37167,306,26,79,0,0,0,0,0,0,0,0,-32316,0,0,0,3964,0,18607,0
14984,40,-8236,1158,-56,47,24,6895,-4,2,1,0,37160,303,26,79,0,0,0,0,0,0,0,0,-32316,0,0,0,3964,0,18627,0
14994,66,-8214,1160,-61,41,18,6896,-11,2,0,0,37160,300,26,79,0,0,0,0,0,0,0,0,-32316,0,0,0,3963,0,18647,0
15004,32,-8218,1136,-54,43,22,6895,-2,-4,1,0,37157,299,26,79,0,0,0,0,0,0,0,0,-32316,0,0,0,3964,0,18667,0
15014,18,-8202,1124,-59,41,17,6895,0,-1,-1,0,37154,294,26,79,0,0,0,0,0,0,0,0,-32316,0,0,0,3964,0,18687,0
15024,30,-8210,1110,-54,38,16,6895,0,0,2,0,37154,297,26,79,0,0,0,0,0,0,0,0,-32316,0,0,0,3965,0,18707,0
15034,32,-8180,1122,-54,38,19,6897,3,7,0,0,37157,296,26,79,0,0,0,0,0,0,0,0,-32316,0,0,0,3964,0,18727,0
15044,22,-8200,1144,-48,40,12,6895,0,-5,0,0,37157,301,26,79,0,0,0,0,0,0,0,0,-32315,0,0,0,3964,0,18747,0
15054,40,-8194,1156,-50,43,8,6895,-7,0,3,0,37160,301,26,79,0,0,0,0,0,0,0,0,-32316,0,0,0,3964,0,18767,0
15064,36,-8198,1152,-53,43,9,6896,0,-3,-1,0,37157,299,26,79,0,0,0,0,0,0,0,0,-32316,0,0,0,3964,0,18787,0
15074,74,-8192,1160,-53,42,14,6896,-3,-2,0,0,37159,300,26,79,0,0,0,0,0,0,0,0,-32316,0,0,0,3964,0,18807,0
15084,60,-8202,1156,-51,42,15,6895,-7,-6,-1,0,37160,292,26,79,0,0,0,0,0,0,0,0,-32316,0,0,0,3964,0,18827,0
15094,50,-8198,1148,-49,44,18,6897,3,2,-1,0,37157,300,26,79,0,0,0,0,0,0,0,0,-32316,0,0,0,3963,0,18847,0
15104,58,-8208,1170,-52,42,20,6896,-1,2,-2,0,37156,297,26,79,0,0,0,0,0,0,0,0,-32316,0,0,0,3964,0,18867,0
15114,70,-8224,1144,-55,43,26,6897,1,1,-2,0,37154,299,26,79,0,0,0,0,0,0,0,0,-32316,0,0,0,3964,0,18887,0
15124,66,-8206,1152,-60,43,28,6895,0,-5,1,0,37153,294,26,79,0,0,0,0,0,0,0,0,-32316,0,0,0,3964,0,18907,0
15134,42,-8216,1160,-61,42,32,6896,-3,-1,0,0,37155,294,26,79,0,0,0,0,0,0,0,0,-32316,0,0,0,3964,0,18927,0
15144,8,-8212,1158,-64,43,29,6895,-2,-1,2,0,37157,296,26,79,0,0,0,0,0,0,0,0,-32316,0,0,0,3964,0,18947,0
15154,2,-8222,1166,-64,52,24,6897,7,0,3,0,37162,305,26,79,0,0,0,0,0,0,0,0,-32316,0,0,0,3964,0,18967,0
15164,42,-8200,1118,-64,42,24,6894,0,-1,0,0,37162,301,26,79,0,0,0,0,0,0,0,0,-32316,0,0,0,3964,0,18987,0
15174,54,-8192,1128,-61,48,24,6895,-7,2,0,0,37162,300,26,79,0,0,0,0,0,0,0,0,-32316,0,0,0,3964,0,19007,0
15184,46,-8194,1158,-60,42,26,6896,-3,1,1,0,37163,298,26,79,0,0,0,0,0,0,0,0,-32316,0,0,0,3964,0,19027,0
15194,42,-8194,1132,-64,41,23,6896,0,0,0,0,37158,296,26,79,0,0,0,0,0,0,0,0,-32316,0,0,0,3964,0,19047,0
15204,18,-8200,1102,-64,44,21,6898,12,3,-1,0,37157,303,26,79,0,0,0,0,0,0,0,0,-32316,0,0,0,3964,0,19067,0
15214,40,-8202,1130,-59,44,18,6895,-8,-2,0,0,37156,305,26,79,0,0,0,0,0,0,0,0,-32316,0,0,0,3964,0,19087,0
15224,44,-8198,1124,-52,43,19,6897,0,-1,2,0,37154,304,26,79,0,0,0,0,0,0,0,0,-32316,0,0,0,3964,0,19107,0
15234,54,-8156,1144,-55,38,21,6895,1,5,1,0,37153,298,26,79,0,0,0,0,0,0,0,0,-32316,0,0,0,3964,0,19127,0
15244,18,-8210,1138,-53,37,14,6896,1,0,2,0,37149,304,26,79,0,0,0,0,0,0,0,0,-32316,0,0,0,3964,0,19147,0
15254,24,-8202,1136,-52,40,16,6896,3,0,2,0,37149,302,26,79,0,0,0,0,0,0,0,0,-32316,0,0,0,3964,0,19167,0
15264,36,-8192,1144,-49,41,13,6896,-3,3,1,0,37146,306,26,79,0,0,0,0,0,0,0,0,-32316,0,0,0,3964,0,19187,0
15274,10,-8200,1124,-49,38,12,6897,7,-1,1,0,37147,302,26,79,0,0,0,0,0,0,0,0,-32316,0,0,0,3965,0,19207,0
15284,38,-8222,1150,-46,39,12,6895,-3,0,0,0,37150,302,26,79,0,0,0,0,0,0,0,0,-32316,0,0,0,3964,0,19227,0
15294,64,-8224,1142,-56,44,14,6897,5,-4,2,0,37150,306,26,79,0,0,0,0,0,0,0,0,-32316,0,0,0,3964,0,19247,0
15304,34,-8206,1132,-51,41,16,6896,-8,1,0,0,37147,306,26,79,0,0,0,0,0,0,0,0,-32316,0,0,0,3964,0,19267,0
15314,56,-8194,1130,-50,42,21,6895,0,1,1,0,37146,309,26,79,0,0,0,0,0,0,0,0,-32316,0,0,0,3964,0,19287,0
15324,38,-8226,1152,-46,42,15,6896,5,0,2,0,37148,302,26,79,0,0,0,0,0,0,0,0,-32316,0,0,0,3966,0,19307,0
15334,36,-8216,1146,-46,39,12,6896,3,-3,0,0,37148,305,26,79,0,0,0,0,0,0,0,0,-32316,0,0,0,3964,0,19327,0
15344,36,-8178,1144,-46,43,10,6895,-1,-3,0,0,37146,307,26,79,0,0,0,0,0,0,0,0,-32316,0,0,0,3964,0,19347,0
15354,46,-8188,1160,-51,43,11,6895,-4,2,0,0,37144,300,26,79,0,0,0,0,0,0,0,0,-32316,0,0,0,3964,0,19367,0
15364,56,-8230,1136,-51,44,12,6896,0,-1,0,0,37151,292,26,79,0,0,0,0,0,0,0,0,-32316,0,0,0,3964,0,19387,0
15374,60,-8204,1148,-53,44,12,6897,0,0,1,0,37154,290,26,79,0,0,0,0,0,0,0,0,-32316,0,0,0,3964,0,19412,0
15384,58,-8198,1148,-50,45,19,6897,11,6,0,0,37154,289,26,79,0,0,0,0,0,0,0,0,-32316,0,0,0,3964,0,19433,0
15394,58,-8210,1172,-55,45,24,6895,-3,4,1,0,37146,297,26,79,0,0,0,0,0,0,0,0,-32316,0,0,0,3964,0,19453,0
15404,30,-8186,1138,-54,44,20,6895,3,-6,0,0,37146,298,26,79,0,0,0,0,0,0,0,0,-32316,0,0,0,3965,0,19473,0
15414,28,-8216,1150,-51,44,22,6896,-2,1,0,0,37145,296,26,79,0,0,0,0,0,0,0,0,-32316,0,0,0,3964,0,19493,0
15424,16,-8194,1142,-52,40,19,6895,0,-1,1,0,37145,292,26,79,0,0,0,0,0,0,0,0,-32316,0,0,0,3964,0,19513,0
15434,46,-8182,1122,-52,38,17,6895,2,-1,0,0,37145,292,26,79,0,0,0,0,0,0,0,0,-32316,0,0,0,3964,0,19533,0
15444,12,-8216,1150,-53,45,20,6897,10,0,0,0,37146,298,26,79,0,0,0,0,0,0,0,0,-32316,0,0,0,3965,0,19553,0
15454,10,-8218,1144,-49,41,16,6895,1,5,0,0,37147,299,26,79,0,0,0,0,0,0,0,0,-32316,0,0,0,3964,0,19573,0
15464,8,-8244,1158,-53,42,13,6896,1,4,-1,0,37153,313,26,79,0,0,0,0,0,0,0,0,-32316,0,0,0,3964,0,19593,0
15474,70,-8200,1130,-54,40,11,6898,2,-5,2,0,37155,310,26,79,0,0,0,0,0,0,0,0,-32316,0,0,0,3964,0,19614,0
15484,46,-8202,1134,-51,40,14,6896,-4,7,0,0,37153,308,26,79,0,0,0,0,0,0,0,0,-32316,0,0,0,3966,0,19634,0
15494,38,-8196,1142,-53,42,12,6895,-6,1,0,0,37148,296,26,79,0,0,0,0,0,0,0,0,-32316,0,0,0,3965,0,19654,0
15504,76,-8204,1128,-50,43,17,6896,1,5,1,0,37150,300,26,79,0,0,0,0,0,0,0,0,-32316,0,0,0,3964,0,19674,0
15514,60,-8208,1142,-52,45,15,6896,2,-1,0,0,37149,302,26,79,0,0,0,0,0,0,0,0,-32316,0,0,0,3965,0,19694,0
15524,36,-8180,1116,-53,44,17,6896,3,-3,1,0,37148,292,26,79,0,0,0,0,0,0,0,0,-32316,0,0,0,3964,0,19714,0
15534,32,-8210,1138,-44,39,17,6895,0,0,0,0,37148,290,26,79,0,0,0,0,0,0,0,0,-32316,0,0,0,3965,0,19734,0
15544,42,-8222,1148,-51,42,19,6894,-7,-1,1,0,37149,297,26,79,0,0,0,0,0,0,0,0,-32316,0,0,0,3966,0,19754,0
15554,40,-8204,1178,-53,44,22,6897,4,0,1,0,37152,294,26,79,0,0,0,0,0,0,0,0,-32316,0,0,0,3965,0,19774,0
15564,28,-8202,1132,-50,48,19,6895,-3,3,0,0,37148,291,26,79,0,0,0,0,0,0,0,0,-32316,0,0,0,3966,0,19794,0
15574,22,-8214,1140,-55,40,19,6895,-1,-2,3,0,37149,290,26,79,0,0,0,0,0,0,0,0,-32316,0,0,0,3966,0,19814,0
15584,30,-8182,1150,-54,43,17,6895,-1,-3,0,0,37152,295,26,79,0,0,0,0,0,0,0,0,-32316,0,0,0,3964,0,19834,0
15594,56,-8202,1144,-53,40,18,6896,4,-4,1,0,37155,297,26,79,0,0,0,0,0,0,0,0,-32316,0,0,0,3965,0,19854,0
15604,48,-8200,1140,-54,42,18,6896,4,-3,0,0,37153,294,26,79,0,0,0,0,0,0,0,0,-32316,0,0,0,3966,0,19874,0
15614,60,-8220,1142,-51,41,21,6895,-3,1,0,0,37149,293,26,79,0,0,0,0,0,0,0,0,-32316,0,0,0,3966,0,19894,0
15624,10,-8258,1132,-51,37,22,6895,0,1,0,0,37150,299,26,79,0,0,0,0,0,0,0,0,-32316,0,0,0,3966,0,19914,0
15634,56,-8224,1140,-50,32,25,6894,-7,5,-1,0,37151,306,26,79,0,0,0,0,0,0,0,0,-32316,0,0,0,3966,0,19934,0
15644,0,-8210,1150,-49,35,20,6896,0,-2,0,0,37153,311,26,79,0,0,0,0,0,0,0,0,-32316,0,0,0,3965,0,19954,0
15654,-18,-8254,1158,-53,46,15,6894,-6,-2,2,0,37151,300,26,79,0,0,0,0,0,0,0,0,-32316,0,0,0,3966,0,19974,0
15664,38,-8180,1144,-54,39,10,6896,-1,3,1,0,37152,296,26,79,0,0,0,0,0,0,0,0,-32316,0,0,0,3965,0,19994,0
15674,36,-8172,1136,-50,43,13,6894,-3,1,2,0,37162,293,26,79,0,0,0,0,0,0,0,0,-32316,0,0,0,3965,0,20014,0
15684,58,-8210,1124,-52,38,17,6895,5,3,0,0,37163,305,26,79,0,0,0,0,0,0,0,0,-32316,0,0,0,3966,0,20034,0
15694,16,-8200,1162,-50,40,21,6895,-7,-2,0,0,37161,301,26,79,0,0,0,0,0,0,0,0,-32316,0,0,0,3966,0,20054,0
15704,62,-8206,1152,-49,41,15,6895,-1,-2,1,0,37153,298,26,79,0,0,0,0,0,0,0,0,-32316,0,0,0,3966,0,20074,0
15714,32,-8198,1146,-54,39,19,6896,5,1,0,0,37152,291,26,79,0,0,0,0,0,0,0,0,-32316,0,0,0,3966,0,20094,0
15724,24,-8196,1130,-50,41,21,6895,0,1,1,0,37154,286,26,79,0,0,0,0,0,0,0,0,-32316,0,0,0,3966,0,20114,0
15734,-4,-8210,1132,-51,38,17,6896,1,-2,0,0,37157,292,26,79,0,0,0,0,0,0,0,0,-32316,0,0,0,3965,0,20134,0
15744,20,-8212,1156,-52,39,12,6896,-5,1,0,0,37155,296,26,79,0,0,0,0,0,0,0,0,-32316,0,0,0,3966,0,20154,0
15754,32,-8226,1124,-53,42,13,6896,11,1,3,0,37154,302,26,79,0,0,0,0,0,0,0,0,-32316,0,0,0,3965,0,20174,0
15764,46,-8214,1144,-49,36,15,6896,-2,-3,0,0,37155,302,26,79,0,0,0,0,0,0,0,0,-32316,0,0,0,3966,0,20194,0
15774,30,-8212,1148,-51,40,16,6895,-12,-6,0,0,37159,303,26,79,0,0,0,0,0,0,0,0,-32316,0,0,0,3966,0,20214,0
15784,24,-8208,1156,-49,45,16,6895,7,5,0,0,37160,303,26,79,0,0,0,0,0,0,0,0,-32316,0,0,0,3965,0,20234,0
15794,12,-8206,1144,-47,41,15,6897,0,-3,0,0,37158,308,26,79,0,0,0,0,0,0,0,0,-32316,0,0,0,3966,0,20254,0
15804,28,-8202,1144,-51,35,6,6896,2,0,1,0,37160,312,26,79,0,0,0,0,0,0,0,0,-32316,0,0,0,3965,0,20274,0
15814,20,-8226,1124,-50,36,15,6895,-1,4,0,0,37159,305,26,79,0,0,0,0,0,0,0,0,-32316,0,0,0,3966,0,20294,0
15824,40,-8212,1142,-51,38,13,6895,-2,3,2,0,37169,293,26,79,0,0,0,0,0,0,0,0,-32316,0,0,0,3967,0,20314,0
15834,34,-8188,1144,-52,40,13,6896,3,4,0,0,37182,292,26,79,0,0,0,0,0,0,0,0,-32316,0,0,0,3965,0,20334,0
15844,310,-8144,1186,-46,19,24,6844,-213,-95,-881,-872,37191,304,26,79,0,0,0,0,0,0,0,0,-32316,0,0,0,3965,0,20354,0
15854,-16,-8236,1134,-39,8,39,6652,-500,-388,-946,-1592,37182,317,26,79,0,0,0,0,0,0,0,0,-32316,0,0,0,3966,0,20374,0
15864,-132,-8210,1176,-43,33,30,6345,-748,-488,-1029,-2256,37164,331,26,79,0,0,0,0,0,0,0,0,-32316,0,0,0,3968,0,20394,0
15874,-104,-8212,1170,-41,54,14,5928,-989,-429,-994,-2888,37147,337,26,79,0,0,0,0,0,0,0,0,-32316,0,0,0,3967,0,20414,0
15884,144,-8210,1088,-33,64,5,5403,-1224,-416,-1011,-3448,37139,378,26,79,0,0,0,0,0,0,0,0,-32316,0,0,0,3967,0,20434,0
15894,178,-8178,1006,-32,59,3,4769,-1456,-417,-1036,-3976,37129,396,26,79,0,0,0,0,0,0,0,0,-32316,0,0,0,3967,0,20454,0
15904,146,-8222,1118,-14,46,19,4041,-1651,-396,-1009,-4336,37119,416,26,79,0,0,0,0,0,0,0,0,-32317,0,0,0,3966,0,20474,0
15914,98,-8262,1094,-3,42,23,3311,-1832,-348,-1015,-4696,37108,417,26,79,0,0,0,0,0,0,0,0,-32317,0,0,0,3966,0,20494,0
15924,10,-8180,1136,8,16,16,2400,-2083,-366,-1013,-5248,37100,428,26,79,0,0,0,0,0,0,0,0,-32316,0,0,0,3967,0,20514,0
15934,24,-8228,1072,11,10,21,1361,-2376,-456,-1075,-5520,37089,448,26,79,0,0,0,0,0,0,0,0,-32316,0,0,0,3967,0,20534,0
15944,58,-8206,1144,-39,9,20,205,-2595,-470,-1084,-5712,37076,470,26,79,0,0,0,0,0,0,0,0,-32316,0,0,0,3966,0,20554,0
15954,48,-8236,1186,-46,39,16,-980,-2584,-251,-900,-6120,37068,469,26,79,0,0,0,0,0,0,0,0,-32316,0,0,0,3967,0,20574,0
15964,78,-8196,1206,-71,15,24,-2116,-2469,71,-840,-6688,37066,465,26,79,0,0,0,0,0,0,0,0,-32316,0,0,0,3966,0,20594,0
15974,76,-8170,1130,-73,8,12,-3258,-2543,76,-1010,-6920,37064,471,26,79,0,0,0,0,0,0,0,0,-32316,0,0,0,3967,0,20614,0
15984,106,-8198,1130,-100,44,13,-4458,-2673,-140,-1031,-6872,37062,484,26,79,0,0,0,0,0,0,0,0,-32317,0,0,0,3967,0,20634,0
15994,116,-8182,1122,-107,58,16,-5736,-2892,-269,-1017,-7240,37058,494,26,79,0,0,0,0,0,0,0,0,-32315,0,0,0,3968,0,20654,0
16004,76,-8220,1050,-116,77,31,-7172,-3293,-481,-1067,-7824,37050,503,26,79,0,0,0,0,0,0,0,0,-32316,0,0,0,3968,0,20674,0
16014,-52,-8234,1188,-71,88,17,-8760,-3525,-604,-1052,-8144,37034,521,26,79,0,0,0,0,0,0,0,0,-32316,0,0,0,3967,0,20694,0
16024,86,-8132,1122,-32,113,-5,-10307,-3343,-160,-739,-8856,37026,531,26,79,0,0,0,0,0,0,0,0,-32315,0,0,0,3966,0,20714,0
16034,2394,-7518,1306,6,76,-223,-11835,-3377,139,-1129,-8112,37020,542,26,79,0,0,0,0,0,0,0,0,-32315,0,0,0,3963,0,20734,0
16044,-26448,-4598,2616,-853,3982,-2644,-12996,-2049,780,-1256,-3648,37021,536,26,79,0,0,0,0,0,0,0,0,-32316,0,0,0,3850,-11,20754,0
16054,-6658,-12816,8070,-390,1117,-1832,-13225,176,2714,-702,112,37038,488,26,79,0,0,0,0,0,0,0,0,-32316,0,0,0,3803,-1,20774,0
16064,24514,-8734,-3136,-425,-610,441,-12820,980,3000,-623,280,37069,409,26,79,0,0,0,0,0,0,0,0,-32316,0,0,0,3826,2,20794,0
16074,13054,-7018,-3104,154,-1316,1383,-12573,281,615,-1311,-216,37110,317,26,79,0,0,0,0,0,0,0,0,-32316,0,0,0,3852,2,20814,0
16084,-5848,-9530,2486,625,-1478,915,-12576,-14,-893,-1019,-240,37134,277,26,79,0,0,0,0,0,0,0,0,-32316,0,0,0,3863,1,20834,0
16094,-6268,-6278,-152,314,-639,490,-12501,245,-220,-1015,-64,37141,279,26,79,0,0,0,0,0,0,0,0,-32316,0,0,0,3884,2,20854,0
16104,-1076,-8726,3312,-108,1035,66,-12349,335,324,-970,-80,37144,280,26,79,0,0,0,0,0,0,0,0,-32316,0,0,0,3891,0,20874,0
16114,2218,-8068,3016,-213,1105,-203,-12278,46,-55,-972,-400,37139,276,26,79,0,0,0,0,0,0,0,0,-32316,0,0,0,3886,-1,20894,0
16124,978,-7852,544,-145,106,-73,-12345,-188,-464,-991,-536,37139,271,26,79,0,0,0,0,0,0,0,0,-32316,0,0,0,3878,-1,20914,0
16134,-586,-8548,1306,-83,-39,49,-12398,-68,-196,-1039,-320,37139,278,26,79,0,0,0,0,0,0,0,0,-32316,0,0,0,3874,0,20934,0
16144,-518,-8060,1602,-105,-95,45,-12378,71,206,-1011,-224,37141,293,26,79,0,0,0,0,0,0,0,0,-32316,0,0,0,3876,0,20954,0
16154,-322,-7988,1094,-141,71,-72,-12373,-24,90,-980,-320,37140,293,26,79,0,0,0,0,0,0,0,0,-32316,0,0,0,3877,0,20974,0
16164,124,-8408,562,-71,155,-99,-12387,-25,-87,-998,-312,37137,294,26,79,0,0,0,0,0,0,0,0,-32315,0,0,0,3875,0,20994,0
16174,1218,-8126,702,-54,64,-41,-12387,1,3,-1002,-304,37137,289,26,79,0,0,0,0,0,0,0,0,-32316,0,0,0,3875,0,21014,0
16184,568,-8218,1320,-40,-29,78,-12388,6,24,-1003,-296,37141,290,26,79,0,0,0,0,0,0,0,0,-32316,0,0,0,3875,0,21034,0
16194,-178,-8210,1264,-56,-18,86,-12384,17,7,-1001,-296,37153,284,26,79,0,0,0,0,0,0,0,0,-32316,0,0,0,3875,0,21054,0
16204,-438,-8370,1068,-75,66,-13,-12386,-9,2,-1000,-288,37151,286,26,79,0,0,0,0,0,0,0,0,-32316,0,0,0,3876,0,21074,0
16214,106,-8174,866,-66,91,-35,-12385,-8,-13,-998,-296,37149,295,26,79,0,0,0,0,0,0,0,0,-32315,0,0,0,3875,0,21094,0
16224,614,-8194,912,-32,28,32,-12387,0,-1,-1000,-296,37143,294,26,79,0,0,0,0,0,0,0,0,-32316,0,0,0,3874,0,21114,0
16234,350,-8256,1264,-29,5,47,-12386,1,6,-1003,-296,37146,295,26,79,0,0,0,0,0,0,0,0,-32316,0,0,0,3876,0,21134,0
16244,-238,-8218,1592,-75,39,14,-12385,12,4,-999,-296,37146,292,26,79,0,0,0,0,0,0,0,0,-32316,0,0,0,3876,0,21154,0
16254,-230,-8268,1402,-105,65,1,-12387,-3,-4,-1001,-288,37144,298,26,79,0,0,0,0,0,0,0,0,-32316,0,0,0,3875,0,21174,0
16264,408,-8270,890,-107,53,-8,-12387,-5,1,-998,-312,37142,297,26,79,0,0,0,0,0,0,0,0,-32316,0,0,0,3875,0,21194,0
16274,504,-8154,698,-78,26,15,-12387,-1,-3,-1000,-288,37141,299,26,79,0,0,0,0,0,0,0,0,-32316,0,0,0,3874,0,21214,0
16284,34,-8096,774,-27,18,45,-12387,2,4,-1002,-304,37143,299,26,79,0,0,0,0,0,0,0,0,-32316,0,0,0,3875,0,21234,0
16294,-174,-8242,1006,-17,25,17,-12385,9,5,-1000,-288,37146,295,26,79,0,0,0,0,0,0,0,0,-32316,0,0,0,3875,0,21254,0
16304,48,-8206,1264,-25,57,-21,-12387,-2,-3,-1000,-304,37145,290,26,79,0,0,0,0,0,0,0,0,-32315,0,0,0,3876,0,21274,0
16314,226,-8214,1260,-34,49,-9,-12387,3,-5,-1000,-304,37144,282,26,79,0,0,0,0,0,0,0,0,-32316,0,0,0,3876,0,21294,0
16324,314,-8254,1178,-50,21,15,-12387,0,-2,-1001,-304,37146,284,26,79,0,0,0,0,0,0,0,0,-32316,0,0,0,3875,0,21314,0
16334,248,-8244,1210,-59,22,6,-12388,-6,-4,-1003,-296,37143,286,26,79,0,0,0,0,0,0,0,0,-32316,0,0,0,3875,0,21334,0
16344,84,-8164,1156,-64,40,10,-12387,2,-1,-1001,-296,37144,291,26,79,0,0,0,0,0,0,0,0,-32315,0,0,0,3875,0,21354,0
16354,132,-8210,1044,-65,43,16,-12389,-1,0,-999,-288,37141,283,26,79,0,0,0,0,0,0,0,0,-32315,0,0,0,3875,0,21374,0
16364,282,-8262,1022,-52,42,11,-12388,0,-1,-1000,-296,37140,287,26,79,0,0,0,0,0,0,0,0,-32315,0,0,0,3876,0,21394,0
16374,244,-8198,1158,-50,40,25,-12387,-3,-3,-999,-296,37141,289,26,79,0,0,0,0,0,0,0,0,-32316,0,0,0,3874,0,21414,0
16384,76,-8206,1218,-66,36,31,-12388,5,4,-1002,-296,37143,295,26,79,0,0,0,0,0,0,0,0,-32315,0,0,0,3875,0,21434,0
16394,78,-8228,1150,-71,44,9,-12388,-1,4,-1000,-304,37144,294,26,79,0,0,0,0,0,0,0,0,-32316,0,0,0,3875,0,21454,0
16404,162,-8154,1062,-61,45,17,-12386,8,3,-998,-296,37147,298,26,79,0,0,0,0,0,0,0,0,-32315,0,0,0,3875,0,21474,0
16414,228,-8254,996,-59,43,22,-12388,-4,1,-1003,-296,37145,297,26,79,0,0,0,0,0,0,0,0,-32316,0,0,0,3875,0,21494,0
16424,148,-8282,1002,-50,36,17,-12388,4,2,-999,-296,37144,296,26,79,0,0,0,0,0,0,0,0,-32315,0,0,0,3876,0,21514,0
16434,90,-8186,1098,-47,39,10,-12388,-10,-6,-1000,-296,37142,292,26,79,0,0,0,0,0,0,0,0,-32315,0,0,0,3875,0,21534,0
16444,110,-8202,1100,-40,39,11,-12388,-3,-1,-1001,-296,37142,289,26,79,0,0,0,0,0,0,0,0,-32316,0,0,0,3876,0,21554,0
16454,170,-8240,1112,-41,38,14,-12388,0,-2,-1000,-304,37141,282,26,79,0,0,0,0,0,0,0,0,-32316,0,0,0,3874,0,21574,0
16464,218,-8222,1156,-50,41,12,-12387,0,1,-999,-304,37139,279,26,79,0,0,0,0,0,0,0,0,-32315,0,0,0,3875,0,21594,0
16474,140,-8200,1146,-51,36,25,-12388,4,2,-1001,-296,37141,276,26,79,0,0,0,0,0,0,0,0,-32315,0,0,0,3875,0,21615,0
16484,78,-8264,1110,-49,42,19,-12387,-3,-2,-1005,-304,37144,274,26,79,0,0,0,0,0,0,0,0,-32316,0,0,0,3875,0,21635,0
16494,172,-8192,1152,-50,40,6,-12387,7,1,-1001,-296,37145,277,26,79,0,0,0,0,0,0,0,0,-32316,0,0,0,3875,0,21655,0
16504,208,-8178,1118,-61,41,18,-12389,1,-4,-999,-304,37146,276,26,79,0,0,0,0,0,0,0,0,-32316,0,0,0,3875,0,21675,0
16514,180,-8250,1110,-61,39,27,-12386,4,-1,-1000,-304,37152,283,26,79,0,0,0,0,0,0,0,0,-32316,0,0,0,3875,0,21695,0
16524,152,-8210,1134,-58,41,14,-12388,-3,-4,-1002,-296,37156,284,26,79,0,0,0,0,0,0,0,0,-32316,0,0,0,3874,0,21715,0
16534,162,-8164,1078,-56,50,21,-12389,-6,-3,-1004,-296,37154,285,26,79,0,0,0,0,0,0,0,0,-32315,0,0,0,3875,0,21735,0
16544,170,-8230,1048,-52,44,27,-12387,5,0,-1003,-304,37151,285,26,79,0,0,0,0,0,0,0,0,-32316,0,0,0,3875,0,21755,0
16554,180,-8232,1066,-58,39,23,-12389,-7,-1,-998,-288,37152,291,26,79,0,0,0,0,0,0,0,0,-32316,0,0,0,3875,0,21775,0
16564,122,-8182,1070,-49,41,28,-12388,-3,0,-1000,-296,37151,292,26,79,0,0,0,0,0,0,0,0,-32316,0,0,0,3875,0,21795,0
16574,116,-8206,1060,-46,40,27,-12387,-3,7,-1001,-304,37151,301,26,79,0,0,0,0,0,0,0,0,-32315,0,0,0,3875,0,21815,0
16584,84,-8280,1126,-49,42,13,-12387,-9,-4,-1004,-288,37148,304,26,79,0,0,0,0,0,0,0,0,-32315,0,0,0,3875,0,21835,0
16594,162,-8204,1152,-47,45,13,-12389,-12,0,-1001,-296,37145,303,26,79,0,0,0,0,0,0,0,0,-32315,0,0,0,3875,0,21855,0
16604,150,-8198,1080,-55,34,14,-12386,-4,0,-1000,-296,37145,297,26,79,0,0,0,0,0,0,0,0,-32316,0,0,0,3875,0,21875,0
16614,120,-8244,1106,-51,40,14,-12387,2,2,-1000,-304,37146,284,26,79,0,0,0,0,0,0,0,0,-32315,0,0,0,3875,0,21895,0
16624,180,-8198,1116,-47,45,12,-12389,-2,1,-1003,-304,37149,284,26,79,0,0,0,0,0,0,0,0,-32315,0,0,0,3875,0,21915,0
16634,204,-8188,1102,-51,43,22,-12387,-2,-6,-1003,-288,37149,290,26,79,0,0,0,0,0,0,0,0,-32316,0,0,0,3875,0,21935,0
16644,146,-8248,1074,-54,37,13,-12387,1,-2,-1001,-304,37150,291,26,79,0,0,0,0,0,0,0,0,-32316,0,0,0,3875,0,21955,0
16654,162,-8206,1092,-49,39,15,-12386,6,-1,-998,-288,37148,288,26,79,0,0,0,0,0,0,0,0,-32316,0,0,0,3875,0,21975,0
16664,84,-8206,1090,-51,37,26,-12388,-7,3,-1000,-296,37148,281,26,79,0,0,0,0,0,0,0,0,-32315,0,0,0,3875,0,21995,0
16674,142,-8242,1112,-48,40,20,-12386,6,2,-1000,-288,37148,284,26,79,0,0,0,0,0,0,0,0,-32316,0,0,0,3876,0,22015,0
16684,130,-8230,1122,-49,45,18,-12386,3,-5,-1002,-288,37151,286,26,79,0,0,0,0,0,0,0,0,-32316,0,0,0,3875,0,22035,0
16694,146,-8200,1112,-51,38,18,-12386,5,-4,-1002,-296,37151,290,26,79,0,0,0,0,0,0,0,0,-32316,0,0,0,3875,0,22055,0
16704,170,-8208,1106,-52,42,18,-12387,-3,0,-1000,-312,37150,280,26,79,0,0,0,0,0,0,0,0,-32316,0,0,0,3875,0,22075,0
16714,148,-8216,1168,-52,47,13,-12386,0,-1,-999,-296,37145,287,26,79,0,0,0,0,0,0,0,0,-32316,0,0,0,3875,0,22095,0
16724,176,-8182,1132,-60,48,25,-12387,-1,-2,-1003,-304,37151,287,26,79,0,0,0,0,0,0,0,0,-32316,0,0,0,3875,0,22115,0
16734,164,-8216,1104,-59,47,21,-12386,4,3,-1002,-288,37154,294,26,79,0,0,0,0,0,0,0,0,-32316,0,0,0,3875,0,22135,0
16744,180,-8214,1118,-58,40,20,-12385,4,1,-1000,-304,37154,296,26,79,0,0,0,0,0,0,0,0,-32316,0,0,0,3875,0,22155,0
16754,136,-8212,1104,-54,46,30,-12387,-6,1,-1000,-296,37150,297,26,79,0,0,0,0,0,0,0,0,-32316,0,0,0,3875,0,22175,0
16764,106,-8216,1076,-56,45,30,-12387,-5,-7,-1000,-304,37148,292,26,79,0,0,0,0,0,0,0,0,-32316,0,0,0,3875,0,22195,0
16774,116,-8230,1062,-56,42,16,-12386,4,2,-1000,-296,37151,290,26,79,0,0,0,0,0,0,0,0,-32316,0,0,0,3875,0,22214,0
16784,138,-8190,1086,-51,46,19,-12385,-1,3,-1001,-296,37153,285,26,79,0,0,0,0,0,0,0,0,-32316,0,0,0,3875,0,22234,0
16794,136,-8216,1110,-45,42,23,-12386,-3,-1,-1000,-296,37151,294,26,79,0,0,0,0,0,0,0,0,-32316,0,0,0,3875,0,22254,0
16804,112,-8204,1116,-47,44,12,-12386,-1,-2,-1000,-304,37150,291,26,79,0,0,0,0,0,0,0,0,-32315,0,0,0,3875,0,22274,0
16814,160,-8188,1106,-47,41,12,-12385,7,0,-1000,-280,37151,295,26,79,0,0,0,0,0,0,0,0,-32316,0,0,0,3875,0,22294,0
16824,126,-8202,1108,-47,41,22,-12386,0,-1,-1001,-304,37155,290,26,79,0,0,0,0,0,0,0,0,-32315,0,0,0,3875,0,22314,0
16834,126,-8222,1102,-52,37,20,-12385,3,-1,-1001,-296,37161,295,26,79,0,0,0,0,0,0,0,0,-32316,0,0,0,3875,0,22334,0
16844,148,-8206,1124,-48,44,15,-12387,1,-4,-1000,-304,37160,298,26,79,0,0,0,0,0,0,0,0,-32316,0,0,0,3875,0,22354,0
16854,120,-8200,1100,-56,39,15,-12386,0,-1,-999,-304,37160,296,26,79,0,0,0,0,0,0,0,0,-32315,0,0,0,3875,0,22374,0
16864,154,-8226,1094,-52,43,18,-12384,7,-1,-1001,-296,37156,291,26,79,0,0,0,0,0,0,0,0,-32315,0,0,0,3875,0,22394,0
16874,126,-8196,1104,-50,43,16,-12386,-3,0,-1000,-296,37155,288,26,79,0,0,0,0,0,0,0,0,-32315,0,0,0,3875,0,22414,0
16884,160,-8198,1080,-49,43,19,-12384,5,-2,-1002,-296,37154,292,26,79,0,0,0,0,0,0,0,0,-32315,0,0,0,3875,0,22434,0
16894,102,-8200,1084,-52,41,15,-12385,2,-4,-1000,-296,37154,294,26,79,0,0,0,0,0,0,0,0,-32316,0,0,0,3874,0,22454,0
16904,140,-8216,1116,-46,47,11,-12385,3,-1,-996,-296,37156,291,26,79,0,0,0,0,0,0,0,0,-32315,0,0,0,3874,0,22474,0
16914,110,-8194,1104,-48,47,15,-12386,3,0,-1002,-296,37157,293,26,79,0,0,0,0,0,0,0,0,-32315,0,0,0,3875,0,22494,0
16924,144,-8214,1112,-45,43,15,-12386,2,-2,-997,-296,37157,291,26,79,0,0,0,0,0,0,0,0,-32316,0,0,0,3875,0,22514,0
16934,132,-8220,1122,-48,43,13,-12385,0,-1,-1002,-296,37154,291,26,79,0,0,0,0,0,0,0,0,-32315,0,0,0,3875,0,22534,0
16944,112,-8202,1102,-48,39,10,-12385,6,1,-1000,-296,37158,295,26,79,0,0,0,0,0,0,0,0,-32315,0,0,0,3875,0,22554,0
16954,176,-8218,1100,-48,45,14,-12385,0,4,-1001,-304,37158,295,26,79,0,0,0,0,0,0,0,0,-32315,0,0,0,3875,0,22574,0
16964,194,-8208,1084,-49,37,17,-12386,0,-5,-1001,-304,37160,297,26,79,0,0,0,0,0,0,0,0,-32315,0,0,0,3875,0,22594,0
16974,190,-8180,1116,-46,39,20,-12386,-2,0,-1003,-304,37156,294,26,79,0,0,0,0,0,0,0,0,-32317,0,0,0,3874,0,22614,0
16984,130,-8218,1102,-54,43,22,-12386,1,-1,-999,-288,37158,287,26,79,0,0,0,0,0,0,0,0,-32315,0,0,0,3875,0,22634,0
16994,160,-8212,1118,-49,45,18,-12386,3,4,-998,-296,37155,285,26,79,0,0,0,0,0,0,0,0,-32315,0,0,0,3875,0,22654,0
17004,184,-8200,1096,-52,38,13,-12385,2,2,-1001,-304,37154,283,26,79,0,0,0,0,0,0,0,0,-32315,0,0,0,3875,0,22674,0
17014,148,-8228,1090,-53,45,21,-12384,5,2,-1000,-304,37152,291,26,79,0,0,0,0,0,0,0,0,-32315,0,0,0,3874,0,22694,0
17024,156,-8228,1110,-51,45,12,-12384,3,4,-1000,-304,37150,289,27,79,0,0,0,0,0,0,0,0,-32316,0,0,0,3875,0,22714,0
17034,118,-8204,1110,-50,45,18,-12386,3,0,-999,-296,37151,290,26,79,0,0,0,0,0,0,0,0,-32315,0,0,0,3875,0,22734,0
17044,136,-8214,1104,-51,41,22,-12386,-1,1,-1001,-304,37157,291,26,79,0,0,0,0,0,0,0,0,-32316,0,0,0,3875,0,22754,0
17054,150,-8206,1112,-50,41,23,-12385,-3,-2,-1000,-304,37157,289,27,79,0,0,0,0,0,0,0,0,-32315,0,0,0,3876,0,22774,0
17064,126,-8234,1124,-49,42,17,-12385,-1,-2,-1002,-296,37156,288,26,79,0,0,0,0,0,0,0,0,-32316,0,0,0,3875,0,22794,0
17074,154,-8234,1100,-54,47,19,-12385,-6,-2,-1001,-296,37152,290,26,79,0,0,0,0,0,0,0,0,-32316,0,0,0,3875,0,22814,0
17084,126,-8210,1118,-53,42,16,-12385,0,-1,-1002,-288,37151,292,26,79,0,0,0,0,0,0,0,0,-32316,0,0,0,3874,0,22834,0
17094,142,-8206,1096,-53,46,15,-12387,-3,-1,-1000,-296,37151,294,26,79,0,0,0,0,0,0,0,0,-32315,0,0,0,3875,0,22854,0
17104,132,-8200,1082,-49,41,21,-12386,-4,-2,-999,-304,37159,294,26,79,0,0,0,0,0,0,0,0,-32315,0,0,0,3876,0,22874,0
17114,92,-8202,1080,-55,42,15,-12386,-1,-3,-1001,-296,37163,291,26,79,0,0,0,0,0,0,0,0,-32316,0,0,0,3875,0,22894,0
17124,120,-8206,1098,-49,43,8,-12385,0,0,-1000,-296,37163,284,26,79,0,0,0,0,0,0,0,0,-32315,0,0,0,3875,0,22914,0
17134,164,-8246,1086,-49,42,9,-12385,-5,4,-1000,-296,37156,279,26,79,0,0,0,0,0,0,0,0,-32316,0,0,0,3875,0,22934,0
17144,130,-8236,1092,-53,36,15,-12385,-2,-2,-1002,-296,37158,265,26,79,0,0,0,0,0,0,0,0,-32316,0,0,0,3874,0,22954,0
17154,132,-8214,1120,-48,40,11,-12385,-6,-2,-1000,-296,37160,263,26,79,0,0,0,0,0,0,0,0,-32316,0,0,0,3875,0,22974,0
17164,132,-8232,1114,-48,40,17,-12386,-1,-5,-1003,-296,37161,267,26,79,0,0,0,0,0,0,0,0,-32315,0,0,0,3875,0,22994,0
17174,192,-8192,1128,-45,38,14,-12385,3,2,-999,-296,37157,287,26,79,0,0,0,0,0,0,0,0,-32315,0,0,0,3874,0,23014,0
17184,162,-8190,1132,-48,42,20,-12385,-5,1,-1001,-288,37154,288,26,79,0,0,0,0,0,0,0,0,-32315,0,0,0,3875,0,23034,0
17194,184,-8242,1126,-54,34,17,-12385,5,-3,-1003,-296,37155,288,26,79,0,0,0,0,0,0,0,0,-32316,0,0,0,3875,0,23054,0
17204,146,-8222,1120,-54,47,19,-12385,0,1,-996,-288,37154,287,26,79,0,0,0,0,0,0,0,0,-32315,0,0,0,3875,0,23074,0
17214,118,-8218,1100,-54,43,23,-12385,3,2,-1002,-304,37153,299,26,79,0,0,0,0,0,0,0,0,-32316,0,0,0,3875,0,23094,0
17224,112,-8222,1114,-54,37,15,-12385,-5,-5,-1002,-304,37149,305,26,79,0,0,0,0,0,0,0,0,-32316,0,0,0,3875,0,23114,0
17234,128,-8186,1068,-56,51,24,-12385,-1,-2,-1000,-288,37147,307,26,79,0,0,0,0,0,0,0,0,-32315,0,0,0,3876,0,23134,0
17244,142,-8220,1068,-49,43,18,-12383,4,4,-998,-288,37146,297,26,79,0,0,0,0,0,0,0,0,-32316,0,0,0,3875,0,23154,0
17254,138,-8226,1096,-46,37,16,-12385,7,-1,-1000,-296,37147,292,26,79,0,0,0,0,0,0,0,0,-32315,0,0,0,3875,0,23174,0
17264,152,-8224,1120,-50,40,19,-12385,-7,-4,-1003,-304,37145,292,26,79,0,0,0,0,0,0,0,0,-32316,0,0,0,3875,0,23194,0
17274,174,-8174,1096,-49,41,19,-12385,1,-3,-1002,-296,37145,287,26,79,0,0,0,0,0,0,0,0,-32315,0,0,0,3875,0,23214,0
17284,166,-8230,1096,-51,47,18,-12384,1,3,-1000,-288,37144,289,26,79,0,0,0,0,0,0,0,0,-32316,0,0,0,3875,0,23234,0
17294,92,-8202,1122,-51,41,17,-12384,-2,-1,-1002,-296,37145,286,26,79,0,0,0,0,0,0,0,0,-32315,0,0,0,3875,0,23254,0
17304,152,-8184,1126,-53,46,20,-12384,1,-4,-1002,-304,37144,291,26,79,0,0,0,0,0,0,0,0,-32315,0,0,0,3876,0,23274,0
17314,126,-8196,1106,-55,43,22,-12384,-2,-3,-1002,-296,37142,287,26,79,0,0,0,0,0,0,0,0,-32316,0,0,0,3875,0,23294,0
17324,114,-8208,1104,-55,48,21,-12382,9,2,-1003,-288,37144,282,26,79,0,0,0,0,0,0,0,0,-32316,0,0,0,3875,0,23314,0
17334,88,-8230,1110,-51,37,20,-12384,-3,-2,-1004,-304,37146,284,26,79,0,0,0,0,0,0,0,0,-32315,0,0,0,3875,0,23334,0
17344,106,-8206,1106,-52,41,17,-12384,7,-2,-998,-288,37146,276,26,79,0,0,0,0,0,0,0,0,-32315,0,0,0,3875,0,23354,0
17354,160,-8178,1096,-56,44,16,-12385,-3,-1,-1002,-304,37143,280,26,79,0,0,0,0,0,0,0,0,-32315,0,0,0,3875,0,23374,0
17364,168,-8214,1086,-56,40,16,-12383,-3,-1,-1002,-304,37144,288,26,79,0,0,0,0,0,0,0,0,-32316,0,0,0,3875,0,23394,0
17374,184,-8208,1062,-47,43,15,-12383,3,1,-999,-304,37145,291,26,79,0,0,0,0,0,0,0,0,-32315,0,0,0,3875,0,23414,0
17384,148,-8214,1102,-45,44,13,-12384,-4,0,-1003,-296,37144,297,26,79,0,0,0,0,0,0,0,0,-32315,0,0,0,3875,0,23434,0
17394,114,-8212,1096,-50,38,14,-12383,3,-6,-1001,-304,37141,287,26,79,0,0,0,0,0,0,0,0,-32316,0,0,0,3875,0,23454,0
17404,126,-8206,1102,-49,40,10,-12385,0,2,-997,-288,37139,284,26,79,0,0,0,0,0,0,0,0,-32315,0,0,0,3875,0,23474,0
17414,118,-8222,1086,-48,39,6,-12385,-3,2,-999,-296,37141,283,26,79,0,0,0,0,0,0,0,0,-32315,0,0,0,3874,0,23494,0
17424,140,-8228,1128,-46,34,10,-12384,2,-2,-1000,-296,37140,286,26,79,0,0,0,0,0,0,0,0,-32315,0,0,0,3875,0,23514,0
17434,140,-8216,1120,-45,36,14,-12383,2,1,-999,-288,37140,287,26,79,0,0,0,0,0,0,0,0,-32316,0,0,0,3876,0,23534,0
17444,104,-8212,1102,-57,41,15,-12384,-8,-3,-1000,-288,37139,283,26,79,0,0,0,0,0,0,0,0,-32315,0,0,0,3875,0,23554,0
17454,208,-8218,1078,-52,41,13,-12384,-1,2,-1000,-296,37141,280,26,79,0,0,0,0,0,0,0,0,-32315,0,0,0,3875,0,23575,0
17464,164,-8188,1084,-47,40,7,-12384,0,-1,-1003,-304,37151,286,26,79,0,0,0,0,0,0,0,0,-32316,0,0,0,3876,0,23595,0
17474,196,-8216,1096,-48,43,11,-12384,-7,1,-1001,-296,37151,290,26,79,0,0,0,0,0,0,0,0,-32316,0,0,0,3875,0,23615,0
17484,174,-8200,1142,-46,40,15,-12383,-2,-3,-1001,-288,37151,290,26,79,0,0,0,0,0,0,0,0,-32316,0,0,0,3876,0,23635,0
17494,140,-8208,1118,-51,39,18,-12384,0,-3,-1000,-296,37144,285,26,79,0,0,0,0,0,0,0,0,-32315,0,0,0,3875,0,23655,0
17504,148,-8212,1112,-52,42,24,-12385,-10,-2,-1001,-304,37145,286,26,79,0,0,0,0,0,0,0,0,-32315,0,0,0,3875,0,23675,0
17514,106,-8218,1100,-45,44,16,-12384,3,-4,-1001,-304,37145,285,26,79,0,0,0,0,0,0,0,0,-32315,0,0,0,3876,0,23695,0
17524,142,-8212,1108,-49,38,20,-12384,1,-2,-1005,-296,37145,288,26,79,0,0,0,0,0,0,0,0,-32315,0,0,0,3875,0,23715,0
17534,162,-8222,1094,-49,45,18,-12384,1,3,-1001,-296,37145,284,26,79,0,0,0,0,0,0,0,0,-32315,0,0,0,3875,0,23735,0
17544,134,-8210,1110,-59,35,14,-12384,2,1,-999,-288,37145,283,26,79,0,0,0,0,0,0,0,0,-32315,0,0,0,3875,0,23755,0
17554,148,-8208,1092,-50,40,18,-12384,3,4,-999,-280,37145,287,26,79,0,0,0,0,0,0,0,0,-32316,0,0,0,3875,0,23775,0
17564,178,-8248,1108,-50,45,16,-12384,1,2,-1003,-304,37146,289,26,79,0,0,0,0,0,0,0,0,-32315,0,0,0,3875,0,23795,0
17574,80,-8204,1066,-48,42,16,-12384,0,0,-1006,-296,37151,284,26,79,0,0,0,0,0,0,0,0,-32316,0,0,0,3875,0,23815,0
17584,114,-8214,1072,-55,44,19,-12384,3,1,-1004,-296,37150,277,26,79,0,0,0,0,0,0,0,0,-32315,0,0,0,3875,0,23835,0
17594,126,-8234,1098,-49,45,16,-12383,0,-3,-999,-288,37149,281,26,79,0,0,0,0,0,0,0,0,-32315,0,0,0,3875,0,23855,0
17604,118,-8210,1088,-50,40,10,-12384,-6,1,-995,-296,37146,284,26,79,0,0,0,0,0,0,0,0,-32316,0,0,0,3875,0,23875,0
17614,128,-8196,1074,-46,38,14,-12384,7,1,-1003,-296,37147,284,26,79,0,0,0,0,0,0,0,0,-32315,0,0,0,3875,0,23895,0
17624,142,-8238,1108,-46,39,12,-12383,4,-5,-1002,-296,37146,282,26,79,0,0,0,0,0,0,0,0,-32315,0,0,0,3875,0,23915,0
17634,136,-8206,1116,-45,39,11,-12384,0,7,-1000,-288,37146,287,26,79,0,0,0,0,0,0,0,0,-32315,0,0,0,3876,0,23935,0
17644,176,-8190,1106,-47,39,14,-12384,0,0,-1000,-296,37146,286,26,79,0,0,0,0,0,0,0,0,-32315,0,0,0,3876,0,23955,0
17654,144,-8216,1118,-45,40,16,-12384,5,6,-1001,-296,37148,286,26,79,0,0,0,0,0,0,0,0,-32315,0,0,0,3875,0,23975,0
17664,172,-8204,1112,-51,43,9,-12384,0,-1,-1000,-296,37148,288,27,79,0,0,0,0,0,0,0,0,-32315,0,0,0,3875,0,23995,0
17674,148,-8218,1094,-51,46,15,-12384,3,2,-1003,-296,37156,287,26,79,0,0,0,0,0,0,0,0,-32315,0,0,0,3875,0,24015,0
17684,180,-8230,1104,-52,39,15,-12383,3,3,-1002,-288,37156,290,26,79,0,0,0,0,0,0,0,0,-32315,0,0,0,3876,0,24035,0
17694,132,-8200,1082,-48,42,14,-12383,5,3,-997,-288,37157,293,26,79,0,0,0,0,0,0,0,0,-32315,0,0,0,3875,0,24055,0
17704,166,-8190,1090,-52,40,15,-12384,6,2,-1002,-296,37151,294,26,79,0,0,0,0,0,0,0,0,-32315,0,0,0,3875,0,24075,0
17714,134,-8226,1124,-45,38,17,-12384,-1,-2,-1002,-304,37151,296,26,79,0,0,0,0,0,0,0,0,-32315,0,0,0,3875,0,24095,0
17724,134,-8214,1114,-58,39,20,-12384,-4,0,-1005,-296,37150,297,26,79,0,0,0,0,0,0,0,0,-32315,0,0,0,3875,0,24115,0
17734,174,-8214,1090,-49,44,22,-12385,-6,-2,-1002,-304,37151,293,26,79,0,0,0,0,0,0,0,0,-32315,0,0,0,3875,0,24135,0
17744,116,-8196,1104,-46,40,22,-12383,3,-3,-998,-304,37150,293,26,79,0,0,0,0,0,0,0,0,-32316,0,0,0,3875,0,24155,0
17754,138,-8182,1136,-54,39,22,-12384,3,2,-1000,-280,37149,282,26,79,0,0,0,0,0,0,0,0,-32316,0,0,0,3875,0,24175,0
17764,152,-8216,1128,-54,43,20,-12384,-2,-4,-1000,-304,37150,280,26,79,0,0,0,0,0,0,0,0,-32315,0,0,0,3875,0,24195,0
17774,150,-8212,1104,-54,46,17,-12383,2,-3,-1004,-288,37156,279,26,79,0,0,0,0,0,0,0,0,-32316,0,0,0,3875,0,24215,0
17784,130,-8210,1080,-50,40,19,-12382,6,4,-1004,-296,37158,283,26,79,0,0,0,0,0,0,0,0,-32315,0,0,0,3875,0,24235,0
17794,112,-8248,1094,-50,42,19,-12383,2,-7,-1001,-296,37161,283,26,79,0,0,0,0,0,0,0,0,-32315,0,0,0,3875,0,24255,0
17804,74,-8208,1066,-48,40,16,-12382,6,2,-1002,-296,37156,283,26,79,0,0,0,0,0,0,0,0,-32315,0,0,0,3875,0,24275,0
17814,136,-8206,1106,-52,36,12,-12383,4,5,-999,-296,37157,288,26,79,0,0,0,0,0,0,0,0,-32316,0,0,0,3876,0,24295,0
17824,100,-8194,1100,-51,37,10,-12383,1,0,-1005,-296,37160,292,26,79,0,0,0,0,0,0,0,0,-32315,0,0,0,3876,0,24315,0
17834,158,-8198,1090,-44,38,7,-12384,-7,-6,-1000,-288,37162,287,26,79,0,0,0,0,0,0,0,0,-32316,0,0,0,3875,0,24335,0
17844,156,-8230,1114,-49,42,13,-12385,-5,1,-1002,-296,37160,292,26,79,0,0,0,0,0,0,0,0,-32315,0,0,0,3875,0,24355,0
17854,170,-8194,1104,-49,38,10,-12383,-6,-6,-1000,-288,37160,296,27,79,0,0,0,0,0,0,0,0,-32315,0,0,0,3875,0,24375,0
17864,168,-8212,1106,-47,43,8,-12383,6,0,-999,-288,37157,303,27,79,0,0,0,0,0,0,0,0,-32315,0,0,0,3876,0,24395,0
17874,128,-8192,1092,-46,43,11,-12385,-2,2,-998,-296,37156,300,26,79,0,0,0,0,0,0,0,0,-32315,0,0,0,3875,0,24415,0
17884,188,-8218,1100,-47,40,13,-12382,3,-1,-1004,-296,37157,294,26,79,0,0,0,0,0,0,0,0,-32315,0,0,0,3876,0,24435,0
17894,110,-8214,1120,-47,43,16,-12385,-6,2,-999,-304,37156,296,26,79,0,0,0,0,0,0,0,0,-32315,0,0,0,3875,0,24455,0
17904,116,-8214,1128,-45,39,13,-12383,5,1,-1002,-304,37157,298,26,79,0,0,0,0,0,0,0,0,-32315,0,0,0,3875,0,24475,0
17914,102,-8212,1140,-54,39,9,-12384,0,-1,-1000,-304,37155,293,27,79,0,0,0,0,0,0,0,0,-32316,0,0,0,3875,0,24495,0
17924,104,-8206,1114,-52,38,6,-12384,4,1,-1007,-288,37155,287,26,79,0,0,0,0,0,0,0,0,-32315,0,0,0,3875,0,24515,0
17934,176,-8226,1096,-52,44,14,-12383,0,6,-1002,-296,37155,280,26,79,0,0,0,0,0,0,0,0,-32315,0,0,0,3875,0,24535,0
17944,132,-8240,1110,-49,35,14,-12384,0,3,-1000,-288,37155,284,26,79,0,0,0,0,0,0,0,0,-32315,0,0,0,3875,0,24555,0
17954,150,-8206,1082,-51,42,14,-12385,-2,-1,-998,-280,37152,284,26,79,0,0,0,0,0,0,0,0,-32315,0,0,0,3875,0,24575,0
17964,168,-8224,1096,-48,41,20,-12385,-2,-5,-998,-288,37152,288,26,79,0,0,0,0,0,0,0,0,-32315,0,0,0,3875,0,24595,0
17974,78,-8232,1086,-49,44,21,-12383,0,4,-1002,-304,37155,295,27,79,0,0,0,0,0,0,0,0,-32316,0,0,0,3876,0,24615,0
17984,108,-8206,1110,-49,39,16,-12384,-8,-5,-1004,-288,37157,299,26,79,0,0,0,0,0,0,0,0,-32316,0,0,0,3875,0,24635,0
17994,202,-8218,1110,-48,39,12,-12385,-5,-5,-999,-296,37155,299,27,79,0,0,0,0,0,0,0,0,-32315,0,0,0,3876,0,24655,0
18004,146,-8208,1092,-51,38,12,-12384,3,2,-999,-288,37155,298,26,79,0,0,0,0,0,0,0,0,-32315,0,0,0,3876,0,24675,0
18014,118,-8214,1122,-46,38,14,-12384,-3,3,-1000,-296,37154,297,26,79,0,0,0,0,0,0,0,0,-32315,0,0,0,3875,0,24695,0
18024,116,-8238,1134,-47,40,13,-12384,2,-2,-1003,-296,37150,301,26,79,0,0,0,0,0,0,0,0,-32315,0,0,0,3875,0,24715,0
18034,176,-8190,1128,-50,38,12,-12385,-6,-1,-1001,-288,37148,291,26,79,0,0,0,0,0,0,0,0,-32315,0,0,0,3875,0,24735,0
18044,164,-8202,1110,-46,38,17,-12383,2,2,-1001,-304,37148,290,26,79,0,0,0,0,0,0,0,0,-32315,0,0,0,3875,0,24755,0
18054,150,-8220,1110,-48,43,17,-12384,1,3,-997,-288,37150,291,26,79,0,0,0,0,0,0,0,0,-32315,0,0,0,3875,0,24775,0
18064,140,-8202,1136,-49,39,21,-12383,-2,3,-1002,-304,37151,288,26,79,0,0,0,0,0,0,0,0,-32315,0,0,0,3875,0,24795,0
18074,152,-8196,1110,-53,43,17,-12384,0,-3,-1002,-296,37150,288,26,79,0,0,0,0,0,0,0,0,-32315,0,0,0,3875,0,24815,0
18084,202,-8208,1132,-55,42,16,-12385,-3,-4,-1002,-280,37151,282,26,79,0,0,0,0,0,0,0,0,-32315,0,0,0,3875,0,24835,0
18094,120,-8218,1090,-52,41,20,-12383,3,0,-1002,-296,37153,285,26,79,0,0,0,0,0,0,0,0,-32316,0,0,0,3875,0,24855,0
18104,166,-8170,1084,-50,34,15,-12384,-1,3,-998,-280,37155,283,26,79,0,0,0,0,0,0,0,0,-32316,0,0,0,3875,0,24875,0
18114,82,-8206,1084,-50,40,20,-12385,-2,-2,-1003,-304,37156,287,26,79,0,0,0,0,0,0,0,0,-32315,0,0,0,3876,0,24895,0
18124,130,-8206,1096,-53,43,19,-12385,0,1,-1003,-296,37150,291,26,79,0,0,0,0,0,0,0,0,-32316,0,0,0,3876,0,24915,0
18134,154,-8186,1132,-49,44,10,-12383,6,3,-1000,-296,37148,290,26,79,0,0,0,0,0,0,0,0,-32316,0,0,0,3875,0,24935,0
18144,106,-8194,1096,-50,39,20,-12383,1,3,-999,-296,37147,291,26,79,0,0,0,0,0,0,0,0,-32315,0,0,0,3875,0,24955,0
18154,104,-8216,1094,-53,39,15,-12384,-5,-6,-997,-288,37147,290,26,79,0,0,0,0,0,0,0,0,-32315,0,0,0,3875,0,24975,0
18164,156,-8192,1108,-45,39,10,-12383,4,0,-999,-288,37143,294,26,79,0,0,0,0,0,0,0,0,-32315,0,0,0,3875,0,24995,0
18174,150,-8200,1120,-47,39,16,-12383,6,0,-1001,-304,37143,298,26,79,0,0,0,0,0,0,0,0,-32315,0,0,0,3875,0,25015,0
18184,184,-8190,1104,-53,41,18,-12384,0,1,-1002,-280,37144,297,26,79,0,0,0,0,0,0,0,0,-32315,0,0,0,3875,0,25035,0
18194,174,-8218,1108,-52,40,17,-12382,8,3,-996,-288,37150,294,26,79,0,0,0,0,0,0,0,0,-32315,0,0,0,3876,0,25055,0
18204,160,-8226,1090,-47,46,15,-12384,-7,0,-1000,-296,37151,291,26,79,0,0,0,0,0,0,0,0,-32315,0,0,0,3875,0,25075,0
18214,130,-8228,1088,-50,40,20,-12384,-9,-2,-1002,-288,37149,288,26,79,0,0,0,0,0,0,0,0,-32315,0,0,0,3875,0,25095,0
18224,136,-8194,1076,-45,43,14,-12384,0,2,-1001,-296,37144,288,26,79,0,0,0,0,0,0,0,0,-32315,0,0,0,3875,0,25115,0
18234,144,-8228,1094,-52,34,17,-12383,-1,-4,-1001,-288,37145,280,26,79,0,0,0,0,0,0,0,0,-32315,0,0,0,3875,0,25135,0
18244,142,-8206,1100,-44,40,14,-12385,-4,2,-998,-288,37145,282,26,79,0,0,0,0,0,0,0,0,-32315,0,0,0,3875,0,25155,0
18254,122,-8204,1124,-49,37,18,-12385,-5,0,-1000,-288,37145,285,26,79,0,0,0,0,0,0,0,0,-32315,0,0,0,3875,0,25175,0
18264,170,-8218,1144,-49,38,17,-12384,4,2,-1001,-304,37143,287,26,79,0,0,0,0,0,0,0,0,-32315,0,0,0,3875,0,25195,0
18274,142,-8224,1126,-48,42,17,-12383,-3,4,-1000,-296,37145,288,26,79,0,0,0,0,0,0,0,0,-32316,0,0,0,3875,0,25215,0
18284,126,-8236,1120,-55,40,13,-12384,-2,3,-1001,-280,37144,281,27,79,0,0,0,0,0,0,0,0,-32315,0,0,0,3875,0,25235,0
18294,160,-8210,1110,-52,40,17,-12385,-2,2,-1000,-296,37146,285,26,79,0,0,0,0,0,0,0,0,-32316,0,0,0,3875,0,25255,0
18304,156,-8224,1116,-49,45,16,-12383,0,-2,-1001,-296,37145,285,26,79,0,0,0,0,0,0,0,0,-32316,0,0,0,3875,0,25275,0
18314,156,-8198,1118,-56,39,17,-12382,6,1,-1000,-296,37145,288,26,79,0,0,0,0,0,0,0,0,-32316,0,0,0,3875,0,25295,0
18324,122,-8206,1072,-58,44,19,-12383,0,-1,-1005,-304,37144,284,26,79,0,0,0,0,0,0,0,0,-32316,0,0,0,3876,0,25315,0
18334,112,-8226,1092,-47,39,19,-12383,-2,-3,-1000,-296,37140,288,26,79,0,0,0,0,0,0,0,0,-32315,0,0,0,3876,0,25335,0
18344,96,-8234,1130,-46,37,16,-12384,2,0,-1002,-296,37141,291,26,79,0,0,0,0,0,0,0,0,-32316,0,0,0,3875,0,25355,0
18354,120,-8218,1104,-46,42,10,-12384,3,-2,-999,-280,37142,291,26,79,0,0,0,0,0,0,0,0,-32315,0,0,0,3876,0,25375,0
18364,172,-8218,1108,-51,37,9,-12383,0,-2,-1001,-296,37142,286,26,79,0,0,0,0,0,0,0,0,-32315,0,0,0,3876,0,25395,0
18374,90,-8212,1104,-50,38,12,-12384,-4,7,-1004,-288,37142,284,26,79,0,0,0,0,0,0,0,0,-32315,0,0,0,3876,0,25415,0
18384,148,-8190,1102,-49,46,10,-12383,8,1,-999,-296,37152,287,27,79,0,0,0,0,0,0,0,0,-32315,0,0,0,3874,0,25435,0
18394,100,-8236,1122,-52,40,11,-12383,8,6,-999,-288,37161,290,26,79,0,0,0,0,0,0,0,0,-32315,0,0,0,3875,0,25455,0
18404,138,-8212,1110,-51,38,9,-12384,-7,-4,-1002,-296,37176,286,26,79,0,0,0,0,0,0,0,0,-32314,0,0,0,3875,0,25475,0
18414,182,-8220,1066,-50,38,10,-12383,0,0,-1002,-296,37167,289,26,79,0,0,0,0,0,0,0,0,-32316,0,0,0,3875,0,25495,0
18424,130,-8224,1094,-47,36,11,-12384,-2,1,-1004,-296,37156,284,26,79,0,0,0,0,0,0,0,0,-32315,0,0,0,3876,0,25515,0
18434,120,-8210,1126,-47,42,10,-12384,2,1,-1000,-288,37145,284,26,79,0,0,0,0,0,0,0,0,-32315,0,0,0,3875,0,25535,0
18444,152,-8214,1114,-51,33,11,-12384,0,0,-998,-304,37142,283,26,79,0,0,0,0,0,0,0,0,-32316,0,0,0,3875,0,25555,0
18454,152,-8228,1090,-48,38,8,-12383,3,-4,-1001,-288,37143,280,26,79,0,0,0,0,0,0,0,0,-32315,0,0,0,3875,0,25576,0
18464,148,-8210,1116,-48,38,17,-12382,8,3,-1002,-296,37145,274,26,79,0,0,0,0,0,0,0,0,-32315,0,0,0,3875,0,25596,0
18474,140,-8192,1120,-51,40,12,-12384,-3,0,-1002,-296,37147,277,26,79,0,0,0,0,0,0,0,0,-32315,0,0,0,3875,0,25616,0
18484,116,-8204,1110,-51,40,12,-12384,-3,-7,-1001,-280,37150,290,27,79,0,0,0,0,0,0,0,0,-32315,0,0,0,3875,0,25636,0
18494,138,-8198,1086,-51,39,13,-12384,2,5,-1000,-296,37151,302,26,79,0,0,0,0,0,0,0,0,-32315,0,0,0,3875,0,25656,0
18504,126,-8202,1106,-49,44,13,-12385,0,1,-999,-288,37155,297,26,79,0,0,0,0,0,0,0,0,-32315,0,0,0,3875,0,25676,0
18514,170,-8192,1114,-49,41,15,-12385,-2,3,-1000,-304,37151,290,26,79,0,0,0,0,0,0,0,0,-32315,0,0,0,3875,0,25696,0
18524,168,-8212,1112,-51,40,20,-12386,-2,2,-1003,-296,37151,286,26,79,0,0,0,0,0,0,0,0,-32315,0,0,0,3875,0,25716,0
18534,176,-8236,1110,-54,42,13,-12383,6,0,-1001,-296,37145,290,26,79,0,0,0,0,0,0,0,0,-32315,0,0,0,3875,0,25736,0
18544,198,-8208,1108,-52,43,15,-12385,-1,1,-1000,-304,37142,289,26,79,0,0,0,0,0,0,0,0,-32315,0,0,0,3875,0,25756,0
18554,172,-8224,1116,-51,40,13,-12383,6,1,-998,-288,37142,288,26,79,0,0,0,0,0,0,0,0,-32315,0,0,0,3875,0,25776,0
18564,214,-8186,1118,-50,38,17,-12385,1,0,-1001,-304,37144,287,26,79,0,0,0,0,0,0,0,0,-32315,0,0,0,3875,0,25796,0
18574,110,-8212,1108,-51,40,20,-12384,-5,4,-1003,-288,37146,285,26,79,0,0,0,0,0,0,0,0,-32315,0,0,0,3875,0,25816,0
18584,154,-8222,1134,-51,48,20,-12384,3,-1,-999,-288,37145,290,26,79,0,0,0,0,0,0,0,0,-32315,0,0,0,3875,0,25836,0
18594,84,-8210,1108,-53,42,20,-12383,7,-4,-1000,-304,37143,289,26,79,0,0,0,0,0,0,0,0,-32315,0,0,0,3874,0,25856,0
18604,130,-8228,1122,-56,41,19,-12383,6,2,-1002,-304,37145,290,26,79,0,0,0,0,0,0,0,0,-32315,0,0,0,3875,0,25876,0
18614,114,-8212,1104,-50,38,20,-12384,-5,0,-1000,-296,37151,294,27,79,0,0,0,0,0,0,0,0,-32315,0,0,0,3875,0,25896,0
18624,124,-8212,1116,-53,38,13,-12382,4,-3,-1002,-304,37151,300,26,79,0,0,0,0,0,0,0,0,-32315,0,0,0,3875,0,25916,0
18634,114,-8220,1080,-52,45,14,-12384,-3,-1,-1002,-288,37151,309,27,79,0,0,0,0,0,0,0,0,-32315,0,0,0,3875,0,25936,0
18644,160,-8210,1100,-53,40,18,-12385,-5,2,-1000,-296,37150,305,27,79,0,0,0,0,0,0,0,0,-32315,0,0,0,3875,0,25956,0
18654,168,-8180,1114,-51,36,15,-12384,1,1,-1002,-304,37150,297,27,79,0,0,0,0,0,0,0,0,-32315,0,0,0,3876,0,25976,0
18664,158,-8226,1106,-44,45,18,-12384,-2,2,-1002,-296,37148,287,27,79,0,0,0,0,0,0,0,0,-32315,0,0,0,3875,0,25996,0
18674,110,-8210,1112,-50,40,16,-12385,0,5,-1004,-288,37147,284,27,79,0,0,0,0,0,0,0,0,-32315,0,0,0,3875,0,26016,0
18684,164,-8206,1130,-48,42,13,-12384,4,0,-1001,-304,37145,281,26,79,0,0,0,0,0,0,0,0,-32315,0,0,0,3875,0,26036,0
18694,120,-8206,1104,-47,40,16,-12383,5,1,-998,-296,37149,285,26,79,0,0,0,0,0,0,0,0,-32315,0,0,0,3875,0,26056,0
18704,94,-8228,1094,-51,40,12,-12383,1,1,-999,-296,37151,288,27,79,0,0,0,0,0,0,0,0,-32315,0,0,0,3875,0,26076,0
18714,122,-8214,1108,-50,42,13,-12384,4,3,-999,-288,37153,285,26,79,0,0,0,0,0,0,0,0,-32315,0,0,0,3875,0,26096,0
18724,132,-8226,1108,-51,34,12,-12384,2,2,-1005,-288,37151,284,26,79,0,0,0,0,0,0,0,0,-32315,0,0,0,3875,0,26116,0
18734,152,-8196,1092,-48,40,12,-12384,5,0,-999,-288,37151,286,26,79,0,0,0,0,0,0,0,0,-32315,0,0,0,3876,0,26136,0
18744,144,-8216,1106,-47,40,12,-12384,0,7,-999,-288,37153,292,26,79,0,0,0,0,0,0,0,0,-32315,0,0,0,3875,0,26156,0
18754,136,-8218,1108,-45,44,13,-12384,0,-2,-1002,-296,37149,295,27,79,0,0,0,0,0,0,0,0,-32315,0,0,0,3875,0,26176,0
18764,158,-8214,1112,-51,38,11,-12385,-1,-1,-1001,-288,37149,286,26,79,0,0,0,0,0,0,0,0,-32315,0,0,0,3875,0,26196,0
18774,118,-8228,1124,-45,40,11,-12384,4,2,-1004,-304,37149,284,26,79,0,0,0,0,0,0,0,0,-32315,0,0,0,3875,0,26216,0
18784,172,-8198,1114,-54,42,12,-12384,-3,-1,-1003,-288,37154,286,27,79,0,0,0,0,0,0,0,0,-32315,0,0,0,3876,0,26236,0
18794,138,-8224,1118,-48,39,14,-12385,-2,1,-1002,-304,37156,289,26,79,0,0,0,0,0,0,0,0,-32315,0,0,0,3876,0,26256,0
18804,140,-8224,1122,-49,36,16,-12384,0,6,-1001,-296,37153,292,27,79,0,0,0,0,0,0,0,0,-32315,0,0,0,3875,0,26276,0
18814,156,-8214,1104,-56,40,19,-12385,-6,-2,-1002,-304,37153,294,26,79,0,0,0,0,0,0,0,0,-32315,0,0,0,3875,0,26296,0
18824,152,-8204,1116,-51,41,22,-12384,3,0,-1002,-304,37157,298,26,79,0,0,0,0,0,0,0,0,-32316,0,0,0,3875,0,26316,0
18834,154,-8208,1094,-58,40,18,-12383,-3,1,-1002,-280,37157,299,26,79,0,0,0,0,0,0,0,0,-32315,0,0,0,3875,0,26336,0
18844,-450,-8574,1398,-22,-25,158,-12361,119,39,-433,0,37157,297,26,79,0,0,0,0,0,0,0,0,-32315,0,0,0,3875,0,26356,0
18854,1874,-8114,382,-73,-31,252,-12276,179,187,-318,0,37155,277,27,79,0,0,0,0,0,0,0,0,-32316,0,0,0,3884,1,26376,0
18864,540,-8200,958,-36,-267,249,-12222,88,46,-180,0,37160,275,27,79,0,0,0,0,0,0,0,0,-32316,0,0,0,3888,0,26396,0
18874,-438,-8474,1486,-16,-266,248,-12181,108,-90,-175,0,37163,279,27,79,0,0,0,0,0,0,0,0,-32316,0,0,0,3894,0,26418,0
18884,-340,-8236,1176,-53,-61,149,-12144,74,-20,-159,0,37162,296,26,79,0,0,0,0,0,0,0,0,-32316,0,0,0,3899,0,26437,0
18894,-90,-8208,1152,-58,18,86,-12119,25,-41,-102,0,37160,303,27,79,0,0,0,0,0,0,0,0,-32316,0,0,0,3902,0,26457,0
18904,-208,-8188,1096,-63,72,13,-12121,-1,-75,2,0,37161,306,27,79,0,0,0,0,0,0,0,0,-32316,0,0,0,3902,0,26477,0
18914,90,-8212,1102,-62,78,6,-12120,2,-40,-2,0,37162,298,27,79,0,0,0,0,0,0,0,0,-32316,0,0,0,3902,0,26497,0
18924,214,-8216,1136,-62,44,14,-12122,-7,-4,-1,0,37167,303,27,79,0,0,0,0,0,0,0,0,-32316,0,0,0,3901,0,26517,0
18934,112,-8216,1102,-62,31,15,-12119,-3,0,-2,0,37168,305,27,79,0,0,0,0,0,0,0,0,-32315,0,0,0,3902,0,26537,0
18944,74,-8210,1098,-64,51,19,-12119,1,0,-3,0,37168,308,27,79,0,0,0,0,0,0,0,0,-32315,0,0,0,3902,0,26557,0
18954,140,-8220,1076,-63,46,21,-12119,2,1,-6,0,37161,310,27,79,0,0,0,0,0,0,0,0,-32316,0,0,0,3902,0,26577,0
18964,112,-8194,1056,-54,48,22,-12117,7,5,-6,0,37160,311,26,79,0,0,0,0,0,0,0,0,-32316,0,0,0,3902,0,26597,0
18974,138,-8202,1010,-51,42,24,-12118,0,1,-6,0,37159,318,26,79,0,0,0,0,0,0,0,0,-32316,0,0,0,3901,0,26618,0
18984,94,-8232,1080,-43,38,29,-12116,0,1,-7,0,37161,313,26,79,0,0,0,0,0,0,0,0,-32316,0,0,0,3901,0,26638,0
18994,52,-8220,1138,-47,39,26,-12116,0,1,-9,0,37159,303,26,79,0,0,0,0,0,0,0,0,-32316,0,0,0,3902,0,26657,0
19004,56,-8244,1144,-52,45,25,-12113,8,1,-9,0,37158,303,27,79,0,0,0,0,0,0,0,0,-32315,0,0,0,3902,0,26677,0
19014,44,-8204,1128,-51,44,18,-12113,5,-4,-7,0,37158,304,27,79,0,0,0,0,0,0,0,0,-32315,0,0,0,3902,0,26697,0
19024,116,-8190,1082,-56,45,15,-12113,-6,-3,-4,0,37160,306,26,79,0,0,0,0,0,0,0,0,-32316,0,0,0,3902,0,26718,0
19034,94,-8202,1062,-49,43,18,-12112,0,-2,-5,0,37159,303,26,79,0,0,0,0,0,0,0,0,-32315,0,0,0,3902,0,26738,0
19044,116,-8196,1074,-44,39,15,-12113,0,-2,-4,0,37158,306,26,79,0,0,0,0,0,0,0,0,-32315,0,0,0,3902,0,26757,0
19054,116,-8196,1114,-43,38,18,-12110,4,2,-6,0,37159,310,27,79,0,0,0,0,0,0,0,0,-32316,0,0,0,3904,0,26777,0
19064,126,-8250,1134,-51,43,18,-12111,-6,-2,-4,0,37157,306,26,79,0,0,0,0,0,0,0,0,-32316,0,0,0,3902,0,26797,0
19074,106,-8222,1144,-50,39,19,-12110,0,-2,-5,0,37160,302,26,79,0,0,0,0,0,0,0,0,-32315,0,0,0,3902,0,26818,0
19084,92,-8232,1138,-56,39,21,-12109,5,-1,-9,0,37159,309,27,79,0,0,0,0,0,0,0,0,-32316,0,0,0,3902,0,26838,0
19094,116,-8186,1112,-53,45,21,-12109,10,-1,-8,0,37160,305,27,79,0,0,0,0,0,0,0,0,-32316,0,0,0,3902,0,26858,0
19104,92,-8194,1172,-59,54,24,-12107,-5,3,-12,0,37158,296,27,79,0,0,0,0,0,0,0,0,-32316,0,0,0,3902,0,26878,0
19114,150,-8198,1112,-56,46,31,-12105,6,-3,-14,0,37160,299,27,79,0,0,0,0,0,0,0,0,-32315,0,0,0,3904,0,26897,0
19124,84,-8182,1114,-59,42,33,-12101,3,3,-24,0,37165,312,26,79,0,0,0,0,0,0,0,0,-32316,0,0,0,3904,0,26918,0
19134,86,-8226,1100,-50,43,37,-12097,10,1,-33,0,37165,316,26,79,0,0,0,0,0,0,0,0,-32315,0,0,0,3905,0,26938,0
19144,114,-8200,1094,-61,29,51,-12087,25,13,-56,0,37162,315,26,79,0,0,0,0,0,0,0,0,-32316,0,0,0,3905,0,26958,0
19154,192,-8204,1046,-53,13,65,-12070,31,21,-75,0,37162,307,26,79,0,0,0,0,0,0,0,0,-32316,0,0,0,3906,0,26977,0
19164,90,-8202,1078,-42,0,45,-12059,11,-2,-39,0,37157,297,26,79,0,0,0,0,0,0,0,0,-32316,0,0,0,3906,0,26997,0
19174,-92,-8232,1134,-41,19,34,-12060,2,-33,-9,0,37153,294,27,79,0,0,0,0,0,0,0,0,-32315,0,0,0,3907,0,27017,0
19184,-46,-8212,1122,-51,57,4,-12059,-6,-17,-9,0,37147,288,26,79,0,0,0,0,0,0,0,0,-32316,0,0,0,3907,0,27037,0
19194,110,-8212,1096,-52,53,6,-12058,-1,-3,-1,0,37146,290,27,79,0,0,0,0,0,0,0,0,-32316,0,0,0,3907,0,27057,0
19204,182,-8204,1108,-46,36,14,-12057,-2,2,0,0,37148,288,26,79,0,0,0,0,0,0,0,0,-32316,0,0,0,3907,0,27077,0
19214,104,-8218,1124,-50,33,19,-12056,5,-1,-3,0,37150,281,26,79,0,0,0,0,0,0,0,0,-32315,0,0,0,3907,0,27097,0
19224,56,-8200,1152,-49,43,17,-12055,12,2,-5,0,37148,287,27,79,0,0,0,0,0,0,0,0,-32315,0,0,0,3907,0,27118,0
19234,112,-8222,1142,-57,46,17,-12056,2,1,-4,0,37152,282,26,79,0,0,0,0,0,0,0,0,-32316,0,0,0,3908,0,27137,0
19244,146,-8230,1076,-60,43,13,-12056,-5,2,-2,0,37153,290,27,79,0,0,0,0,0,0,0,0,-32316,0,0,0,3906,0,27157,0
19254,144,-8216,1062,-52,42,21,-12056,5,7,-4,0,37156,292,27,79,0,0,0,0,0,0,0,0,-32316,0,0,0,3907,0,27177,0
19264,78,-8210,1114,-55,35,23,-12055,0,-1,-3,0,37152,296,26,79,0,0,0,0,0,0,0,0,-32316,0,0,0,3908,0,27197,0
19274,52,-8214,1122,-50,45,19,-12055,1,2,-6,0,37149,297,27,79,0,0,0,0,0,0,0,0,-32315,0,0,0,3907,0,27217,0
19284,98,-8236,1110,-52,44,21,-12054,5,2,-8,0,37147,296,26,79,0,0,0,0,0,0,0,0,-32315,0,0,0,3907,0,27237,0
19294,126,-8186,1100,-50,47,25,-12054,-1,-1,-5,0,37147,295,26,79,0,0,0,0,0,0,0,0,-32316,0,0,0,3907,0,27257,0
19304,100,-8222,1086,-50,40,31,-12053,0,2,-7,0,37148,295,27,79,0,0,0,0,0,0,0,0,-32316,0,0,0,3907,0,27277,0
19314,64,-8222,1114,-44,41,19,-12052,6,-1,-7,0,37149,296,27,79,0,0,0,0,0,0,0,0,-32315,0,0,0,3908,0,27297,0
19324,106,-8224,1126,-48,43,20,-12051,3,3,-9,0,37147,289,26,79,0,0,0,0,0,0,0,0,-32316,0,0,0,3908,0,27317,0
19334,96,-8210,1118,-52,43,18,-12049,5,-2,-6,0,37147,292,26,79,0,0,0,0,0,0,0,0,-32316,0,0,0,3908,0,27337,0
19344,94,-8226,1114,-53,45,18,-12048,3,2,-8,0,37152,301,26,79,0,0,0,0,0,0,0,0,-32315,0,0,0,3908,0,27358,0
19354,106,-8220,1096,-50,40,18,-12049,-5,-5,-8,0,37150,297,26,79,0,0,0,0,0,0,0,0,-32315,0,0,0,3908,0,27378,0
19364,90,-8218,1098,-52,40,26,-12046,-2,-4,-6,0,37150,289,26,79,0,0,0,0,0,0,0,0,-32316,0,0,0,3907,0,27398,0
19374,88,-8240,1108,-48,42,22,-12045,8,3,-11,0,37146,284,26,79,0,0,0,0,0,0,0,0,-32316,0,0,0,3908,0,27422,0
19384,82,-8228,1170,-57,50,21,-12044,2,-1,-12,0,37148,288,26,79,0,0,0,0,0,0,0,0,-32316,0,0,0,3908,0,27442,0
19394,126,-8176,1088,-53,41,25,-12043,4,-1,-13,0,37148,294,26,79,0,0,0,0,0,0,0,0,-32315,0,0,0,3910,0,27462,0
19404,104,-8230,1074,-51,34,31,-12038,10,1,-20,0,37144,284,26,79,0,0,0,0,0,0,0,0,-32316,0,0,0,3908,0,27482,0
19414,92,-8208,1128,-52,30,32,-12033,13,2,-28,0,37144,283,26,79,0,0,0,0,0,0,0,0,-32315,0,0,0,3910,0,27502,0
19424,114,-8198,1098,-52,17,47,-12025,20,12,-47,0,37146,283,26,79,0,0,0,0,0,0,0,0,-32315,0,0,0,3911,0,27522,0
19434,168,-8214,1082,-50,10,55,-12012,25,12,-63,0,37147,291,26,79,0,0,0,0,0,0,0,0,-32315,0,0,0,3911,0,27542,0
19444,122,-8196,1092,-45,-4,49,-12002,21,3,-40,0,37153,298,27,79,0,0,0,0,0,0,0,0,-32316,0,0,0,3912,0,27562,0
19454,-74,-8190,1142,-45,25,32,-12000,0,-26,-11,0,37154,299,26,79,0,0,0,0,0,0,0,0,-32315,0,0,0,3912,0,27583,0
19464,-44,-8218,1108,-48,46,8,-11999,-6,-17,-6,0,37155,295,26,79,0,0,0,0,0,0,0,0,-32315,0,0,0,3912,0,27603,0
19474,90,-8202,1086,-58,56,8,-12000,-3,-4,-2,0,37151,300,27,79,0,0,0,0,0,0,0,0,-32316,0,0,0,3913,0,27623,0
19484,148,-8200,1108,-49,42,11,-11999,4,-1,0,0,37145,304,27,79,0,0,0,0,0,0,0,0,-32316,0,0,0,3913,0,27643,0
19494,98,-8208,1102,-50,33,18,-11999,-2,3,-1,0,37146,300,27,79,0,0,0,0,0,0,0,0,-32316,0,0,0,3912,0,27663,0
19504,10,-8208,1142,-54,42,17,-11998,-1,4,-4,0,37147,291,27,79,0,0,0,0,0,0,0,0,-32316,0,0,0,3913,0,27683,0
19514,28,-8226,1120,-49,42,10,-11998,0,4,-1,0,37149,286,27,79,0,0,0,0,0,0,0,0,-32315,0,0,0,3913,0,27703,0
19524,124,-8210,1086,-54,46,11,-11998,-2,-1,-2,0,37150,295,27,79,0,0,0,0,0,0,0,0,-32315,0,0,0,3913,0,27723,0
19534,144,-8238,1076,-45,35,12,-11997,-4,-5,0,0,37151,302,27,79,0,0,0,0,0,0,0,0,-32315,0,0,0,3913,0,27743,0
19544,74,-8192,1094,-44,38,17,-11999,-1,6,0,0,37153,307,27,79,0,0,0,0,0,0,0,0,-32315,0,0,0,3912,0,27763,0
19554,40,-8226,1112,-46,41,14,-11997,-3,-10,-3,0,37153,299,27,79,0,0,0,0,0,0,0,0,-32315,0,0,0,3913,0,27783,0
19564,68,-8186,1114,-45,39,6,-11997,2,1,0,0,37154,300,27,79,0,0,0,0,0,0,0,0,-32315,0,0,0,3912,0,27803,0
19574,98,-8226,1128,-42,41,7,-11997,-5,-1,0,0,37158,302,26,79,0,0,0,0,0,0,0,0,-32316,0,0,0,3913,0,27823,0
19584,108,-8210,1134,-47,40,11,-11999,-10,3,0,0,37153,304,26,79,0,0,0,0,0,0,0,0,-32316,0,0,0,3913,0,27843,0
19594,88,-8212,1128,-46,36,8,-11999,-5,-4,0,0,37151,300,26,79,0,0,0,0,0,0,0,0,-32316,0,0,0,3913,0,27863,0
19604,68,-8196,1144,-49,43,7,-11998,-1,-3,0,0,37148,306,26,79,0,0,0,0,0,0,0,0,-32315,0,0,0,3913,0,27883,0
19614,126,-8200,1102,-50,42,11,-11999,-8,-3,0,0,37151,313,27,79,0,0,0,0,0,0,0,0,-32316,0,0,0,3912,0,27903,0
19624,128,-8218,1124,-54,38,19,-11996,8,5,-1,0,37154,311,26,79,0,0,0,0,0,0,0,0,-32315,0,0,0,3912,0,27923,0
19634,136,-8218,1132,-55,46,19,-11997,2,0,0,0,37154,304,26,79,0,0,0,0,0,0,0,0,-32316,0,0,0,3912,0,27943,0
19644,88,-8216,1094,-54,43,19,-11998,3,-1,-1,0,37153,304,26,79,0,0,0,0,0,0,0,0,-32316,0,0,0,3913,0,27963,0
19654,56,-8222,1110,-55,41,22,-11997,0,-3,-4,0,37157,302,26,79,0,0,0,0,0,0,0,0,-32316,0,0,0,3912,0,27983,0
19664,80,-8202,1096,-57,46,22,-11997,-8,-6,-1,0,37169,307,27,79,0,0,0,0,0,0,0,0,-32316,0,0,0,3913,0,28003,0
19674,96,-8196,1094,-53,47,20,-11997,-2,2,-2,0,37172,307,27,79,0,0,0,0,0,0,0,0,-32316,0,0,0,3913,0,28023,0
19684,56,-8226,1088,-47,43,16,-11996,-1,-2,-2,0,37168,303,27,79,0,0,0,0,0,0,0,0,-32316,0,0,0,3913,0,28043,0
19694,64,-8208,1108,-57,44,18,-11997,0,3,-2,0,37157,300,27,79,0,0,0,0,0,0,0,0,-32315,0,0,0,3913,0,28063,0
19704,68,-8202,1088,-52,45,14,-11996,-1,-7,-2,0,37154,300,27,79,0,0,0,0,0,0,0,0,-32316,0,0,0,3913,0,28083,0
19714,94,-8206,1120,-55,42,19,-11996,-3,2,-2,0,37157,291,26,79,0,0,0,0,0,0,0,0,-32315,0,0,0,3913,0,28103,0
19724,84,-8204,1118,-47,37,21,-11996,-1,-4,-2,0,37158,292,26,79,0,0,0,0,0,0,0,0,-32316,0,0,0,3913,0,28123,0
19734,82,-8224,1116,-49,39,15,-11996,0,3,-2,0,37158,293,27,79,0,0,0,0,0,0,0,0,-32316,0,0,0,3913,0,28143,0
19744,120,-8226,1130,-54,40,20,-11995,0,1,-1,0,37159,295,27,79,0,0,0,0,0,0,0,0,-32316,0,0,0,3913,0,28163,0
19754,80,-8238,1124,-46,44,22,-11995,1,1,-5,0,37164,297,27,79,0,0,0,0,0,0,0,0,-32316,0,0,0,3912,0,28183,0
19764,104,-8228,1110,-56,44,18,-11996,-3,-2,-3,0,37165,303,27,79,0,0,0,0,0,0,0,0,-32316,0,0,0,3913,0,28203,0
19774,82,-8210,1094,-56,43,15,-11995,2,-5,-2,0,37164,306,26,79,0,0,0,0,0,0,0,0,-32316,0,0,0,3913,0,28223,0
19784,88,-8212,1074,-57,42,14,-11996,4,0,0,0,37160,315,27,79,0,0,0,0,0,0,0,0,-32315,0,0,0,3913,0,28243,0
19794,74,-8194,1070,-51,36,15,-11994,10,3,-1,0,37159,314,26,79,0,0,0,0,0,0,0,0,-32315,0,0,0,3912,0,28263,0
19804,78,-8208,1098,-52,39,14,-11994,8,-1,-2,0,37158,303,26,79,0,0,0,0,0,0,0,0,-32315,0,0,0,3913,0,28283,0
19814,92,-8246,1090,-51,42,13,-11995,-2,3,0,0,37155,305,27,79,0,0,0,0,0,0,0,0,-32316,0,0,0,3913,0,28303,0
19824,80,-8218,1104,-47,37,10,-11996,-4,1,0,0,37155,304,26,79,0,0,0,0,0,0,0,0,-32315,0,0,0,3912,0,28324,0
19834,78,-8226,1130,-48,41,13,-11994,4,1,-1,0,37156,311,27,79,0,0,0,0,0,0,0,0,-32315,0,0,0,3913,0,28343,0
19844,70,-8240,1106,-54,45,17,-11994,0,-3,0,0,37156,309,26,79,0,0,0,0,0,0,0,0,-32316,0,0,0,3913,0,28363,0
19854,80,-8210,1136,-52,40,12,-11995,0,1,-2,0,37156,302,26,79,0,0,0,0,0,0,0,0,-32316,0,0,0,3913,0,28383,0
19864,86,-8220,1100,-53,46,16,-11994,0,-6,0,0,37163,309,27,79,0,0,0,0,0,0,0,0,-32315,0,0,0,3913,0,28403,0
19874,84,-8208,1114,-55,41,16,-11995,-4,1,-1,0,37164,308,26,79,0,0,0,0,0,0,0,0,-32316,0,0,0,3913,0,28423,0
19884,82,-8170,1114,-51,39,16,-11995,5,-1,-2,0,37166,304,26,79,0,0,0,0,0,0,0,0,-32316,0,0,0,3913,0,28443,0
19894,86,-8192,1104,-53,42,18,-11994,5,-4,0,0,37160,300,27,79,0,0,0,0,0,0,0,0,-32316,0,0,0,3913,0,28463,0
19904,80,-8228,1118,-51,39,12,-11994,-2,3,-3,0,37160,306,27,79,0,0,0,0,0,0,0,0,-32316,0,0,0,3913,0,28483,0
19914,68,-8198,1100,-48,42,14,-11995,-5,-1,-1,0,37160,312,27,79,0,0,0,0,0,0,0,0,-32316,0,0,0,3913,0,28503,0
19924,72,-8196,1102,-51,46,16,-11994,0,2,0,0,37162,313,27,79,0,0,0,0,0,0,0,0,-32316,0,0,0,3913,0,28523,0
19934,108,-8224,1106,-50,40,13,-11994,-2,0,0,0,37160,310,27,79,0,0,0,0,0,0,0,0,-32316,0,0,0,3913,0,28543,0
19944,108,-8176,1130,-53,40,17,-11995,-3,-3,-1,0,37158,307,26,79,0,0,0,0,0,0,0,0,-32316,0,0,0,3913,0,28563,0
19954,116,-8220,1116,-54,42,19,-11994,-4,0,-1,0,37157,305,27,79,0,0,0,0,0,0,0,0,-32316,0,0,0,3913,0,28583,0
19964,96,-8214,1124,-57,48,16,-11994,-1,1,-4,0,37158,308,26,79,0,0,0,0,0,0,0,0,-32316,0,0,0,3913,0,28603,0
19974,102,-8192,1136,-55,45,17,-11994,5,-2,-2,0,37161,312,26,79,0,0,0,0,0,0,0,0,-32316,0,0,0,3913,0,28623,0
19984,104,-8212,1080,-62,45,22,-11993,0,1,-4,0,37161,314,27,79,0,0,0,0,0,0,0,0,-32316,0,0,0,3914,0,28643,0
19994,80,-8228,1092,-58,44,19,-11994,-2,0,-3,0,37157,310,26,79,0,0,0,0,0,0,0,0,-32315,0,0,0,3914,0,28663,0
20004,90,-8224,1076,-52,48,20,-11993,2,-3,-5,0,37151,307,27,79,0,0,0,0,0,0,0,0,-32316,0,0,0,3912,0,28683,0
20014,46,-8226,1096,-57,36,16,-11992,3,3,-5,0,37154,309,26,79,0,0,0,0,0,0,0,0,-32316,0,0,0,3911,0,28703,0
20024,54,-8218,1078,-51,42,16,-11992,-1,3,-2,0,37158,306,26,79,0,0,0,0,0,0,0,0,-32316,0,0,0,3913,0,28723,0
20034,76,-8198,1098,-50,49,17,-11991,1,1,-3,0,37157,310,27,79,0,0,0,0,0,0,0,0,-32315,0,0,0,3913,0,28743,0
20044,62,-8220,1106,-46,41,19,-11993,-2,-1,-2,0,37154,312,26,79,0,0,0,0,0,0,0,0,-32315,0,0,0,3913,0,28763,0
20054,70,-8194,1106,-47,39,14,-11989,10,5,-1,0,37154,316,26,79,0,0,0,0,0,0,0,0,-32315,0,0,0,3913,0,28783,0
20064,72,-8228,1106,-42,41,8,-11991,-2,3,-2,0,37157,323,27,79,0,0,0,0,0,0,0,0,-32315,0,0,0,3913,0,28803,0
20074,88,-8198,1088,-46,39,10,-11992,-4,-4,0,0,37160,319,26,79,0,0,0,0,0,0,0,0,-32316,0,0,0,3913,0,28823,0
20084,78,-8204,1124,-47,34,16,-11992,4,-3,0,0,37159,319,27,79,0,0,0,0,0,0,0,0,-32316,0,0,0,3912,0,28843,0
20094,106,-8204,1132,-47,40,9,-11992,1,1,-1,0,37157,315,27,79,0,0,0,0,0,0,0,0,-32316,0,0,0,3913,0,28863,0
20104,104,-8192,1140,-53,44,10,-11990,-4,3,0,0,37154,309,27,79,0,0,0,0,0,0,0,0,-32316,0,0,0,3914,0,28883,0
20114,68,-8222,1122,-50,40,16,-11991,-1,-5,0,0,37154,311,26,79,0,0,0,0,0,0,0,0,-32315,0,0,0,3914,0,28903,0
20124,96,-8198,1112,-49,45,18,-11991,2,-1,0,0,37156,310,26,79,0,0,0,0,0,0,0,0,-32316,0,0,0,3913,0,28923,0
20134,106,-8220,1108,-50,40,20,-11992,-2,4,0,0,37151,310,26,79,0,0,0,0,0,0,0,0,-32315,0,0,0,3913,0,28943,0
20144,80,-8214,1110,-51,38,17,-11991,2,0,0,0,37149,308,26,79,0,0,0,0,0,0,0,0,-32316,0,0,0,3914,0,28963,0
20154,68,-8192,1096,-55,44,20,-11991,0,2,0,0,37151,310,27,79,0,0,0,0,0,0,0,0,-32315,0,0,0,3912,0,28983,0
20164,54,-8176,1070,-46,41,18,-11991,5,-4,-1,0,37154,304,27,79,0,0,0,0,0,0,0,0,-32316,0,0,0,3914,0,29003,0
20174,66,-8224,1110,-46,43,16,-11991,6,-1,0,0,37160,303,27,79,0,0,0,0,0,0,0,0,-32316,0,0,0,3912,0,29023,0
20184,68,-8200,1104,-48,40,17,-11991,-3,-2,-1,0,37159,303,26,79,0,0,0,0,0,0,0,0,-32315,0,0,0,3914,0,29043,0
20194,96,-8214,1106,-52,39,17,-11989,9,3,0,0,37155,306,26,79,0,0,0,0,0,0,0,0,-32316,0,0,0,3913,0,29063,0
20204,52,-8218,1080,-52,40,13,-11990,5,1,0,0,37155,309,27,79,0,0,0,0,0,0,0,0,-32316,0,0,0,3913,0,29083,0
20214,70,-8206,1106,-53,37,13,-11990,2,2,0,0,37149,308,27,79,0,0,0,0,0,0,0,0,-32316,0,0,0,3914,0,29103,0
20224,118,-8228,1094,-51,40,12,-11990,-3,-3,0,0,37152,305,27,79,0,0,0,0,0,0,0,0,-32316,0,0,0,3913,0,29123,0
20234,84,-8240,1102,-56,43,16,-11991,0,-5,0,0,37150,306,27,79,0,0,0,0,0,0,0,0,-32316,0,0,0,3914,0,29143,0
20244,90,-8204,1092,-55,37,13,-11990,6,-1,0,0,37148,303,26,79,0,0,0,0,0,0,0,0,-32316,0,0,0,3912,0,29163,0
20254,78,-8204,1072,-47,39,13,-11990,5,3,1,0,37148,310,26,79,0,0,0,0,0,0,0,0,-32316,0,0,0,3913,0,29183,0
20264,72,-8236,1096,-51,38,16,-11991,1,-2,-2,0,37150,311,26,79,0,0,0,0,0,0,0,0,-32316,0,0,0,3914,0,29203,0
20274,80,-8224,1078,-49,37,9,-11990,8,-2,0,0,37150,315,26,79,0,0,0,0,0,0,0,0,-32316,0,0,0,3913,0,29223,0
20284,78,-8206,1076,-46,36,9,-11991,0,3,2,0,37156,315,26,79,0,0,0,0,0,0,0,0,-32316,0,0,0,3913,0,29243,0
20294,62,-8224,1100,-45,41,14,-11991,0,-1,-1,0,37154,309,27,79,0,0,0,0,0,0,0,0,-32315,0,0,0,3914,0,29263,0
20304,90,-8196,1102,-48,38,15,-11991,1,3,0,0,37154,300,27,79,0,0,0,0,0,0,0,0,-32316,0,0,0,3913,0,29283,0
20314,96,-8196,1126,-48,36,16,-11990,5,-1,0,0,37151,305,27,79,0,0,0,0,0,0,0,0,-32316,0,0,0,3914,0,29303,0
20324,80,-8224,1116,-49,39,14,-11990,1,3,0,0,37149,305,27,79,0,0,0,0,0,0,0,0,-32316,0,0,0,3913,0,29323,0
20334,84,-8214,1098,-48,46,11,-11990,-1,2,0,0,37145,299,27,79,0,0,0,0,0,0,0,0,-32315,0,0,0,3913,0,29343,0
20344,66,-8188,1120,-54,41,16,-11990,-8,0,-1,0,37145,295,27,79,0,0,0,0,0,0,0,0,-32315,0,0,0,3914,0,29363,0
20354,52,-8218,1100,-54,41,15,-11992,-3,1,1,0,37149,299,27,79,0,0,0,0,0,0,0,0,-32315,0,0,0,3911,0,29383,0
20364,58,-8214,1088,-48,45,14,-11989,0,2,-2,0,37148,300,27,79,0,0,0,0,0,0,0,0,-32316,0,0,0,3913,0,29403,0
20374,66,-8218,1086,-45,45,17,-11990,0,2,0,0,37147,298,27,79,0,0,0,0,0,0,0,0,-32315,0,0,0,3913,0,29423,0
20384,76,-8238,1092,-47,45,15,-11991,-5,3,0,0,37146,299,26,79,0,0,0,0,0,0,0,0,-32316,0,0,0,3913,0,29443,0
20394,86,-8218,1108,-51,42,13,-11990,2,0,-2,0,37152,297,26,79,0,0,0,0,0,0,0,0,-32316,0,0,0,3913,0,29463,0
20404,68,-8226,1108,-46,40,19,-11990,0,-5,2,0,37155,304,26,79,0,0,0,0,0,0,0,0,-32315,0,0,0,3913,0,29483,0
20414,68,-8224,1090,-49,41,16,-11991,3,3,0,0,37156,301,26,79,0,0,0,0,0,0,0,0,-32315,0,0,0,3913,0,29503,0
20424,78,-8228,1100,-48,36,19,-11990,1,3,0,0,37150,303,27,79,0,0,0,0,0,0,0,0,-32315,0,0,0,3913,0,29523,0
20434,76,-8210,1120,-52,35,14,-11992,5,1,0,0,37148,298,26,79,0,0,0,0,0,0,0,0,-32316,0,0,0,3912,0,29543,0
20444,86,-8230,1128,-47,36,15,-11990,6,-1,-1,0,37147,303,26,79,0,0,0,0,0,0,0,0,-32315,0,0,0,3913,0,29563,0
20454,94,-8198,1122,-49,36,18,-11990,-1,-2,0,0,37150,307,26,79,0,0,0,0,0,0,0,0,-32316,0,0,0,3913,0,29584,0
20464,68,-8224,1096,-53,42,17,-11990,5,5,-1,0,37150,310,26,79,0,0,0,0,0,0,0,0,-32316,0,0,0,3914,0,29604,0
20474,94,-8222,1102,-52,36,17,-11991,5,1,1,0,37149,309,27,79,0,0,0,0,0,0,0,0,-32315,0,0,0,3913,0,29624,0
20484,68,-8198,1104,-53,34,16,-11991,-7,2,0,0,37147,303,26,79,0,0,0,0,0,0,0,0,-32316,0,0,0,3913,0,29644,0
20494,58,-8190,1090,-53,42,14,-11990,6,-2,0,0,37153,301,26,79,0,0,0,0,0,0,0,0,-32316,0,0,0,3913,0,29664,0
20504,88,-8236,1082,-53,38,10,-11991,0,0,2,0,37154,307,27,79,0,0,0,0,0,0,0,0,-32315,0,0,0,3913,0,29684,0
20514,76,-8230,1060,-42,39,15,-11990,4,-5,-1,0,37155,306,27,79,0,0,0,0,0,0,0,0,-32316,0,0,0,3913,0,29704,0
20524,90,-8190,1088,-55,35,16,-11992,-2,0,-1,0,37149,311,27,79,0,0,0,0,0,0,0,0,-32315,0,0,0,3913,0,29725,0
20534,82,-8192,1092,-46,43,10,-11991,4,-2,0,0,37150,303,27,79,0,0,0,0,0,0,0,0,-32316,0,0,0,3913,0,29744,0
20544,92,-8198,1092,-53,37,12,-11991,6,0,0,0,37150,305,27,79,0,0,0,0,0,0,0,0,-32316,0,0,0,3914,0,29765,0
20554,88,-8200,1098,-53,39,11,-11991,0,0,0,0,37146,302,27,79,0,0,0,0,0,0,0,0,-32315,0,0,0,3913,0,29785,0
20564,74,-8218,1106,-51,35,12,-11990,12,-1,-1,0,37146,309,27,79,0,0,0,0,0,0,0,0,-32316,0,0,0,3914,0,29805,0
20574,84,-8240,1104,-52,40,15,-11990,3,-4,0,0,37148,316,27,79,0,0,0,0,0,0,0,0,-32315,0,0,0,3914,0,29825,0
20584,76,-8212,1100,-50,42,14,-11990,7,3,1,0,37150,318,26,79,0,0,0,0,0,0,0,0,-32316,0,0,0,3913,0,29845,0
20594,80,-8196,1084,-51,40,14,-11992,1,7,-1,0,37149,311,27,79,0,0,0,0,0,0,0,0,-32316,0,0,0,3913,0,29865,0
20604,78,-8230,1094,-49,39,13,-11990,4,1,2,0,37155,298,26,79,0,0,0,0,0,0,0,0,-32316,0,0,0,3913,0,29885,0
20614,100,-8220,1104,-47,38,13,-11993,1,3,-1,0,37158,291,26,79,0,0,0,0,0,0,0,0,-32315,0,0,0,3913,0,29905,0
20624,86,-8192,1094,-48,43,14,-11992,2,4,-1,0,37160,302,27,79,0,0,0,0,0,0,0,0,-32316,0,0,0,3914,0,29925,0
20634,84,-8238,1094,-47,36,15,-11991,1,4,0,0,37150,304,26,79,0,0,0,0,0,0,0,0,-32316,0,0,0,3913,0,29945,0
20644,80,-8232,1110,-49,45,14,-11991,3,-1,-1,0,37148,309,26,79,0,0,0,0,0,0,0,0,-32316,0,0,0,3913,0,29965,0
20654,88,-8206,1110,-53,35,13,-11991,0,-1,0,0,37150,308,26,79,0,0,0,0,0,0,0,0,-32316,0,0,0,3913,0,29985,0
20664,76,-8224,1114,-47,41,13,-11991,2,0,0,0,37154,304,26,79,0,0,0,0,0,0,0,0,-32315,0,0,0,3913,0,30005,0
20674,90,-8212,1098,-50,39,12,-11991,1,0,0,0,37154,306,27,79,0,0,0,0,0,0,0,0,-32315,0,0,0,3913,0,30025,0
20684,84,-8208,1114,-45,41,10,-11992,-3,-2,0,0,37153,301,26,79,0,0,0,0,0,0,0,0,-32316,0,0,0,3912,0,30045,0
20694,82,-8210,1078,-49,38,11,-11992,1,7,0,0,37151,303,26,79,0,0,0,0,0,0,0,0,-32316,0,0,0,3914,0,30065,0
20704,90,-8214,1074,-43,42,11,-11992,-4,6,0,0,37154,308,26,79,0,0,0,0,0,0,0,0,-32315,0,0,0,3914,0,30085,0
20714,94,-8196,1074,-48,41,12,-11991,2,2,1,0,37156,311,27,79,0,0,0,0,0,0,0,0,-32316,0,0,0,3913,0,30105,0
20724,82,-8216,1112,-47,39,14,-11992,-9,-4,-1,0,37155,313,27,79,0,0,0,0,0,0,0,0,-32316,0,0,0,3913,0,30125,0
20734,80,-8228,1126,-52,37,13,-11991,-3,-1,2,0,37154,311,27,79,0,0,0,0,0,0,0,0,-32316,0,0,0,3913,0,30145,0
20744,100,-8204,1118,-53,38,11,-11992,1,-1,-1,0,37153,307,27,79,0,0,0,0,0,0,0,0,-32316,0,0,0,3913,0,30165,0
20754,98,-8238,1132,-50,39,11,-11990,8,4,1,0,37154,304,27,79,0,0,0,0,0,0,0,0,-32316,0,0,0,3913,0,30185,0
20764,42,-8226,1104,-54,26,11,-11991,0,-2,0,0,37154,309,27,79,0,0,0,0,0,0,0,0,-32315,0,0,0,3912,0,30205,0
20774,92,-8194,1098,-47,41,13,-11992,-5,-1,0,0,37154,303,26,79,0,0,0,0,0,0,0,0,-32316,0,0,0,3913,0,30225,0
20784,90,-8202,1092,-49,34,12,-11993,2,2,0,0,37153,303,26,79,0,0,0,0,0,0,0,0,-32316,0,0,0,3913,0,30245,0
20794,56,-8228,1096,-48,39,13,-11993,1,0,-1,0,37155,308,27,79,0,0,0,0,0,0,0,0,-32316,0,0,0,3913,0,30265,0
20804,90,-8212,1120,-45,42,15,-11990,9,-1,-1,0,37155,311,27,79,0,0,0,0,0,0,0,0,-32316,0,0,0,3913,0,30285,0
20814,98,-8224,1112,-51,38,9,-11991,0,1,-1,0,37155,308,27,79,0,0,0,0,0,0,0,0,-32316,0,0,0,3913,0,30305,0
20824,92,-8220,1108,-51,36,13,-11993,-9,5,-1,0,37161,301,26,79,0,0,0,0,0,0,0,0,-32315,0,0,0,3913,0,30325,0
20834,86,-8192,1110,-53,41,16,-11992,5,5,-2,0,37162,301,26,79,0,0,0,0,0,0,0,0,-32316,0,0,0,3913,0,30345,0
20844,92,-8222,1110,-49,46,15,-11991,3,-1,-3,0,37163,311,27,79,0,0,0,0,0,0,0,0,-32316,0,0,0,3913,0,30365,0
20854,96,-8230,1074,-52,39,12,-11991,-6,1,-2,0,37156,303,27,79,0,0,0,0,0,0,0,0,-32316,0,0,0,3913,0,30385,0
20864,78,-8194,1098,-47,41,13,-11991,0,-2,0,0,37155,313,27,79,0,0,0,0,0,0,0,0,-32316,0,0,0,3913,0,30405,0
20874,88,-8220,1086,-44,35,14,-11991,2,4,0,0,37157,318,27,79,0,0,0,0,0,0,0,0,-32316,0,0,0,3913,0,30425,0
20884,96,-8212,1118,-45,40,13,-11992,0,3,1,0,37159,321,26,79,0,0,0,0,0,0,0,0,-32316,0,0,0,3913,0,30445,0
20894,80,-8208,1118,-49,40,15,-11991,-2,-2,-1,0,37159,318,27,79,0,0,0,0,0,0,0,0,-32316,0,0,0,3914,0,30465,0
20904,102,-8206,1102,-52,43,17,-11991,5,-1,0,0,37160,311,26,79,0,0,0,0,0,0,0,0,-32315,0,0,0,3913,0,30485,0
20914,106,-8220,1100,-48,44,19,-11991,0,0,1,0,37163,310,26,79,0,0,0,0,0,0,0,0,-32316,0,0,0,3913,0,30505,0
20924,98,-8230,1122,-51,38,16,-11991,4,0,2,0,37166,312,27,79,0,0,0,0,0,0,0,0,-32315,0,0,0,3912,0,30525,0
20934,96,-8210,1110,-51,43,15,-11992,0,-2,3,0,37164,311,27,79,0,0,0,0,0,0,0,0,-32316,0,0,0,3913,0,30545,0
20944,92,-8224,1114,-53,34,16,-11992,-4,4,0,0,37172,309,27,79,0,0,0,0,0,0,0,0,-32316,0,0,0,3913,0,30565,0
20954,78,-8212,1114,-50,42,20,-11992,-1,-1,1,0,37185,308,27,79,0,0,0,0,0,0,0,0,-32315,0,0,0,3913,0,30585,0
20964,72,-8218,1110,-47,47,15,-11991,2,0,0,0,37187,309,27,79,0,0,0,0,0,0,0,0,-32315,0,0,0,3913,0,30605,0
20974,94,-8224,1098,-48,40,19,-11990,4,6,0,0,37179,313,26,79,0,0,0,0,0,0,0,0,-32316,0,0,0,3913,0,30625,0
20984,92,-8206,1122,-50,38,13,-11991,-1,1,-1,0,37167,316,26,79,0,0,0,0,0,0,0,0,-32316,0,0,0,3913,0,30645,0
20994,90,-8186,1118,-51,42,15,-11992,-2,1,-1,0,37156,318,27,79,0,0,0,0,0,0,0,0,-32316,0,0,0,3913,0,30665,0
21004,70,-8220,1122,-53,43,19,-11991,3,3,0,0,37155,317,27,79,0,0,0,0,0,0,0,0,-32316,0,0,0,3913,0,30685,0
21014,64,-8218,1142,-53,48,17,-11990,5,4,0,0,37153,314,27,79,0,0,0,0,0,0,0,0,-32315,0,0,0,3913,0,30705,0
21024,78,-8202,1098,-54,45,18,-11991,0,0,0,0,37154,306,26,79,0,0,0,0,0,0,0,0,-32316,0,0,0,3913,0,30725,0
21034,112,-8250,1100,-53,44,20,-11991,-3,-1,-1,0,37164,308,26,79,0,0,0,0,0,0,0,0,-32316,0,0,0,3913,0,30745,0
21044,94,-8200,1092,-55,40,20,-11992,-3,-6,-1,0,37164,301,27,79,0,0,0,0,0,0,0,0,-32315,0,0,0,3913,0,30765,0
21054,86,-8200,1128,-55,49,16,-11990,8,2,-1,0,37165,304,26,79,0,0,0,0,0,0,0,0,-32315,0,0,0,3914,0,30785,0
21064,64,-8232,1134,-55,45,17,-11992,-6,-1,-2,0,37163,307,27,79,0,0,0,0,0,0,0,0,-32315,0,0,0,3913,0,30805,0
21074,78,-8222,1116,-51,41,17,-11991,2,-3,-1,0,37159,308,26,79,0,0,0,0,0,0,0,0,-32316,0,0,0,3913,0,30825,0
21084,80,-8200,1104,-58,36,17,-11991,1,0,-2,0,37158,317,26,79,0,0,0,0,0,0,0,0,-32316,0,0,0,3913,0,30845,0
21094,94,-8226,1078,-48,39,19,-11991,1,0,-1,0,37156,322,27,79,0,0,0,0,0,0,0,0,-32315,0,0,0,3913,0,30865,0
21104,58,-8204,1100,-48,35,15,-11993,0,-5,0,0,37153,324,26,79,0,0,0,0,0,0,0,0,-32316,0,0,0,3913,0,30885,0
21114,40,-8222,1092,-46,39,15,-11991,5,4,0,0,37150,317,27,79,0,0,0,0,0,0,0,0,-32316,0,0,0,3912,0,30905,0
21124,24,-8234,1070,-52,36,9,-11991,-2,0,-1,0,37148,304,27,79,0,0,0,0,0,0,0,0,-32316,0,0,0,3914,0,30925,0
21134,74,-8224,1114,-46,37,10,-11991,2,2,0,0,37147,309,27,79,0,0,0,0,0,0,0,0,-32315,0,0,0,3913,0,30945,0
21144,92,-8208,1118,-46,39,8,-11991,2,-1,-1,0,37146,314,27,79,0,0,0,0,0,0,0,0,-32316,0,0,0,3913,0,30965,0
21154,100,-8200,1110,-44,38,8,-11992,-3,-5,0,0,37147,313,27,79,0,0,0,0,0,0,0,0,-32315,0,0,0,3913,0,30985,0
21164,110,-8202,1112,-48,33,6,-11991,3,1,-1,0,37151,305,27,79,0,0,0,0,0,0,0,0,-32315,0,0,0,3912,0,31005,0
21174,108,-8196,1118,-42,43,16,-11992,-3,-3,0,0,37154,309,27,79,0,0,0,0,0,0,0,0,-32316,0,0,0,3913,0,31025,0
21184,96,-8218,1124,-47,40,13,-11990,10,-1,0,0,37151,314,27,79,0,0,0,0,0,0,0,0,-32316,0,0,0,3913,0,31045,0
21194,96,-8222,1118,-55,40,11,-11991,-1,4,-1,0,37148,318,27,79,0,0,0,0,0,0,0,0,-32316,0,0,0,3913,0,31065,0
21204,88,-8204,1112,-46,43,14,-11992,-2,1,0,0,37148,315,27,79,0,0,0,0,0,0,0,0,-32315,0,0,0,3913,0,31085,0
21214,88,-8198,1090,-42,35,12,-11991,-4,-3,0,0,37151,317,26,79,0,0,0,0,0,0,0,0,-32315,0,0,0,3913,0,31105,0
21224,98,-8182,1088,-50,43,12,-11991,-3,-5,0,0,37151,314,26,79,0,0,0,0,0,0,0,0,-32315,0,0,0,3913,0,31126,0
21234,78,-8228,1090,-58,38,14,-11991,11,0,0,0,37149,317,27,79,0,0,0,0,0,0,0,0,-32315,0,0,0,3913,0,31146,0
21244,84,-8216,1106,-49,40,13,-11992,2,-1,-1,0,37148,313,27,79,0,0,0,0,0,0,0,0,-32316,0,0,0,3913,0,31166,0
21254,84,-8230,1116,-49,43,18,-11991,2,-5,0,0,37154,303,27,79,0,0,0,0,0,0,0,0,-32316,0,0,0,3913,0,31186,0
21264,108,-8198,1098,-47,37,14,-11992,-8,-1,-1,0,37155,303,27,79,0,0,0,0,0,0,0,0,-32315,0,0,0,3913,0,31206,0
21274,72,-8214,1116,-50,39,13,-11991,0,1,0,0,37153,300,26,79,0,0,0,0,0,0,0,0,-32316,0,0,0,3913,0,31226,0
21284,82,-8216,1128,-50,41,15,-11992,-1,0,0,0,37146,310,27,79,0,0,0,0,0,0,0,0,-32316,0,0,0,3914,0,31246,0
21294,104,-8214,1106,-54,41,16,-11991,0,-6,-1,0,37146,310,26,79,0,0,0,0,0,0,0,0,-32316,0,0,0,3913,0,31266,0
21304,106,-8224,1092,-54,42,20,-11991,1,3,1,0,37146,308,26,79,0,0,0,0,0,0,0,0,-32316,0,0,0,3913,0,31286,0
21314,94,-8204,1116,-54,44,16,-11991,-3,0,0,0,37147,309,27,79,0,0,0,0,0,0,0,0,-32316,0,0,0,3913,0,31306,0
21324,86,-8220,1118,-51,45,17,-11991,0,3,0,0,37146,317,27,79,0,0,0,0,0,0,0,0,-32316,0,0,0,3913,0,31326,0
21334,52,-8220,1074,-48,44,16,-11992,2,10,-1,0,37144,312,27,79,0,0,0,0,0,0,0,0,-32316,0,0,0,3913,0,31346,0
21344,86,-8194,1098,-53,36,14,-11993,-1,4,-3,0,37146,310,27,79,0,0,0,0,0,0,0,0,-32316,0,0,0,3913,0,31366,0
21354,88,-8228,1100,-54,42,13,-11991,6,-4,0,0,37154,313,26,79,0,0,0,0,0,0,0,0,-32315,0,0,0,3914,0,31387,0
21364,94,-8222,1092,-50,39,12,-11991,4,-2,0,0,37154,316,26,79,0,0,0,0,0,0,0,0,-32315,0,0,0,3913,0,31407,0
21374,100,-8234,1100,-51,41,14,-11992,-1,1,0,0,37154,318,27,79,0,0,0,0,0,0,0,0,-32315,0,0,0,3913,0,31427,0
21384,94,-8200,1120,-53,39,16,-11992,-4,1,0,0,37145,312,27,79,0,0,0,0,0,0,0,0,-32315,0,0,0,3914,0,31447,0
21394,78,-8212,1106,-44,39,17,-11991,-4,-4,-1,0,37144,306,26,79,0,0,0,0,0,0,0,0,-32316,0,0,0,3913,0,31467,0
21404,86,-8208,1102,-53,39,17,-11992,2,-4,0,0,37143,305,27,79,0,0,0,0,0,0,0,0,-32316,0,0,0,3913,0,31487,0
21414,96,-8236,1122,-52,41,10,-11992,-6,4,-3,0,37142,299,26,79,0,0,0,0,0,0,0,0,-32316,0,0,0,3913,0,31507,0
21424,78,-8222,1116,-55,42,13,-11992,-4,0,0,0,37143,300,26,79,0,0,0,0,0,0,0,0,-32316,0,0,0,3913,0,31527,0
21434,82,-8218,1084,-50,43,19,-11991,-3,-2,0,0,37143,303,27,79,0,0,0,0,0,0,0,0,-32316,0,0,0,3913,0,31547,0
21444,76,-8228,1074,-48,43,11,-11991,8,-4,0,0,37144,301,26,79,0,0,0,0,0,0,0,0,-32315,0,0,0,3913,0,31567,0
21454,78,-8208,1076,-52,39,16,-11991,3,3,0,0,37144,300,27,79,0,0,0,0,0,0,0,0,-32315,0,0,0,3913,0,31588,0
21464,92,-8222,1084,-48,38,15,-11991,4,4,0,0,37151,301,26,79,0,0,0,0,0,0,0,0,-32316,0,0,0,3913,0,31608,0
21474,110,-8204,1130,-41,32,8,-11991,4,-4,0,0,37151,306,26,79,0,0,0,0,0,0,0,0,-32315,0,0,0,3913,0,31629,0
21484,88,-8200,1150,-48,42,17,-11992,-4,3,0,0,37151,308,27,79,0,0,0,0,0,0,0,0,-32316,0,0,0,3913,0,31649,0
21494,82,-8210,1132,-49,44,19,-11991,2,-1,-2,0,37147,305,26,79,0,0,0,0,0,0,0,0,-32316,0,0,0,3913,0,31669,0
21504,122,-8196,1126,-47,37,17,-11992,3,-1,0,0,37148,309,26,79,0,0,0,0,0,0,0,0,-32316,0,0,0,3913,0,31689,0
21514,110,-8210,1114,-52,43,16,-11992,3,4,-2,0,37146,312,27,79,0,0,0,0,0,0,0,0,-32315,0,0,0,3913,0,31709,0
21524,94,-8234,1122,-56,48,18,-11990,3,7,-1,0,37145,312,26,79,0,0,0,0,0,0,0,0,-32316,0,0,0,3913,0,31729,0
21534,118,-8216,1116,-53,40,22,-11990,4,1,-1,0,37144,313,27,79,0,0,0,0,0,0,0,0,-32315,0,0,0,3913,0,31749,0
21544,76,-8208,1112,-58,42,23,-11991,2,6,-1,0,37148,305,27,79,0,0,0,0,0,0,0,0,-32316,0,0,0,3913,0,31769,0
21554,82,-8214,1100,-59,45,22,-11989,5,-1,0,0,37148,297,27,79,0,0,0,0,0,0,0,0,-32316,0,0,0,3913,0,31789,0
21564,84,-8190,1072,-51,45,16,-11991,-2,-2,-3,0,37152,293,27,79,0,0,0,0,0,0,0,0,-32315,0,0,0,3913,0,31809,0
21574,80,-8200,1064,-48,39,16,-11992,-4,-1,0,0,37150,297,27,79,0,0,0,0,0,0,0,0,-32315,0,0,0,3914,0,31829,0
21584,90,-8218,1078,-51,43,19,-11989,13,-3,0,0,37152,305,26,79,0,0,0,0,0,0,0,0,-32315,0,0,0,3914,0,31850,0
21594,48,-8238,1106,-50,43,18,-11992,-3,-2,-3,0,37154,307,26,79,0,0,0,0,0,0,0,0,-32315,0,0,0,3914,0,31870,0
21604,98,-8196,1102,-51,37,15,-11992,-2,-7,0,0,37150,303,27,79,0,0,0,0,0,0,0,0,-32316,0,0,0,3913,0,31890,0
21614,112,-8228,1120,-45,42,17,-11991,-2,3,-1,0,37151,304,27,79,0,0,0,0,0,0,0,0,-32315,0,0,0,3913,0,31910,0
21624,110,-8206,1082,-48,40,13,-11990,4,0,0,0,37153,307,27,79,0,0,0,0,0,0,0,0,-32315,0,0,0,3914,0,31930,0
21634,92,-8198,1118,-47,36,11,-11989,3,-1,0,0,37154,310,27,79,0,0,0,0,0,0,0,0,-32316,0,0,0,3913,0,31950,0
21644,78,-8246,1116,-51,43,18,-11992,0,4,-1,0,37151,306,27,79,0,0,0,0,0,0,0,0,-32316,0,0,0,3913,0,31970,0
21654,88,-8226,1116,-47,39,18,-11991,10,-2,-1,0,37149,306,27,79,0,0,0,0,0,0,0,0,-32316,0,0,0,3914,0,31990,0
21664,56,-8216,1114,-53,36,14,-11990,-1,-2,0,0,37151,310,26,79,0,0,0,0,0,0,0,0,-32316,0,0,0,3913,0,32010,0
21674,70,-8232,1090,-52,41,11,-11993,-2,1,-2,0,37161,314,26,79,0,0,0,0,0,0,0,0,-32316,0,0,0,3913,0,32030,0
21684,44,-8210,1106,-51,40,13,-11992,0,1,0,0,37163,309,27,79,0,0,0,0,0,0,0,0,-32316,0,0,0,3913,0,32050,0
21694,62,-8202,1094,-47,40,14,-11991,-3,-1,-2,0,37161,305,26,79,0,0,0,0,0,0,0,0,-32316,0,0,0,3914,0,32070,0
21704,98,-8246,1094,-44,36,14,-11992,-4,5,-1,0,37155,302,27,79,0,0,0,0,0,0,0,0,-32315,0,0,0,3913,0,32090,0
21714,98,-8206,1128,-51,35,13,-11990,2,7,-1,0,37155,303,27,79,0,0,0,0,0,0,0,0,-32316,0,0,0,3913,0,32110,0
21724,82,-8234,1104,-54,39,21,-11991,-7,2,-1,0,37157,316,27,79,0,0,0,0,0,0,0,0,-32315,0,0,0,3913,0,32130,0
21734,56,-8224,1124,-48,40,13,-11991,6,5,1,0,37155,326,27,79,0,0,0,0,0,0,0,0,-32316,0,0,0,3913,0,32150,0
21744,84,-8220,1112,-53,36,13,-11992,-5,0,-1,0,37153,325,27,79,0,0,0,0,0,0,0,0,-32316,0,0,0,3913,0,32170,0
21754,92,-8218,1114,-50,38,14,-11991,0,1,0,0,37151,313,27,79,0,0,0,0,0,0,0,0,-32316,0,0,0,3913,0,32190,0
21764,96,-8212,1122,-52,37,16,-11990,3,-3,0,0,37154,309,27,79,0,0,0,0,0,0,0,0,-32316,0,0,0,3913,0,32210,0
21774,80,-8206,1122,-56,40,14,-11989,3,1,-1,0,37158,304,27,79,0,0,0,0,0,0,0,0,-32315,0,0,0,3915,0,32230,0
21784,114,-8210,1100,-53,38,13,-11991,3,0,1,0,37158,307,27,79,0,0,0,0,0,0,0,0,-32316,0,0,0,3914,0,32250,0
21794,88,-8222,1092,-54,39,12,-11990,3,3,-1,0,37158,310,27,79,0,0,0,0,0,0,0,0,-32316,0,0,0,3913,0,32270,0
21804,104,-8206,1086,-53,43,17,-11991,-3,-5,0,0,37161,314,27,79,0,0,0,0,0,0,0,0,-32316,0,0,0,3913,0,32290,0
21814,78,-8244,1112,-49,38,20,-11992,-6,-4,0,0,37156,310,27,79,0,0,0,0,0,0,0,0,-32316,0,0,0,3913,0,32310,0
21824,78,-8228,1098,-56,37,15,-11990,0,1,-1,0,37154,307,27,79,0,0,0,0,0,0,0,0,-32316,0,0,0,3913,0,32330,0
21834,62,-8188,1102,-53,42,14,-11990,6,6,0,0,37156,310,26,79,0,0,0,0,0,0,0,0,-32315,0,0,0,3914,0,32350,0
21844,88,-8224,1094,-48,43,12,-11990,6,1,-1,0,37157,313,26,79,0,0,0,0,0,0,0,0,-32315,0,0,0,3915,0,32370,0
21854,92,-8202,1114,-51,47,13,-11991,0,-5,0,0,37157,315,27,79,0,0,0,0,0,0,0,0,-32315,0,0,0,3913,0,32390,0
21864,92,-8186,1116,-47,42,15,-11991,-1,-4,-1,0,37156,306,27,79,0,0,0,0,0,0,0,0,-32315,0,0,0,3913,0,32410,0
21874,76,-8240,1126,-55,41,13,-11991,5,2,0,0,37155,307,27,79,0,0,0,0,0,0,0,0,-32316,0,0,0,3914,0,32430,0
21884,88,-8226,1098,-52,43,20,-11992,-12,4,0,0,37162,306,26,79,0,0,0,0,0,0,0,0,-32316,0,0,0,3913,0,32450,0
21894,86,-8198,1100,-54,43,11,-11989,15,7,-1,0,37165,312,26,79,0,0,0,0,0,0,0,0,-32316,0,0,0,3913,0,32470,0
21904,70,-8216,1114,-56,40,14,-11991,-1,4,0,0,37165,302,27,79,0,0,0,0,0,0,0,0,-32316,0,0,0,3912,0,32490,0
21914,86,-8188,1086,-53,41,13,-11990,-3,6,0,0,37164,299,27,79,0,0,0,0,0,0,0,0,-32316,0,0,0,3913,0,32510,0
21924,82,-8238,1090,-50,41,18,-11991,2,-2,-2,0,37157,302,27,79,0,0,0,0,0,0,0,0,-32315,0,0,0,3914,0,32530,0
21934,88,-8224,1114,-49,39,14,-11990,8,3,1,0,37157,305,26,79,0,0,0,0,0,0,0,0,-32315,0,0,0,3914,0,32550,0
21944,72,-8200,1086,-53,40,16,-11990,-1,5,-2,0,37157,305,26,79,0,0,0,0,0,0,0,0,-32315,0,0,0,3913,0,32570,0
21954,94,-8210,1104,-51,43,16,-11990,5,1,0,0,37155,307,27,79,0,0,0,0,0,0,0,0,-32315,0,0,0,3913,0,32590,0
21964,68,-8212,1102,-53,36,13,-11991,0,4,0,0,37155,311,27,79,0,0,0,0,0,0,0,0,-32315,0,0,0,3913,0,32610,0
21974,102,-8198,1114,-48,36,13,-11991,0,-1,0,0,37154,312,27,79,0,0,0,0,0,0,0,0,-32316,0,0,0,3913,0,32630,0
21984,96,-8220,1084,-53,38,12,-11992,-7,0,0,0,37156,312,27,79,0,0,0,0,0,0,0,0,-32316,0,0,0,3914,0,32650,0
21994,94,-8212,1102,-49,42,13,-11991,-1,-4,0,0,37165,305,27,79,0,0,0,0,0,0,0,0,-32315,0,0,0,3913,0,32670,0
22004,100,-8188,1122,-47,41,15,-11991,1,-2,0,0,37161,301,27,79,0,0,0,0,0,0,0,0,-32316,0,0,0,3913,0,32690,0
22014,88,-8226,1078,-46,43,13,-11989,4,3,0,0,37160,300,27,79,0,0,0,0,0,0,0,0,-32315,0,0,0,3913,0,32710,0
22024,76,-8226,1112,-50,40,15,-11990,2,-1,0,0,37151,310,27,79,0,0,0,0,0,0,0,0,-32315,0,0,0,3913,0,32730,0
22034,86,-8218,1086,-50,42,14,-11991,4,0,0,0,37154,311,26,79,0,0,0,0,0,0,0,0,-32315,0,0,0,3913,0,32750,0
22044,90,-8226,1140,-51,38,18,-11992,-5,-1,-2,0,37154,310,27,79,0,0,0,0,0,0,0,0,-32315,0,0,0,3913,0,32770,0
22054,82,-8214,1124,-50,38,17,-11991,-6,0,0,0,37151,297,27,79,0,0,0,0,0,0,0,0,-32315,0,0,0,3913,0,32790,0
22064,88,-8216,1092,-56,46,17,-11992,2,-4,-2,0,37151,294,27,79,0,0,0,0,0,0,0,0,-32315,0,0,0,3912,0,32810,0
22074,74,-8208,1100,-54,37,20,-11990,3,1,0,0,37151,300,27,79,0,0,0,0,0,0,0,0,-32316,0,0,0,3913,0,32830,0
22084,90,-8196,1092,-56,41,20,-11991,2,-5,0,0,37151,299,26,79,0,0,0,0,0,0,0,0,-32315,0,0,0,3914,0,32850,0
22094,88,-8194,1088,-60,41,17,-11991,-1,1,-4,0,37157,307,27,79,0,0,0,0,0,0,0,0,-32315,0,0,0,3914,0,32870,0
22104,96,-8228,1096,-59,37,12,-11991,-5,2,0,0,37158,306,26,79,0,0,0,0,0,0,0,0,-32315,0,0,0,3913,0,32890,0
22114,86,-8202,1088,-56,43,17,-11990,-3,6,0,0,37157,309,26,79,0,0,0,0,0,0,0,0,-32316,0,0,0,3913,0,32910,0
22124,104,-8202,1114,-46,40,15,-11991,1,-5,-1,0,37157,310,27,79,0,0,0,0,0,0,0,0,-32316,0,0,0,3913,0,32930,0
22134,100,-8200,1106,-55,39,16,-11991,1,1,1,0,37154,316,26,79,0,0,0,0,0,0,0,0,-32315,0,0,0,3913,0,32950,0
22144,92,-8206,1112,-52,41,15,-11991,2,-2,-1,0,37154,315,26,79,0,0,0,0,0,0,0,0,-32315,0,0,0,3914,0,32970,0
22154,82,-8208,1104,-50,43,16,-11991,-2,3,1,0,37151,313,27,79,0,0,0,0,0,0,0,0,-32315,0,0,0,3914,0,32990,0
22164,74,-8204,1090,-47,40,16,-11990,8,-1,0,0,37149,313,27,79,0,0,0,0,0,0,0,0,-32316,0,0,0,3913,0,33010,0
22174,72,-8218,1092,-46,40,14,-11991,0,1,-2,0,37148,317,27,79,0,0,0,0,0,0,0,0,-32315,0,0,0,3913,0,33030,0
22184,54,-8204,1114,-49,41,13,-11990,6,4,0,0,37151,314,27,79,0,0,0,0,0,0,0,0,-32315,0,0,0,3913,0,33050,0
22194,98,-8224,1106,-49,40,13,-11990,0,-1,0,0,37150,307,27,79,0,0,0,0,0,0,0,0,-32315,0,0,0,3913,0,33070,0
22204,74,-8214,1100,-51,41,10,-11991,-8,1,1,0,37153,303,27,79,0,0,0,0,0,0,0,0,-32316,0,0,0,3914,0,33090,0
22214,86,-8196,1102,-48,39,13,-11990,1,-5,0,0,37154,309,27,79,0,0,0,0,0,0,0,0,-32315,0,0,0,3913,0,33110,0
22224,88,-8206,1134,-51,34,8,-11991,0,-3,-1,0,37167,309,27,79,0,0,0,0,0,0,0,0,-32316,0,0,0,3913,0,33130,0
22234,82,-8218,1110,-47,40,18,-11991,0,-2,0,0,37164,312,27,79,0,0,0,0,0,0,0,0,-32315,0,0,0,3914,0,33150,0
22244,70,-8210,1116,-51,42,14,-11991,-9,-3,0,0,37162,318,27,79,0,0,0,0,0,0,0,0,-32315,0,0,0,3913,0,33170,0
22254,86,-8198,1094,-49,39,14,-11991,0,5,0,0,37152,312,27,79,0,0,0,0,0,0,0,0,-32315,0,0,0,3912,0,33190,0
22264,106,-8212,1108,-51,36,17,-11991,3,6,0,0,37148,299,27,79,0,0,0,0,0,0,0,0,-32316,0,0,0,3913,0,33210,0
22274,94,-8228,1098,-50,36,16,-11992,0,1,0,0,37150,292,26,79,0,0,0,0,0,0,0,0,-32315,0,0,0,3913,0,33230,0
22284,94,-8236,1110,-54,39,18,-11991,-6,-4,0,0,37151,294,26,79,0,0,0,0,0,0,0,0,-32315,0,0,0,3913,0,33250,0
22294,100,-8190,1126,-48,46,19,-11993,-12,0,-1,0,37148,305,27,79,0,0,0,0,0,0,0,0,-32315,0,0,0,3913,0,33270,0
22304,118,-8232,1132,-52,43,23,-11990,6,3,-1,0,37154,311,27,79,0,0,0,0,0,0,0,0,-32316,0,0,0,3913,0,33290,0
22314,78,-8242,1116,-50,37,19,-11991,-1,2,0,0,37156,308,27,79,0,0,0,0,0,0,0,0,-32315,0,0,0,3913,0,33310,0
22324,90,-8196,1102,-55,38,20,-11991,5,-3,-1,0,37160,315,27,79,0,0,0,0,0,0,0,0,-32315,0,0,0,3914,0,33330,0
22334,54,-8216,1094,-52,39,18,-11990,-3,-3,0,0,37152,314,26,79,0,0,0,0,0,0,0,0,-32315,0,0,0,3914,0,33350,0
22344,70,-8214,1100,-54,37,15,-11991,-1,5,-1,0,37148,310,27,79,0,0,0,0,0,0,0,0,-32316,0,0,0,3913,0,33370,0
22354,46,-8226,1110,-50,43,18,-11990,-1,-6,0,0,37148,311,27,79,0,0,0,0,0,0,0,0,-32315,0,0,0,3914,0,33390,0
22364,70,-8202,1112,-55,37,15,-11990,1,4,0,0,37149,310,27,79,0,0,0,0,0,0,0,0,-32316,0,0,0,3913,0,33410,0
