state_time,accelx,accely,accelz,gyrox,gyroy,gyroz,mot_ang,mot_vel,mot_acc,mot_cur,mot_volt,batt_volt,batt_curr,temperature,status_mn,status_ex,status_re,genvar_0,genvar_1,genvar_2,genvar_3,genvar_4,genvar_5,genvar_6,genvar_7,genvar_8,genvar_9,ank_ang,ank_vel,sys_time,event flags
17839,-756,-8236,274,-54,15,2,13915,-1,4,4,0,37336,102,24,144,0,0,0,0,0,0,0,0,-32296,0,0,0,4449,0,3326,0
17849,-774,-8196,280,-52,16,8,13914,0,-1,6,0,37336,106,24,144,0,0,0,0,0,0,0,0,-32296,0,0,0,4449,0,17839,0
17859,-764,-8204,274,-49,13,4,13914,0,2,4,0,37332,107,24,144,0,0,0,0,0,0,0,0,-32296,0,0,0,4449,0,17839,0
17869,-766,-8226,266,-51,18,5,13915,5,1,4,0,37330,103,24,144,0,0,0,0,0,0,0,0,-32296,0,0,0,4449,0,17839,0
17879,-752,-8198,262,-55,18,14,13914,-2,-1,4,0,37334,109,24,144,0,0,0,0,0,0,0,0,-32296,0,0,0,4449,0,17839,0
17889,-754,-8200,266,-56,10,12,13915,9,6,4,0,37334,102,24,144,0,0,0,0,0,0,0,0,-32296,0,0,0,4449,0,17839,0
17899,-774,-8214,260,-54,15,13,13914,4,1,5,0,37338,112,24,144,0,0,0,0,0,0,0,0,-32296,0,0,0,4449,0,17839,0
17909,-804,-8200,250,-53,11,10,13915,0,5,5,0,37339,116,24,144,0,0,0,0,0,0,0,0,-32296,0,0,0,4449,0,17839,0
17919,-766,-8184,276,-51,12,10,13915,5,-1,4,0,37341,120,24,144,0,0,0,0,0,0,0,0,-32296,0,0,0,4451,0,17839,0
17929,-782,-8250,274,-51,15,11,13913,-11,4,5,0,37340,120,24,144,0,0,0,0,0,0,0,0,-32296,0,0,0,4449,0,17839,0
17939,-760,-8218,272,-55,13,7,13914,-4,-4,4,0,37333,113,24,144,0,0,0,0,0,0,0,0,-32296,0,0,0,4450,0,17839,0
17949,-766,-8202,252,-50,10,15,13915,0,-4,4,0,37332,110,24,144,0,0,0,0,0,0,0,0,-32295,0,0,0,4451,0,17839,0
17959,-764,-8228,262,-55,15,14,13915,7,2,5,0,37335,106,24,144,0,0,0,0,0,0,0,0,-32296,0,0,0,4450,0,17843,0
17969,-766,-8210,270,-47,12,12,13914,6,-1,5,0,37336,103,24,144,0,0,0,0,0,0,0,0,-32296,0,0,0,4450,0,17853,0
17979,-776,-8222,274,-50,11,15,13915,4,2,6,0,37334,97,24,144,0,0,0,0,0,0,0,0,-32296,0,0,0,4449,0,17863,0
17989,-794,-8210,262,-45,15,12,13914,-7,-4,4,0,37333,105,24,144,0,0,0,0,0,0,0,0,-32296,0,0,0,4450,0,17873,0
17999,-800,-8206,276,-50,18,15,13914,4,1,7,0,37333,101,24,144,0,0,0,0,0,0,0,0,-32296,0,0,0,4451,0,17883,0
18009,-780,-8202,256,-50,16,14,13913,0,0,6,0,37338,108,24,144,0,0,0,0,0,0,0,0,-32296,0,0,0,4449,0,17893,0
18019,-788,-8238,266,-52,13,10,13916,6,-2,3,0,37338,101,24,144,0,0,0,0,0,0,0,0,-32296,0,0,0,4450,0,17903,0
18029,-802,-8212,260,-52,17,9,13914,0,1,5,0,37342,111,24,144,0,0,0,0,0,0,0,0,-32297,0,0,0,4450,0,17913,0
18039,-786,-8206,270,-47,18,10,13916,7,-10,6,0,37339,102,24,144,0,0,0,0,0,0,0,0,-32295,0,0,0,4450,0,17930,0
18049,-776,-8218,272,-50,16,4,13914,0,1,4,0,37338,115,24,144,0,0,0,0,0,0,0,0,-32296,0,0,0,4450,0,17945,0
18059,-788,-8230,292,-51,18,3,13914,2,-1,5,0,37337,114,24,144,0,0,0,0,0,0,0,0,-32296,0,0,0,4449,0,17955,0
18069,-800,-8212,276,-53,13,3,13914,0,1,4,0,37335,121,24,144,0,0,0,0,0,0,0,0,-32296,0,0,0,4450,0,17965,0
18079,-798,-8212,290,-55,16,9,13915,2,3,4,0,37334,127,24,144,0,0,0,0,0,0,0,0,-32296,0,0,0,4450,0,17975,0
18089,-778,-8188,258,-55,15,5,13914,-5,-3,6,0,37329,119,24,144,0,0,0,0,0,0,0,0,-32295,0,0,0,4449,0,17991,0
18099,-790,-8216,270,-52,10,4,13916,2,-3,4,0,37329,110,24,144,0,0,0,0,0,0,0,0,-32296,0,0,0,4451,0,18006,0
18109,-788,-8198,234,-51,10,4,13917,14,-4,3,0,37338,102,24,144,0,0,0,0,0,0,0,0,-32296,0,0,0,4450,0,18016,0
18119,-776,-8232,266,-47,10,4,13916,0,0,5,0,37338,103,24,144,0,0,0,0,0,0,0,0,-32296,0,0,0,4450,0,18026,0
18129,-774,-8198,266,-46,13,7,13913,-4,2,5,0,37337,107,24,144,0,0,0,0,0,0,0,0,-32296,0,0,0,4451,0,18038,0
18139,-754,-8206,270,-45,15,-4,13914,-5,4,4,0,37327,104,24,144,0,0,0,0,0,0,0,0,-32295,0,0,0,4451,0,18048,0
18149,-774,-8232,288,-51,14,5,13913,-12,-2,3,0,37328,106,24,144,0,0,0,0,0,0,0,0,-32296,0,0,0,4450,0,18058,0
18159,-766,-8218,284,-51,12,1,13913,-2,6,3,0,37329,103,24,144,0,0,0,0,0,0,0,0,-32296,0,0,0,4450,0,18068,0
18169,-776,-8228,264,-53,18,3,13913,-5,-2,5,0,37330,107,24,144,0,0,0,0,0,0,0,0,-32296,0,0,0,4450,0,18078,0
18179,-766,-8222,284,-54,14,6,13913,-4,2,4,0,37331,106,24,144,0,0,0,0,0,0,0,0,-32296,0,0,0,4450,0,18089,0
18189,-770,-8212,266,-48,17,12,13913,-6,-1,5,0,37328,110,24,144,0,0,0,0,0,0,0,0,-32296,0,0,0,4450,0,18101,0
18199,-774,-8208,266,-50,17,11,13914,3,4,3,0,37327,110,24,144,0,0,0,0,0,0,0,0,-32296,0,0,0,4451,0,18111,0
18209,-786,-8194,230,-47,17,11,13914,-2,-4,4,0,37328,113,24,144,0,0,0,0,0,0,0,0,-32296,0,0,0,4450,0,18121,0
18219,-806,-8180,264,-49,18,8,13915,10,2,5,0,37336,109,24,144,0,0,0,0,0,0,0,0,-32296,0,0,0,4451,0,18131,0
18229,-782,-8202,246,-50,16,8,13915,-2,-3,3,0,37338,109,24,144,0,0,0,0,0,0,0,0,-32296,0,0,0,4450,0,18143,0
18239,-778,-8212,270,-47,18,10,13914,0,1,5,0,37337,105,24,144,0,0,0,0,0,0,0,0,-32295,0,0,0,4449,0,18153,0
18249,-792,-8234,268,-47,12,7,13914,0,-1,3,0,37332,118,24,144,0,0,0,0,0,0,0,0,-32296,0,0,0,4450,0,18163,0
18259,-796,-8210,282,-51,19,5,13915,3,-3,3,0,37330,107,24,144,0,0,0,0,0,0,0,0,-32296,0,0,0,4451,0,18173,0
18269,-780,-8220,266,-51,13,5,13914,-1,1,5,0,37327,100,24,144,0,0,0,0,0,0,0,0,-32295,0,0,0,4449,0,18187,0
18279,-794,-8224,276,-51,18,3,13914,3,-4,3,0,37324,96,24,144,0,0,0,0,0,0,0,0,-32296,0,0,0,4450,0,18197,0
18289,-786,-8198,292,-50,14,0,13914,0,0,4,0,37326,108,24,144,0,0,0,0,0,0,0,0,-32295,0,0,0,4449,0,18207,0
18299,-772,-8208,274,-52,14,0,13914,-6,-1,3,0,37327,114,24,144,0,0,0,0,0,0,0,0,-32296,0,0,0,4450,0,18217,0
18309,-774,-8204,266,-51,13,3,13914,2,-3,5,0,37326,104,24,144,0,0,0,0,0,0,0,0,-32296,0,0,0,4451,0,18227,0
18319,-792,-8196,250,-50,17,-3,13915,-4,-8,4,0,37327,93,24,144,0,0,0,0,0,0,0,0,-32295,0,0,0,4451,0,18237,0
18329,-794,-8224,262,-52,13,-8,13916,7,0,3,0,37327,97,24,144,0,0,0,0,0,0,0,0,-32296,0,0,0,4450,0,18250,0
18339,-780,-8200,274,-51,10,3,13915,0,2,7,0,37327,101,24,144,0,0,0,0,0,0,0,0,-32296,0,0,0,4450,0,18259,0
18349,-756,-8206,272,-53,13,1,13915,4,1,3,0,37324,103,24,144,0,0,0,0,0,0,0,0,-32296,0,0,0,4449,0,18270,0
18359,-732,-8222,232,-54,15,9,13915,5,2,4,0,37324,104,24,144,0,0,0,0,0,0,0,0,-32296,0,0,0,4449,0,18280,0
18369,-758,-8176,270,-50,18,9,13914,1,-2,5,0,37324,105,24,144,0,0,0,0,0,0,0,0,-32296,0,0,0,4451,0,18292,0
18379,-742,-8192,236,-55,12,10,13914,0,-2,4,0,37325,111,24,144,0,0,0,0,0,0,0,0,-32296,0,0,0,4450,0,18302,0
18389,-784,-8234,262,-52,13,13,13915,-3,-3,5,0,37324,111,24,144,0,0,0,0,0,0,0,0,-32295,0,0,0,4450,0,18312,0
18399,-750,-8218,262,-57,15,8,13914,-4,2,2,0,37324,101,24,144,0,0,0,0,0,0,0,0,-32296,0,0,0,4450,0,18322,0
18409,-784,-8192,258,-45,14,12,13913,-8,-7,5,0,37322,102,24,144,0,0,0,0,0,0,0,0,-32295,0,0,0,4450,0,18333,0
18419,-770,-8232,272,-46,16,15,13913,3,8,9,0,37322,104,24,144,0,0,0,0,0,0,0,0,-32296,0,0,0,4450,0,18346,0
18429,-784,-8226,264,-50,18,14,13916,7,1,3,0,37336,103,24,144,0,0,0,0,0,0,0,0,-32296,0,0,0,4450,0,18357,0
18439,-764,-8178,252,-48,18,12,13914,0,2,6,0,37351,107,24,144,0,0,0,0,0,0,0,0,-32296,0,0,0,4450,0,18366,0
18449,-786,-8234,252,-49,17,13,13913,-4,5,4,0,37365,106,24,144,0,0,0,0,0,0,0,0,-32296,0,0,0,4450,0,18373,0
18459,-764,-8220,268,-49,14,12,13913,-1,4,3,0,37355,102,24,144,0,0,0,0,0,0,0,0,-32296,0,0,0,4450,0,18376,0
18469,-770,-8226,284,-52,15,15,13915,-5,-4,5,0,37340,107,24,144,0,0,0,0,0,0,0,0,-32296,0,0,0,4450,0,18383,0
18479,-796,-8234,270,-50,15,15,13914,-4,-2,3,0,37326,100,24,144,0,0,0,0,0,0,0,0,-32296,0,0,0,4450,0,18387,0
18489,-796,-8204,264,-49,13,13,13914,-4,0,4,0,37319,107,24,144,0,0,0,0,0,0,0,0,-32296,0,0,0,4450,0,18390,0
18499,-788,-8182,248,-52,16,9,13914,-3,-5,5,0,37318,102,24,144,0,0,0,0,0,0,0,0,-32296,0,0,0,4450,0,18392,0
18509,-784,-8208,236,-54,13,8,13915,3,2,5,0,37321,105,24,144,0,0,0,0,0,0,0,0,-32295,0,0,0,4450,0,18396,0
18519,-774,-8212,250,-46,16,7,13914,0,3,5,0,37323,103,24,144,0,0,0,0,0,0,0,0,-32295,0,0,0,4450,0,18399,0
18529,-796,-8216,254,-47,21,6,13914,1,-1,2,0,37319,113,24,144,0,0,0,0,0,0,0,0,-32295,0,0,0,4451,0,18402,0
18539,-786,-8214,266,-47,15,7,13915,-1,0,5,0,37318,107,24,144,0,0,0,0,0,0,0,0,-32295,0,0,0,4450,0,18405,0
18549,-784,-8210,266,-53,14,9,13914,-8,0,5,0,37319,115,24,144,0,0,0,0,0,0,0,0,-32296,0,0,0,4451,0,18407,0
18559,-758,-8194,284,-49,10,9,13914,-4,-4,4,0,37320,109,24,144,0,0,0,0,0,0,0,0,-32296,0,0,0,4450,0,18413,0
18569,-804,-8230,268,-53,14,6,13914,-1,-1,6,0,37320,107,24,144,0,0,0,0,0,0,0,0,-32296,0,0,0,4451,0,18420,0
18579,-796,-8224,274,-50,13,5,13915,3,4,2,0,37321,114,24,144,0,0,0,0,0,0,0,0,-32296,0,0,0,4451,0,18420,0
18589,-774,-8230,276,-49,16,7,13915,1,-1,4,0,37323,112,24,144,0,0,0,0,0,0,0,0,-32296,0,0,0,4450,0,18424,0
18599,-778,-8218,268,-50,15,9,13913,-4,0,5,0,37322,109,24,144,0,0,0,0,0,0,0,0,-32296,0,0,0,4451,0,18425,0
18609,-774,-8192,258,-48,13,5,13913,-4,-5,4,0,37321,101,24,144,0,0,0,0,0,0,0,0,-32296,0,0,0,4451,0,18428,0
18619,-756,-8226,250,-50,17,3,13914,-3,0,5,0,37323,103,24,144,0,0,0,0,0,0,0,0,-32296,0,0,0,4450,0,18432,0
18629,-784,-8206,276,-52,13,5,13913,0,5,3,0,37325,96,24,144,0,0,0,0,0,0,0,0,-32296,0,0,0,4449,0,18435,0
18639,-770,-8210,278,-46,13,5,13914,-7,-5,5,0,37328,98,24,144,0,0,0,0,0,0,0,0,-32296,0,0,0,4450,0,18441,0
18649,-784,-8228,296,-48,12,2,13914,-2,-3,4,0,37327,91,24,144,0,0,0,0,0,0,0,0,-32296,0,0,0,4450,0,18445,0
18659,-808,-8226,274,-51,11,4,13914,1,-1,5,0,37330,96,24,144,0,0,0,0,0,0,0,0,-32296,0,0,0,4451,0,18451,0
18669,-794,-8218,274,-52,16,6,13914,1,-4,6,0,37330,104,24,144,0,0,0,0,0,0,0,0,-32296,0,0,0,4450,0,18462,0
18679,-772,-8204,260,-53,18,5,13913,-5,5,2,0,37329,108,24,144,0,0,0,0,0,0,0,0,-32296,0,0,0,4450,0,18471,0
18689,-760,-8218,272,-47,13,7,13915,4,0,4,0,37324,113,24,144,0,0,0,0,0,0,0,0,-32296,0,0,0,4450,0,18486,0
18699,-738,-8222,284,-53,12,6,13914,3,-3,6,0,37322,110,24,144,0,0,0,0,0,0,0,0,-32296,0,0,0,4450,0,18496,0
18709,-750,-8222,268,-53,17,12,13914,-1,1,5,0,37323,112,24,144,0,0,0,0,0,0,0,0,-32296,0,0,0,4450,0,18506,0
18719,-766,-8190,250,-45,17,15,13913,-5,-2,6,0,37323,111,24,144,0,0,0,0,0,0,0,0,-32296,0,0,0,4451,0,18516,0
18729,-786,-8236,238,-51,14,13,13914,-4,1,5,0,37323,115,24,144,0,0,0,0,0,0,0,0,-32296,0,0,0,4451,0,18529,0
18739,-802,-8212,258,-48,16,16,13915,0,2,2,0,37330,110,24,144,0,0,0,0,0,0,0,0,-32296,0,0,0,4450,0,18541,0
18749,-788,-8210,254,-48,17,9,13915,-1,-4,3,0,37332,111,24,144,0,0,0,0,0,0,0,0,-32296,0,0,0,4449,0,18551,0
18759,-812,-8208,248,-51,16,6,13914,0,-3,3,0,37333,109,24,144,0,0,0,0,0,0,0,0,-32296,0,0,0,4451,0,18555,0
18769,-758,-8224,302,-51,16,4,13914,0,0,5,0,37325,113,24,144,0,0,0,0,0,0,0,0,-32296,0,0,0,4451,0,18564,0
18779,-794,-8186,268,-45,11,3,13914,0,1,3,0,37324,112,24,144,0,0,0,0,0,0,0,0,-32296,0,0,0,4451,0,18573,0
18789,-776,-8230,260,-49,11,3,13914,5,0,4,0,37323,105,24,144,0,0,0,0,0,0,0,0,-32295,0,0,0,4450,0,18582,0
18799,-766,-8232,264,-54,17,5,13914,0,1,4,0,37327,104,24,144,0,0,0,0,0,0,0,0,-32295,0,0,0,4450,0,18593,0
18809,-766,-8178,244,-50,16,8,13915,5,-1,5,0,37329,105,24,144,0,0,0,0,0,0,0,0,-32296,0,0,0,4450,0,18602,0
18819,-774,-8228,248,-49,16,7,13914,0,-1,5,0,37332,105,24,144,0,0,0,0,0,0,0,0,-32296,0,0,0,4450,0,18612,0
18829,-750,-8204,236,-45,16,8,13915,2,-4,4,0,37329,107,24,144,0,0,0,0,0,0,0,0,-32296,0,0,0,4451,0,18620,0
18839,-776,-8198,256,-43,17,9,13913,-8,4,2,0,37332,108,24,144,0,0,0,0,0,0,0,0,-32295,0,0,0,4451,0,18633,0
18849,-788,-8214,282,-47,11,10,13914,-6,2,6,0,37337,99,24,144,0,0,0,0,0,0,0,0,-32296,0,0,0,4451,0,18644,0
18859,-788,-8220,322,-52,17,14,13914,-6,1,3,0,37340,108,24,144,0,0,0,0,0,0,0,0,-32296,0,0,0,4450,0,18655,0
18869,-774,-8222,284,-54,14,10,13915,6,-1,6,0,37338,116,24,144,0,0,0,0,0,0,0,0,-32296,0,0,0,4450,0,18663,0
18879,-810,-8244,268,-50,11,9,13915,1,-3,2,0,37333,121,24,144,0,0,0,0,0,0,0,0,-32296,0,0,0,4451,0,18673,0
18889,-786,-8184,260,-56,11,8,13915,5,1,4,0,37333,121,24,144,0,0,0,0,0,0,0,0,-32296,0,0,0,4450,0,18686,0
18899,-806,-8210,270,-60,19,7,13913,-3,0,6,0,37331,112,24,144,0,0,0,0,0,0,0,0,-32296,0,0,0,4450,0,18693,0
18909,-794,-8232,220,-51,12,5,13915,10,1,4,0,37329,106,24,144,0,0,0,0,0,0,0,0,-32296,0,0,0,4450,0,18703,0
18919,-784,-8214,238,-50,13,3,13913,-7,-3,3,0,37330,104,24,144,0,0,0,0,0,0,0,0,-32296,0,0,0,4450,0,18713,0
18929,-782,-8206,292,-49,16,8,13913,-8,0,1,0,37332,102,24,144,0,0,0,0,0,0,0,0,-32295,0,0,0,4450,0,18723,0
18939,-786,-8226,238,-49,16,11,13914,3,0,5,0,37333,105,24,144,0,0,0,0,0,0,0,0,-32296,0,0,0,4450,0,18733,0
18949,-756,-8220,246,-47,10,5,13913,-6,1,0,0,37331,97,24,144,0,0,0,0,0,0,0,0,-32296,0,0,0,4449,0,18743,0
18959,-754,-8210,280,-48,18,16,13914,1,0,7,0,37336,98,24,144,0,0,0,0,0,0,0,0,-32296,0,0,0,4450,0,18753,0
18969,-728,-8196,262,-49,14,17,13914,-3,-3,5,0,37336,94,24,144,0,0,0,0,0,0,0,0,-32296,0,0,0,4451,0,18767,0
18979,-760,-8212,254,-51,16,22,13913,0,-4,4,0,37337,91,24,144,0,0,0,0,0,0,0,0,-32296,0,0,0,4452,0,18777,0
18989,-792,-8210,258,-50,9,24,13913,-7,-4,5,0,37335,102,24,144,0,0,0,0,0,0,0,0,-32296,0,0,0,4450,0,18787,0
18999,-790,-8218,260,-47,15,22,13915,0,1,4,0,37333,112,24,144,0,0,0,0,0,0,0,0,-32296,0,0,0,4451,0,18797,0
19009,-806,-8186,262,-50,14,13,13914,-5,0,4,0,37332,113,24,144,0,0,0,0,0,0,0,0,-32296,0,0,0,4451,0,18811,0
19019,-820,-8226,252,-49,14,15,13915,-1,0,5,0,37333,104,24,144,0,0,0,0,0,0,0,0,-32296,0,0,0,4452,0,18821,0
19029,-786,-8210,272,-47,11,7,13914,-5,3,3,0,37334,104,24,144,0,0,0,0,0,0,0,0,-32297,0,0,0,4452,0,18831,0
19039,-830,-8220,284,-44,14,10,13914,3,-3,4,0,37337,102,24,144,0,0,0,0,0,0,0,0,-32296,0,0,0,4452,0,18841,0
19049,-812,-8206,278,-45,14,2,13915,5,2,3,0,37336,106,24,144,0,0,0,0,0,0,0,0,-32296,0,0,0,4452,0,18854,0
19059,-742,-8220,280,-50,22,5,13915,9,-3,3,0,37342,107,24,144,0,0,0,0,0,0,0,0,-32296,0,0,0,4451,0,18864,0
19069,-726,-8226,270,-50,12,8,13915,-1,5,5,0,37339,107,24,144,0,0,0,0,0,0,0,0,-32296,0,0,0,4451,0,18874,0
19079,-736,-8220,258,-43,15,13,13914,0,-3,3,0,37336,116,24,144,0,0,0,0,0,0,0,0,-32296,0,0,0,4452,0,18884,0
19089,-778,-8210,286,-51,19,15,13914,-4,3,3,0,37332,112,24,144,0,0,0,0,0,0,0,0,-32295,0,0,0,4452,0,18897,0
19099,-772,-8210,256,-48,11,10,13916,4,6,4,0,37329,108,24,144,0,0,0,0,0,0,0,0,-32296,0,0,0,4452,0,18907,0
19109,-792,-8220,262,-49,18,12,13914,0,3,4,0,37330,111,24,144,0,0,0,0,0,0,0,0,-32296,0,0,0,4452,0,18917,0
19119,-770,-8194,254,-45,14,10,13914,-1,-1,5,0,37332,110,24,144,0,0,0,0,0,0,0,0,-32296,0,0,0,4451,0,18927,0
19129,-804,-8206,254,-48,11,17,13914,-4,0,4,0,37329,113,24,144,0,0,0,0,0,0,0,0,-32296,0,0,0,4452,0,18938,0
19139,-834,-8204,270,-49,13,10,13915,-2,1,4,0,37327,113,24,144,0,0,0,0,0,0,0,0,-32296,0,0,0,4452,0,18951,0
19149,-812,-8200,260,-52,18,5,13914,0,-1,4,0,37326,105,24,144,0,0,0,0,0,0,0,0,-32296,0,0,0,4452,0,18961,0
19159,-802,-8202,258,-44,18,5,13914,4,6,4,0,37327,101,24,144,0,0,0,0,0,0,0,0,-32295,0,0,0,4452,0,18972,0
19169,-764,-8194,278,-50,13,8,13914,-3,-2,4,0,37334,111,24,144,0,0,0,0,0,0,0,0,-32296,0,0,0,4452,0,18982,0
19179,-726,-8194,254,-50,16,9,13916,7,-2,3,0,37334,107,24,144,0,0,0,0,0,0,0,0,-32296,0,0,0,4452,0,18992,0
19189,-746,-8212,248,-51,13,12,13913,0,0,5,0,37333,109,24,144,0,0,0,0,0,0,0,0,-32296,0,0,0,4451,0,19006,0
19199,-768,-8226,280,-41,16,11,13915,5,-3,4,0,37325,98,24,144,0,0,0,0,0,0,0,0,-32296,0,0,0,4452,0,19016,0
19209,-794,-8204,286,-48,14,9,13914,0,1,4,0,37326,99,24,144,0,0,0,0,0,0,0,0,-32296,0,0,0,4452,0,19026,0
19219,-784,-8214,282,-48,18,19,13914,-3,2,4,0,37327,105,24,144,0,0,0,0,0,0,0,0,-32296,0,0,0,4452,0,19036,0
19229,-758,-8214,262,-53,13,17,13913,-2,0,5,0,37327,115,24,144,0,0,0,0,0,0,0,0,-32296,0,0,0,4452,0,19047,0
19239,-774,-8182,230,-53,13,14,13915,2,0,5,0,37324,113,24,144,0,0,0,0,0,0,0,0,-32295,0,0,0,4453,0,19061,0
19249,-806,-8200,246,-50,15,18,13915,3,-2,4,0,37328,108,24,144,0,0,0,0,0,0,0,0,-32296,0,0,0,4452,0,19071,0
19259,-810,-8194,270,-51,16,11,13914,-2,0,6,0,37329,106,24,144,0,0,0,0,0,0,0,0,-32296,0,0,0,4452,0,19081,0
19269,-796,-8222,280,-47,14,7,13914,-2,3,5,0,37332,107,24,144,0,0,0,0,0,0,0,0,-32296,0,0,0,4453,0,19091,0
19279,-808,-8196,260,-50,11,7,13916,2,1,4,0,37328,101,24,144,0,0,0,0,0,0,0,0,-32296,0,0,0,4452,0,19101,0
19289,-776,-8238,264,-53,13,4,13914,-3,-3,3,0,37325,105,24,144,0,0,0,0,0,0,0,0,-32296,0,0,0,4453,0,19111,0
19299,-772,-8222,238,-49,11,3,13915,-1,3,5,0,37324,105,24,144,0,0,0,0,0,0,0,0,-32296,0,0,0,4452,0,19125,0
19309,-788,-8214,260,-53,16,7,13914,0,2,5,0,37323,100,24,144,0,0,0,0,0,0,0,0,-32295,0,0,0,4453,0,19135,0
19319,-766,-8192,264,-51,18,3,13913,-5,0,5,0,37323,95,24,144,0,0,0,0,0,0,0,0,-32295,0,0,0,4452,0,19145,0
19329,-798,-8196,292,-52,11,-1,13914,-7,0,5,0,37322,98,24,144,0,0,0,0,0,0,0,0,-32296,0,0,0,4453,0,19155,0
19339,-812,-8238,284,-54,12,1,13915,2,1,4,0,37321,99,24,144,0,0,0,0,0,0,0,0,-32296,0,0,0,4452,0,19165,0
19349,-770,-8236,272,-56,10,5,13914,-6,4,4,0,37320,109,24,144,0,0,0,0,0,0,0,0,-32296,0,0,0,4453,0,19175,0
19359,-780,-8194,290,-50,14,2,13915,6,-1,4,0,37321,110,24,144,0,0,0,0,0,0,0,0,-32296,0,0,0,4452,0,19188,0
19369,-784,-8226,260,-59,15,-1,13915,7,5,4,0,37323,111,24,144,0,0,0,0,0,0,0,0,-32296,0,0,0,4452,0,19198,0
19379,-810,-8192,260,-55,11,-4,13915,3,1,3,0,37329,112,24,144,0,0,0,0,0,0,0,0,-32296,0,0,0,4452,0,19208,0
19389,-776,-8196,246,-55,15,-1,13914,0,2,4,0,37326,110,24,144,0,0,0,0,0,0,0,0,-32296,0,0,0,4453,0,19219,0
19399,-792,-8192,262,-50,11,0,13914,4,0,3,0,37326,103,24,144,0,0,0,0,0,0,0,0,-32295,0,0,0,4451,0,19232,0
19409,-770,-8204,272,-57,13,0,13914,1,5,5,0,37319,104,24,144,0,0,0,0,0,0,0,0,-32296,0,0,0,4452,0,19242,0
19419,-744,-8218,274,-49,21,3,13914,2,-1,7,0,37320,99,24,144,0,0,0,0,0,0,0,0,-32296,0,0,0,4452,0,19252,0
19429,-774,-8240,252,-57,14,6,13914,5,5,3,0,37318,95,24,144,0,0,0,0,0,0,0,0,-32296,0,0,0,4452,0,19263,0
19439,-764,-8206,250,-49,15,11,13914,-5,-2,5,0,37319,96,24,144,0,0,0,0,0,0,0,0,-32296,0,0,0,4452,0,19277,0
19449,-764,-8216,256,-49,16,13,13915,5,1,4,0,37322,97,24,144,0,0,0,0,0,0,0,0,-32296,0,0,0,4452,0,19287,0
19459,-784,-8206,268,-50,15,9,13914,0,-3,5,0,37325,94,24,144,0,0,0,0,0,0,0,0,-32296,0,0,0,4453,0,19297,0
19469,-786,-8222,250,-52,15,10,13914,3,2,4,0,37324,95,24,144,0,0,0,0,0,0,0,0,-32296,0,0,0,4453,0,19307,0
19479,-816,-8226,268,-52,15,8,13914,-1,-2,6,0,37327,112,24,144,0,0,0,0,0,0,0,0,-32295,0,0,0,4452,0,19317,0
19489,-776,-8206,276,-53,18,9,13914,1,1,5,0,37324,110,24,144,0,0,0,0,0,0,0,0,-32296,0,0,0,4452,0,19330,0
19499,-802,-8202,252,-60,13,8,13913,-6,6,6,0,37323,114,24,144,0,0,0,0,0,0,0,0,-32296,0,0,0,4452,0,19340,0
19509,-760,-8206,270,-55,12,7,13915,3,-1,4,0,37323,110,24,144,0,0,0,0,0,0,0,0,-32296,0,0,0,4452,0,19350,0
19519,-772,-8192,264,-51,12,2,13914,-4,-5,3,0,37319,116,24,144,0,0,0,0,0,0,0,0,-32296,0,0,0,4453,0,19360,0
19529,-782,-8222,256,-54,15,10,13914,3,-2,3,0,37321,121,24,144,0,0,0,0,0,0,0,0,-32296,0,0,0,4452,0,19370,0
19539,-772,-8244,258,-56,17,12,13914,0,-1,5,0,37321,114,24,144,0,0,0,0,0,0,0,0,-32295,0,0,0,4453,0,19382,0
19549,-772,-8212,236,-45,16,10,13914,1,-1,5,0,37320,104,24,144,0,0,0,0,0,0,0,0,-32296,0,0,0,4452,0,19393,0
19559,-786,-8220,262,-48,18,7,13914,2,1,2,0,37320,102,24,144,0,0,0,0,0,0,0,0,-32295,0,0,0,4453,0,19403,0
19569,-790,-8202,278,-48,15,11,13914,-3,-3,4,0,37320,103,24,144,0,0,0,0,0,0,0,0,-32295,0,0,0,4452,0,19413,0
19579,-780,-8200,276,-48,16,18,13915,0,-2,4,0,37321,103,24,144,0,0,0,0,0,0,0,0,-32295,0,0,0,4452,0,19426,0
19589,-790,-8224,262,-48,16,13,13915,6,2,3,0,37327,106,24,144,0,0,0,0,0,0,0,0,-32296,0,0,0,4451,0,19436,0
19599,-816,-8224,254,-53,12,15,13915,-3,1,4,0,37330,100,24,144,0,0,0,0,0,0,0,0,-32296,0,0,0,4453,0,19446,0
19609,-802,-8216,304,-49,11,7,13915,4,-1,5,0,37327,99,24,144,0,0,0,0,0,0,0,0,-32296,0,0,0,4452,0,19456,0
19619,-802,-8222,292,-50,12,9,13914,1,-4,5,0,37327,99,24,144,0,0,0,0,0,0,0,0,-32296,0,0,0,4452,0,19466,0
19629,-804,-8228,280,-49,11,5,13914,-5,0,5,0,37324,97,24,144,0,0,0,0,0,0,0,0,-32296,0,0,0,4453,0,19476,0
19639,-780,-8182,250,-52,13,4,13914,0,0,4,0,37324,97,24,144,0,0,0,0,0,0,0,0,-32296,0,0,0,4453,0,19489,0
19649,-800,-8218,256,-52,9,9,13914,-2,2,4,0,37323,101,24,144,0,0,0,0,0,0,0,0,-32296,0,0,0,4453,0,19499,0
19659,-764,-8186,222,-51,13,3,13914,4,-1,3,0,37324,102,24,144,0,0,0,0,0,0,0,0,-32296,0,0,0,4453,0,19509,0
19669,-770,-8200,250,-49,14,3,13915,3,0,6,0,37328,110,24,144,0,0,0,0,0,0,0,0,-32296,0,0,0,4453,0,19519,0
19679,-756,-8236,262,-46,15,4,13913,-5,4,4,0,37329,113,24,144,0,0,0,0,0,0,0,0,-32296,0,0,0,4453,0,19529,0
19689,-778,-8214,258,-52,14,4,13914,2,3,4,0,37326,112,24,144,0,0,0,0,0,0,0,0,-32296,0,0,0,4452,0,19539,0
19699,-786,-8208,254,-51,15,9,13914,-5,-1,4,0,37326,115,24,144,0,0,0,0,0,0,0,0,-32296,0,0,0,4453,0,19554,0
19709,-812,-8228,262,-49,14,12,13914,-1,1,3,0,37330,111,24,144,0,0,0,0,0,0,0,0,-32296,0,0,0,4453,0,19564,0
19719,-804,-8222,252,-46,13,6,13915,4,6,4,0,37342,110,24,144,0,0,0,0,0,0,0,0,-32296,0,0,0,4453,0,19574,0
19729,-800,-8214,270,-52,19,2,13914,3,-1,3,0,37336,103,24,144,0,0,0,0,0,0,0,0,-32296,0,0,0,4453,0,19584,0
19739,-764,-8222,278,-49,13,4,13915,0,8,5,0,37336,114,24,144,0,0,0,0,0,0,0,0,-32295,0,0,0,4453,0,19597,0
19749,-772,-8218,246,-48,16,3,13913,-1,-7,4,0,37326,109,24,144,0,0,0,0,0,0,0,0,-32296,0,0,0,4453,0,19607,0
19759,-764,-8206,264,-51,10,6,13915,2,1,3,0,37328,109,24,144,0,0,0,0,0,0,0,0,-32296,0,0,0,4453,0,19617,0
19769,-782,-8212,286,-52,13,7,13913,-5,0,5,0,37329,102,24,144,0,0,0,0,0,0,0,0,-32296,0,0,0,4453,0,19627,0
19779,-788,-8216,262,-50,20,10,13915,0,3,4,0,37328,114,24,144,0,0,0,0,0,0,0,0,-32296,0,0,0,4452,0,19640,0
19789,-810,-8192,252,-47,14,5,13915,3,0,5,0,37326,113,24,144,0,0,0,0,0,0,0,0,-32296,0,0,0,4453,0,19650,0
19799,-798,-8200,270,-45,13,10,13914,-3,0,4,0,37333,117,24,144,0,0,0,0,0,0,0,0,-32296,0,0,0,4453,0,19660,0
19809,-790,-8196,244,-45,13,6,13914,5,1,4,0,37335,111,24,144,0,0,0,0,0,0,0,0,-32296,0,0,0,4453,0,19670,0
19819,-800,-8226,294,-50,14,5,13915,8,1,4,0,37336,110,24,144,0,0,0,0,0,0,0,0,-32296,0,0,0,4452,0,19680,0
19829,-766,-8222,256,-49,16,10,13915,2,3,4,0,37329,106,24,144,0,0,0,0,0,0,0,0,-32295,0,0,0,4451,0,19693,0
19839,-780,-8216,274,-46,14,4,13914,-1,4,3,0,37329,111,24,144,0,0,0,0,0,0,0,0,-32295,0,0,0,4452,0,19703,0
19849,-802,-8234,272,-50,18,3,13913,-3,1,5,0,37332,103,24,144,0,0,0,0,0,0,0,0,-32296,0,0,0,4452,0,19713,0
19859,-826,-8218,252,-52,10,-2,13913,-9,-3,4,0,37333,105,24,144,0,0,0,0,0,0,0,0,-32296,0,0,0,4452,0,19723,0
19869,-766,-8238,246,-52,9,-6,13914,-1,-1,5,0,37334,113,24,144,0,0,0,0,0,0,0,0,-32296,0,0,0,4452,0,19733,0
19879,-780,-8216,264,-49,17,1,13914,-4,3,4,0,37333,113,24,144,0,0,0,0,0,0,0,0,-32295,0,0,0,4453,0,19746,0
19889,-770,-8224,274,-50,15,1,13914,-5,-4,5,0,37334,121,24,144,0,0,0,0,0,0,0,0,-32296,0,0,0,4451,0,19756,0
19899,-766,-8224,278,-44,14,5,13915,4,0,3,0,37333,112,24,144,0,0,0,0,0,0,0,0,-32296,0,0,0,4453,0,19767,0
19909,-774,-8194,268,-45,9,3,13915,0,1,3,0,37339,104,24,144,0,0,0,0,0,0,0,0,-32295,0,0,0,4453,0,19777,0
19919,-776,-8170,278,-50,19,7,13915,0,-3,4,0,37340,107,24,144,0,0,0,0,0,0,0,0,-32295,0,0,0,4453,0,19790,0
19929,-796,-8212,250,-49,15,11,13913,-3,0,3,0,37339,107,24,144,0,0,0,0,0,0,0,0,-32295,0,0,0,4453,0,19800,0
19939,-788,-8214,276,-52,14,2,13915,0,2,5,0,37332,108,24,144,0,0,0,0,0,0,0,0,-32296,0,0,0,4453,0,19810,0
19949,-814,-8206,288,-54,14,3,13914,-2,3,4,0,37332,97,24,144,0,0,0,0,0,0,0,0,-32296,0,0,0,4452,0,19823,0
19959,-782,-8200,274,-51,14,1,13914,0,-2,4,0,37333,100,24,144,0,0,0,0,0,0,0,0,-32295,0,0,0,4452,0,19833,0
19969,-806,-8242,264,-47,8,5,13916,9,3,5,0,37335,103,24,144,0,0,0,0,0,0,0,0,-32296,0,0,0,4452,0,19843,0
19979,-764,-8222,272,-52,12,5,13913,-4,4,4,0,37332,105,24,144,0,0,0,0,0,0,0,0,-32296,0,0,0,4451,0,19853,0
19989,-768,-8210,286,-51,11,10,13915,7,-1,3,0,37331,101,24,144,0,0,0,0,0,0,0,0,-32296,0,0,0,4452,0,19863,0
19999,-752,-8208,250,-50,17,4,13914,6,0,5,0,37330,110,24,144,0,0,0,0,0,0,0,0,-32296,0,0,0,4451,0,19873,0
20009,-762,-8208,254,-50,9,9,13914,7,-1,1,0,37334,109,24,144,0,0,0,0,0,0,0,0,-32296,0,0,0,4452,0,19886,0
20019,-768,-8218,278,-51,19,12,13914,1,-3,5,0,37335,105,24,144,0,0,0,0,0,0,0,0,-32296,0,0,0,4452,0,19896,0
20029,-764,-8228,256,-49,13,14,13914,0,-1,3,0,37335,106,24,144,0,0,0,0,0,0,0,0,-32297,0,0,0,4453,0,19906,0
20039,-790,-8208,280,-49,17,16,13914,-1,1,5,0,37332,108,24,144,0,0,0,0,0,0,0,0,-32296,0,0,0,4452,0,19916,0
20049,-788,-8230,246,-47,7,13,13915,0,0,4,0,37330,107,24,144,0,0,0,0,0,0,0,0,-32295,0,0,0,4452,0,19928,0
20059,-772,-8206,258,-53,17,12,13914,-5,-2,3,0,37330,102,24,144,0,0,0,0,0,0,0,0,-32295,0,0,0,4452,0,19938,0
20069,-798,-8210,278,-52,14,15,13914,-4,0,6,0,37331,101,24,144,0,0,0,0,0,0,0,0,-32295,0,0,0,4452,0,19948,0
20079,-794,-8224,242,-47,12,13,13915,1,-5,3,0,37332,108,24,144,0,0,0,0,0,0,0,0,-32295,0,0,0,4453,0,19958,0
20089,-798,-8224,284,-48,11,10,13916,3,-10,3,0,37330,107,24,144,0,0,0,0,0,0,0,0,-32295,0,0,0,4452,0,19970,0
20099,-812,-8222,292,-53,17,10,13915,1,-4,4,0,37326,106,24,144,0,0,0,0,0,0,0,0,-32295,0,0,0,4452,0,19981,0
20109,-820,-8210,270,-50,16,11,13915,1,-1,1,0,37326,100,24,144,0,0,0,0,0,0,0,0,-32295,0,0,0,4452,0,19991,0
20119,-806,-8206,272,-49,18,3,13916,1,-2,6,0,37334,106,24,144,0,0,0,0,0,0,0,0,-32295,0,0,0,4453,0,20001,0
20129,-784,-8220,278,-48,13,7,13914,0,1,3,0,37336,105,24,144,0,0,0,0,0,0,0,0,-32295,0,0,0,4453,0,20011,0
20139,-768,-8212,278,-51,17,12,13914,1,2,3,0,37336,107,24,144,0,0,0,0,0,0,0,0,-32296,0,0,0,4452,0,20023,0
20149,-796,-8210,274,-53,12,9,13916,1,-6,6,0,37326,109,24,144,0,0,0,0,0,0,0,0,-32296,0,0,0,4452,0,20033,0
20159,-772,-8208,262,-51,14,8,13913,-1,5,5,0,37327,112,24,144,0,0,0,0,0,0,0,0,-32295,0,0,0,4453,0,20044,0
20169,-776,-8226,266,-49,16,7,13913,-3,3,6,0,37327,116,24,144,0,0,0,0,0,0,0,0,-32296,0,0,0,4453,0,20054,0
20179,-772,-8206,274,-49,14,8,13914,0,-1,3,0,37326,120,24,144,0,0,0,0,0,0,0,0,-32295,0,0,0,4453,0,20064,0
20189,-802,-8210,268,-53,10,9,13913,-2,2,3,0,37324,114,24,144,0,0,0,0,0,0,0,0,-32295,0,0,0,4453,0,20077,0
20199,-812,-8216,274,-51,14,6,13915,5,4,5,0,37323,112,24,144,0,0,0,0,0,0,0,0,-32295,0,0,0,4452,0,20087,0
20209,-800,-8208,252,-52,13,7,13915,4,3,4,0,37324,102,24,144,0,0,0,0,0,0,0,0,-32295,0,0,0,4453,0,20097,0
20219,-792,-8218,262,-49,15,4,13914,2,1,7,0,37333,97,24,144,0,0,0,0,0,0,0,0,-32296,0,0,0,4452,0,20107,0
20229,-790,-8226,268,-52,17,4,13914,-5,1,4,0,37334,97,24,144,0,0,0,0,0,0,0,0,-32295,0,0,0,4452,0,20117,0
20239,-796,-8224,276,-46,9,-1,13915,1,-2,2,0,37332,95,24,144,0,0,0,0,0,0,0,0,-32296,0,0,0,4452,0,20127,0
20249,-768,-8240,262,-53,15,2,13915,0,-1,5,0,37326,94,24,144,0,0,0,0,0,0,0,0,-32296,0,0,0,4453,0,20137,0
20259,-776,-8190,272,-52,16,1,13915,4,4,3,0,37328,93,24,144,0,0,0,0,0,0,0,0,-32295,0,0,0,4452,0,20150,0
20269,-798,-8234,268,-48,18,4,13914,3,0,5,0,37331,98,24,144,0,0,0,0,0,0,0,0,-32296,0,0,0,4453,0,20160,0
20279,-780,-8224,278,-46,14,7,13914,2,-2,4,0,37328,104,24,144,0,0,0,0,0,0,0,0,-32296,0,0,0,4452,0,20170,0
20289,-782,-8218,264,-49,18,10,13913,-3,-1,2,0,37320,111,24,144,0,0,0,0,0,0,0,0,-32296,0,0,0,4452,0,20180,0
20299,-800,-8226,272,-53,11,8,13914,-3,2,6,0,37319,109,24,144,0,0,0,0,0,0,0,0,-32296,0,0,0,4453,0,20193,0
20309,-790,-8190,262,-51,9,4,13914,-4,1,5,0,37321,115,24,144,0,0,0,0,0,0,0,0,-32296,0,0,0,4453,0,20203,0
20319,-792,-8200,278,-48,14,3,13915,0,-3,5,0,37323,111,24,144,0,0,0,0,0,0,0,0,-32296,0,0,0,4452,0,20213,0
20329,-808,-8218,292,-49,12,4,13915,-1,0,3,0,37328,112,24,144,0,0,0,0,0,0,0,0,-32296,0,0,0,4452,0,20223,0
20339,-798,-8210,302,-48,9,6,13914,0,3,4,0,37327,112,24,144,0,0,0,0,0,0,0,0,-32296,0,0,0,4452,0,20235,0
20349,-798,-8198,260,-49,15,4,13915,3,0,3,0,37324,107,24,144,0,0,0,0,0,0,0,0,-32295,0,0,0,4452,0,20246,0
20359,-786,-8212,270,-53,13,5,13915,4,2,4,0,37323,102,24,144,0,0,0,0,0,0,0,0,-32296,0,0,0,4453,0,20255,0
20369,-824,-8226,262,-47,13,5,13915,10,4,5,0,37318,98,24,144,0,0,0,0,0,0,0,0,-32296,0,0,0,4453,0,20265,0
20379,-800,-8202,250,-42,13,4,13914,-9,0,3,0,37321,101,24,144,0,0,0,0,0,0,0,0,-32296,0,0,0,4453,0,20278,0
20389,-776,-8206,276,-44,14,5,13914,2,1,3,0,37320,98,24,144,0,0,0,0,0,0,0,0,-32295,0,0,0,4451,0,20288,0
20399,-740,-8204,276,-52,13,9,13913,-7,5,5,0,37318,95,24,144,0,0,0,0,0,0,0,0,-32296,0,0,0,4453,0,20298,0
20409,-772,-8194,290,-46,8,6,13914,-2,1,4,0,37321,101,24,144,0,0,0,0,0,0,0,0,-32296,0,0,0,4453,0,20310,0
20419,-794,-8246,274,-51,17,7,13914,-3,3,6,0,37320,101,24,144,0,0,0,0,0,0,0,0,-32296,0,0,0,4451,0,20321,0
20429,-778,-8180,296,-51,19,0,13914,7,3,2,0,37318,100,24,144,0,0,0,0,0,0,0,0,-32295,0,0,0,4453,0,20331,0
20439,-776,-8192,276,-51,11,3,13915,0,3,2,0,37319,106,24,144,0,0,0,0,0,0,0,0,-32296,0,0,0,4452,0,20341,0
20449,-776,-8218,272,-49,10,2,13914,1,0,5,0,37321,109,24,144,0,0,0,0,0,0,0,0,-32296,0,0,0,4453,0,20351,0
20459,-786,-8216,292,-51,15,5,13914,1,-2,5,0,37324,107,24,144,0,0,0,0,0,0,0,0,-32296,0,0,0,4452,0,20364,0
20469,-782,-8220,260,-53,15,3,13915,-3,3,5,0,37323,105,24,144,0,0,0,0,0,0,0,0,-32296,0,0,0,4452,0,20374,0
20479,-756,-8230,262,-51,17,3,13914,1,1,4,0,37321,112,24,144,0,0,0,0,0,0,0,0,-32296,0,0,0,4451,0,20384,0
20489,-770,-8220,264,-50,16,13,13915,-1,-1,5,0,37319,116,24,144,0,0,0,0,0,0,0,0,-32296,0,0,0,4451,0,20395,0
20499,-752,-8194,276,-50,13,7,13914,0,-1,4,0,37315,110,24,144,0,0,0,0,0,0,0,0,-32296,0,0,0,4452,0,20407,0
20509,-776,-8216,278,-49,14,8,13915,12,8,5,0,37318,110,24,144,0,0,0,0,0,0,0,0,-32296,0,0,0,4453,0,20417,0
20519,-782,-8202,268,-55,11,12,13914,0,2,4,0,37320,102,24,144,0,0,0,0,0,0,0,0,-32296,0,0,0,4452,0,20427,0
20529,-782,-8194,244,-50,17,10,13913,0,5,4,0,37321,113,24,144,0,0,0,0,0,0,0,0,-32296,0,0,0,4452,0,20438,0
20539,-816,-8218,274,-48,15,10,13914,-5,-2,5,0,37318,105,24,144,0,0,0,0,0,0,0,0,-32295,0,0,0,4452,0,20452,0
20549,-772,-8210,260,-51,17,12,13915,1,0,6,0,37324,103,24,144,0,0,0,0,0,0,0,0,-32295,0,0,0,4453,0,20462,0
20559,-774,-8216,256,-44,14,11,13914,0,-6,3,0,37327,102,24,144,0,0,0,0,0,0,0,0,-32296,0,0,0,4453,0,20473,0
20569,-806,-8230,258,-45,13,16,13914,0,2,4,0,37327,103,24,144,0,0,0,0,0,0,0,0,-32296,0,0,0,4453,0,20484,0
20579,-778,-8206,258,-49,11,9,13915,-1,-3,4,0,37320,110,24,144,0,0,0,0,0,0,0,0,-32296,0,0,0,4452,0,20494,0
20589,-802,-8214,248,-54,13,16,13914,1,-1,3,0,37321,119,24,144,0,0,0,0,0,0,0,0,-32296,0,0,0,4453,0,20504,0
20599,-788,-8204,270,-50,19,12,13915,0,-1,5,0,37321,115,24,144,0,0,0,0,0,0,0,0,-32295,0,0,0,4452,0,20514,0
20609,-782,-8210,268,-45,15,12,13915,3,1,4,0,37320,105,24,144,0,0,0,0,0,0,0,0,-32296,0,0,0,4453,0,20524,0
20619,-800,-8200,264,-46,15,7,13914,-4,-5,3,0,37319,105,24,144,0,0,0,0,0,0,0,0,-32295,0,0,0,4453,0,20534,0
20629,-798,-8206,286,-52,15,9,13913,0,-6,3,0,37320,102,24,144,0,0,0,0,0,0,0,0,-32296,0,0,0,4452,0,20544,0
20639,-768,-8212,260,-47,13,8,13917,11,0,4,0,37322,103,24,144,0,0,0,0,0,0,0,0,-32296,0,0,0,4453,0,20554,0
20649,-788,-8178,254,-47,13,6,13914,5,0,2,0,37321,91,24,144,0,0,0,0,0,0,0,0,-32296,0,0,0,4453,0,20564,0
20659,-796,-8202,274,-51,17,8,13914,-2,2,4,0,37325,91,24,144,0,0,0,0,0,0,0,0,-32296,0,0,0,4453,0,20574,0
20669,-798,-8222,276,-51,11,7,13914,0,0,5,0,37325,97,24,144,0,0,0,0,0,0,0,0,-32295,0,0,0,4452,0,20584,0
20679,-790,-8206,278,-54,9,8,13915,0,-6,4,0,37330,106,24,144,0,0,0,0,0,0,0,0,-32295,0,0,0,4453,0,20594,0
20689,-790,-8234,256,-49,19,5,13915,0,3,4,0,37323,96,24,144,0,0,0,0,0,0,0,0,-32296,0,0,0,4453,0,20604,0
20699,-790,-8212,282,-49,10,9,13913,-7,-4,4,0,37319,99,24,144,0,0,0,0,0,0,0,0,-32296,0,0,0,4453,0,20614,0
20709,-796,-8202,274,-51,11,6,13913,-2,-3,4,0,37319,101,24,144,0,0,0,0,0,0,0,0,-32296,0,0,0,4452,0,20624,0
20719,-804,-8200,278,-50,21,4,13915,7,1,3,0,37323,105,24,144,0,0,0,0,0,0,0,0,-32295,0,0,0,4453,0,20634,0
20729,-790,-8198,262,-51,17,8,13915,3,3,5,0,37324,102,24,144,0,0,0,0,0,0,0,0,-32296,0,0,0,4453,0,20644,0
20739,-764,-8220,268,-55,14,4,13914,-4,-4,4,0,37323,106,24,144,0,0,0,0,0,0,0,0,-32295,0,0,0,4453,0,20654,0
20749,-780,-8228,264,-51,17,3,13914,-3,-2,3,0,37322,118,24,144,0,0,0,0,0,0,0,0,-32295,0,0,0,4452,0,20664,0
20759,-796,-8222,274,-49,15,13,13914,-1,-1,4,0,37328,113,24,144,0,0,0,0,0,0,0,0,-32295,0,0,0,4451,0,20674,0
20769,-770,-8206,258,-53,19,11,13914,0,3,4,0,37331,110,24,144,0,0,0,0,0,0,0,0,-32296,0,0,0,4452,0,20684,0
20779,-774,-8176,286,-50,12,7,13913,-12,-3,4,0,37332,105,24,144,0,0,0,0,0,0,0,0,-32296,0,0,0,4451,0,20694,0
20789,-758,-8210,290,-46,19,9,13914,-1,3,3,0,37325,106,24,144,0,0,0,0,0,0,0,0,-32296,0,0,0,4452,0,20704,0
20799,-776,-8210,270,-51,12,12,13914,-1,-2,4,0,37322,109,24,144,0,0,0,0,0,0,0,0,-32296,0,0,0,4453,0,20714,0
20809,-764,-8188,280,-51,14,10,13914,1,3,5,0,37324,110,24,144,0,0,0,0,0,0,0,0,-32296,0,0,0,4451,0,20724,0
20819,-778,-8254,278,-49,16,19,13914,-3,1,4,0,37326,110,24,144,0,0,0,0,0,0,0,0,-32296,0,0,0,4452,0,20734,0
20829,-804,-8212,274,-52,12,15,13914,-5,1,4,0,37326,112,24,144,0,0,0,0,0,0,0,0,-32296,0,0,0,4453,0,20744,0
20839,-812,-8202,264,-49,12,14,13915,0,-3,5,0,37325,107,24,144,0,0,0,0,0,0,0,0,-32296,0,0,0,4452,0,20754,0
20849,-804,-8220,254,-52,17,9,13914,0,-4,5,0,37326,103,24,144,0,0,0,0,0,0,0,0,-32296,0,0,0,4453,0,20764,0
20859,-794,-8190,250,-54,14,13,13915,2,-2,5,0,37335,101,24,144,0,0,0,0,0,0,0,0,-32296,0,0,0,4452,0,20774,0
20869,-790,-8192,262,-44,8,8,13913,-11,-2,5,0,37337,104,24,144,0,0,0,0,0,0,0,0,-32296,0,0,0,4453,0,20784,0
20879,-792,-8208,258,-43,16,12,13913,-7,1,4,0,37335,107,24,144,0,0,0,0,0,0,0,0,-32296,0,0,0,4453,0,20794,0
20889,-816,-8190,270,-44,15,2,13914,-6,-10,4,0,37328,111,24,144,0,0,0,0,0,0,0,0,-32296,0,0,0,4453,0,20804,0
20899,-792,-8204,280,-45,16,6,13915,-6,3,4,0,37330,103,24,144,0,0,0,0,0,0,0,0,-32296,0,0,0,4452,0,20814,0
20909,-794,-8212,264,-49,16,2,13913,0,6,4,0,37330,96,24,144,0,0,0,0,0,0,0,0,-32296,0,0,0,4453,0,20824,0
20919,-800,-8200,284,-50,12,7,13916,5,-2,3,0,37328,98,24,144,0,0,0,0,0,0,0,0,-32296,0,0,0,4453,0,20834,0
20929,-810,-8196,250,-49,9,0,13914,5,1,5,0,37329,104,24,144,0,0,0,0,0,0,0,0,-32295,0,0,0,4453,0,20844,0
20939,-808,-8212,246,-53,13,-1,13914,-1,-3,6,0,37330,104,24,144,0,0,0,0,0,0,0,0,-32296,0,0,0,4451,0,20854,0
20949,-786,-8190,282,-54,13,1,13913,-2,-7,5,0,37331,105,24,144,0,0,0,0,0,0,0,0,-32296,0,0,0,4453,0,20864,0
20959,-780,-8192,266,-49,13,2,13914,0,3,5,0,37330,112,24,144,0,0,0,0,0,0,0,0,-32296,0,0,0,4452,0,20874,0
20969,-780,-8220,260,-53,15,3,13914,-7,-3,5,0,37334,117,24,144,0,0,0,0,0,0,0,0,-32296,0,0,0,4453,0,20884,0
20979,-790,-8200,266,-50,18,7,13914,-1,-3,3,0,37335,117,24,144,0,0,0,0,0,0,0,0,-32296,0,0,0,4453,0,20894,0
20989,-808,-8190,240,-48,14,4,13914,-5,-2,5,0,37336,108,24,144,0,0,0,0,0,0,0,0,-32295,0,0,0,4453,0,20904,0
20999,-796,-8228,232,-49,12,7,13914,-5,-4,4,0,37343,105,24,144,0,0,0,0,0,0,0,0,-32296,0,0,0,4453,0,20914,0
21009,-750,-8210,248,-47,12,8,13914,-2,2,4,0,37354,110,24,144,0,0,0,0,0,0,0,0,-32296,0,0,0,4451,0,20924,0
21019,-760,-8188,236,-45,15,5,13914,-3,-3,5,0,37353,110,24,144,0,0,0,0,0,0,0,0,-32295,0,0,0,4453,0,20934,0
21029,-754,-8234,264,-47,16,12,13914,0,5,4,0,37343,102,24,144,0,0,0,0,0,0,0,0,-32296,0,0,0,4453,0,20944,0
21039,-800,-8206,292,-48,19,12,13915,-3,-7,4,0,37334,100,24,144,0,0,0,0,0,0,0,0,-32296,0,0,0,4452,0,20954,0
21049,-794,-8198,292,-51,18,10,13914,-3,5,3,0,37332,90,24,144,0,0,0,0,0,0,0,0,-32296,0,0,0,4452,0,20964,0
21059,-772,-8212,276,-43,12,9,13914,7,4,3,0,37330,90,24,144,0,0,0,0,0,0,0,0,-32296,0,0,0,4453,0,20974,0
21069,-800,-8206,270,-49,12,13,13915,5,-1,1,0,37329,94,24,144,0,0,0,0,0,0,0,0,-32295,0,0,0,4452,0,20984,0
21079,-776,-8216,282,-48,10,20,13915,-1,0,4,0,37335,107,24,144,0,0,0,0,0,0,0,0,-32296,0,0,0,4453,0,20994,0
21089,-792,-8224,256,-48,13,12,13915,8,-4,4,0,37333,116,24,144,0,0,0,0,0,0,0,0,-32296,0,0,0,4452,0,21004,0
21099,-812,-8210,258,-46,17,14,13915,4,0,3,0,37331,124,24,144,0,0,0,0,0,0,0,0,-32296,0,0,0,4452,0,21014,0
21109,-800,-8170,278,-52,13,14,13914,-6,0,5,0,37325,113,24,144,0,0,0,0,0,0,0,0,-32296,0,0,0,4453,0,21024,0
21119,-816,-8182,268,-46,16,11,13915,-1,-1,5,0,37327,123,24,144,0,0,0,0,0,0,0,0,-32296,0,0,0,4452,0,21034,0
21129,-804,-8220,264,-50,12,9,13914,0,-4,5,0,37326,121,24,144,0,0,0,0,0,0,0,0,-32295,0,0,0,4453,0,21044,0
21139,-822,-8242,282,-49,14,6,13914,0,1,3,0,37325,117,24,144,0,0,0,0,0,0,0,0,-32296,0,0,0,4453,0,21054,0
21149,-792,-8230,254,-48,16,8,13914,-1,-1,4,0,37324,109,24,144,0,0,0,0,0,0,0,0,-32296,0,0,0,4453,0,21065,0
21159,-740,-8212,270,-47,13,7,13913,0,-3,3,0,37323,99,24,144,0,0,0,0,0,0,0,0,-32295,0,0,0,4453,0,21075,0
21169,-792,-8204,264,-50,15,13,13916,-3,2,4,0,37326,97,24,144,0,0,0,0,0,0,0,0,-32295,0,0,0,4453,0,21085,0
21179,-778,-8224,248,-48,16,12,13915,6,-5,5,0,37331,94,24,144,0,0,0,0,0,0,0,0,-32296,0,0,0,4453,0,21095,0
21189,-764,-8210,288,-44,13,11,13914,-4,-3,4,0,37331,106,24,144,0,0,0,0,0,0,0,0,-32296,0,0,0,4453,0,21105,0
21199,-802,-8204,264,-50,15,13,13914,-4,6,4,0,37329,105,24,144,0,0,0,0,0,0,0,0,-32296,0,0,0,4453,0,21115,0
21209,-754,-8206,276,-51,17,17,13914,1,5,4,0,37322,101,24,144,0,0,0,0,0,0,0,0,-32296,0,0,0,4453,0,21125,0
21219,-768,-8206,274,-57,13,11,13914,0,0,4,0,37325,99,24,144,0,0,0,0,0,0,0,0,-32296,0,0,0,4453,0,21135,0
21229,-792,-8240,254,-50,13,7,13914,9,0,4,0,37328,106,24,144,0,0,0,0,0,0,0,0,-32295,0,0,0,4454,0,21145,0
21239,-836,-8218,266,-46,8,6,13915,5,2,4,0,37325,107,24,144,0,0,0,0,0,0,0,0,-32296,0,0,0,4453,0,21158,0
21249,-832,-8250,262,-51,17,5,13914,-1,-2,4,0,37321,101,24,144,0,0,0,0,0,0,0,0,-32295,0,0,0,4454,0,21168,0
21259,-808,-8210,248,-49,15,3,13914,-1,-1,5,0,37323,98,24,144,0,0,0,0,0,0,0,0,-32295,0,0,0,4454,0,21178,0
21269,-770,-8210,274,-49,16,4,13915,0,-2,6,0,37326,104,24,144,0,0,0,0,0,0,0,0,-32295,0,0,0,4454,0,21188,0
21279,-766,-8238,280,-47,17,10,13914,-1,-4,3,0,37327,114,24,144,0,0,0,0,0,0,0,0,-32296,0,0,0,4453,0,21198,0
21289,-794,-8196,270,-45,14,9,13914,0,-3,5,0,37327,114,24,144,0,0,0,0,0,0,0,0,-32296,0,0,0,4453,0,21208,0
21299,-778,-8196,270,-53,14,11,13915,3,3,3,0,37323,109,24,144,0,0,0,0,0,0,0,0,-32296,0,0,0,4454,0,21218,0
21309,-788,-8222,270,-50,14,5,13914,6,-2,4,0,37323,103,24,144,0,0,0,0,0,0,0,0,-32295,0,0,0,4453,0,21228,0
21319,-798,-8204,296,-52,18,4,13915,-3,-1,4,0,37322,110,24,144,0,0,0,0,0,0,0,0,-32295,0,0,0,4453,0,21238,0
21329,-792,-8206,266,-57,17,14,13914,-1,-3,3,0,37321,113,24,144,0,0,0,0,0,0,0,0,-32296,0,0,0,4454,0,21248,0
21339,-790,-8214,264,-58,15,6,13913,-3,2,5,0,37319,118,24,144,0,0,0,0,0,0,0,0,-32296,0,0,0,4453,0,21258,0
21349,-774,-8206,298,-58,13,6,13915,4,0,4,0,37318,114,24,144,0,0,0,0,0,0,0,0,-32295,0,0,0,4453,0,21268,0
21359,-798,-8202,278,-53,14,11,13914,0,1,3,0,37317,104,24,144,0,0,0,0,0,0,0,0,-32295,0,0,0,4454,0,21278,0
21369,-798,-8190,280,-51,12,4,13915,3,0,3,0,37320,105,24,144,0,0,0,0,0,0,0,0,-32296,0,0,0,4453,0,21288,0
21379,-814,-8190,230,-53,13,6,13915,7,-1,4,0,37320,104,24,144,0,0,0,0,0,0,0,0,-32295,0,0,0,4453,0,21298,0
21389,-784,-8196,254,-50,16,9,13913,-6,-2,4,0,37318,114,24,144,0,0,0,0,0,0,0,0,-32296,0,0,0,4454,0,21308,0
21399,-790,-8246,262,-43,8,6,13915,2,-4,3,0,37323,105,24,144,0,0,0,0,0,0,0,0,-32295,0,0,0,4454,0,21318,0
21409,-790,-8200,284,-55,10,8,13912,-8,-3,4,0,37325,107,24,144,0,0,0,0,0,0,0,0,-32296,0,0,0,4453,0,21328,0
21419,-770,-8218,262,-52,11,9,13913,4,-1,6,0,37327,107,24,144,0,0,0,0,0,0,0,0,-32296,0,0,0,4454,0,21338,0
21429,-770,-8242,282,-55,16,10,13916,0,1,3,0,37318,110,24,144,0,0,0,0,0,0,0,0,-32296,0,0,0,4453,0,21348,0
21439,-808,-8194,260,-50,16,11,13915,0,-1,5,0,37316,102,24,144,0,0,0,0,0,0,0,0,-32296,0,0,0,4454,0,21358,0
21449,-838,-8178,262,-58,9,15,13914,-2,-1,4,0,37315,110,24,144,0,0,0,0,0,0,0,0,-32295,0,0,0,4453,0,21368,0
21459,-790,-8176,258,-49,15,9,13916,6,1,5,0,37317,115,24,144,0,0,0,0,0,0,0,0,-32296,0,0,0,4454,0,21378,0
21469,-804,-8194,272,-50,17,16,13913,-1,6,6,0,37318,108,24,144,0,0,0,0,0,0,0,0,-32296,0,0,0,4453,0,21388,0
21479,-800,-8226,272,-47,14,8,13914,0,1,2,0,37319,111,24,144,0,0,0,0,0,0,0,0,-32296,0,0,0,4454,0,21398,0
21489,-796,-8236,288,-50,16,13,13915,1,0,4,0,37319,115,24,144,0,0,0,0,0,0,0,0,-32296,0,0,0,4454,0,21408,0
21499,-804,-8204,284,-48,16,12,13913,-7,2,7,0,37324,119,24,144,0,0,0,0,0,0,0,0,-32296,0,0,0,4455,0,21418,0
21509,-806,-8212,274,-53,13,9,13914,0,-3,4,0,37324,111,24,144,0,0,0,0,0,0,0,0,-32296,0,0,0,4455,0,21428,0
21519,-796,-8216,280,-53,14,10,13916,3,-1,4,0,37324,105,24,144,0,0,0,0,0,0,0,0,-32296,0,0,0,4455,0,21438,0
21529,-802,-8194,256,-57,12,7,13915,0,1,4,0,37325,107,24,144,0,0,0,0,0,0,0,0,-32296,0,0,0,4454,0,21448,0
21539,-798,-8226,250,-53,12,7,13916,3,-3,6,0,37318,110,24,144,0,0,0,0,0,0,0,0,-32296,0,0,0,4454,0,21458,0
21549,-784,-8220,264,-52,15,5,13915,4,-3,4,0,37318,107,24,144,0,0,0,0,0,0,0,0,-32296,0,0,0,4453,0,21468,0
21559,-806,-8230,266,-53,11,8,13914,4,-3,4,0,37318,104,24,144,0,0,0,0,0,0,0,0,-32295,0,0,0,4453,0,21478,0
21569,-792,-8188,246,-49,17,11,13915,3,3,6,0,37320,102,24,144,0,0,0,0,0,0,0,0,-32295,0,0,0,4453,0,21488,0
21579,-776,-8190,246,-46,12,10,13914,-6,1,1,0,37319,107,24,144,0,0,0,0,0,0,0,0,-32295,0,0,0,4455,0,21498,0
21589,-804,-8202,262,-46,18,9,13914,0,0,5,0,37320,108,24,144,0,0,0,0,0,0,0,0,-32296,0,0,0,4455,0,21508,0
21599,-808,-8216,274,-50,12,7,13914,-2,-4,3,0,37322,110,24,144,0,0,0,0,0,0,0,0,-32296,0,0,0,4454,0,21518,0
21609,-780,-8222,282,-49,14,7,13914,-4,-3,4,0,37328,115,24,144,0,0,0,0,0,0,0,0,-32296,0,0,0,4454,0,21528,0
21619,-772,-8196,262,-54,12,9,13914,-2,3,6,0,37328,121,24,144,0,0,0,0,0,0,0,0,-32296,0,0,0,4454,0,21538,0
21629,-790,-8236,290,-52,11,12,13914,2,1,4,0,37327,118,24,144,0,0,0,0,0,0,0,0,-32296,0,0,0,4455,0,21548,0
21639,-794,-8208,278,-51,14,17,13913,2,4,5,0,37326,112,24,144,0,0,0,0,0,0,0,0,-32296,0,0,0,4455,0,21558,0
21649,-786,-8214,266,-53,14,17,13914,-7,-1,6,0,37321,105,24,144,0,0,0,0,0,0,0,0,-32296,0,0,0,4455,0,21568,0
21659,-804,-8224,274,-50,12,14,13914,1,6,5,0,37322,96,24,144,0,0,0,0,0,0,0,0,-32295,0,0,0,4455,0,21578,0
21669,-782,-8208,258,-45,18,17,13914,-1,4,6,0,37325,96,24,144,0,0,0,0,0,0,0,0,-32296,0,0,0,4454,0,21588,0
21679,-820,-8218,266,-49,12,13,13914,-4,2,3,0,37327,108,24,144,0,0,0,0,0,0,0,0,-32295,0,0,0,4455,0,21598,0
21689,-794,-8220,278,-46,15,19,13915,5,0,4,0,37327,113,24,144,0,0,0,0,0,0,0,0,-32295,0,0,0,4455,0,21608,0
21699,-812,-8188,250,-46,14,13,13915,11,-2,3,0,37321,113,24,144,0,0,0,0,0,0,0,0,-32295,0,0,0,4455,0,21618,0
21709,-818,-8206,270,-51,13,7,13914,-2,4,3,0,37323,111,24,144,0,0,0,0,0,0,0,0,-32296,0,0,0,4456,0,21628,0
21719,-814,-8200,282,-45,12,6,13915,4,1,5,0,37332,104,24,144,0,0,0,0,0,0,0,0,-32296,0,0,0,4455,0,21638,0
21729,-798,-8196,284,-52,17,8,13915,0,5,3,0,37332,104,24,144,0,0,0,0,0,0,0,0,-32296,0,0,0,4455,0,21648,0
21739,-826,-8220,280,-51,17,-1,13914,-8,2,6,0,37330,104,24,144,0,0,0,0,0,0,0,0,-32296,0,0,0,4455,0,21658,0
21749,-776,-8208,292,-46,15,7,13915,-2,5,5,0,37324,110,24,144,0,0,0,0,0,0,0,0,-32295,0,0,0,4455,0,21668,0
21759,-784,-8232,264,-52,18,6,13913,-3,-4,4,0,37324,117,24,144,0,0,0,0,0,0,0,0,-32296,0,0,0,4456,0,21678,0
21769,-778,-8226,270,-50,17,5,13914,2,1,5,0,37326,115,24,144,0,0,0,0,0,0,0,0,-32295,0,0,0,4455,0,21688,0
21779,-762,-8174,294,-52,13,9,13914,-2,1,3,0,37327,119,24,144,0,0,0,0,0,0,0,0,-32296,0,0,0,4456,0,21698,0
21789,-784,-8208,260,-47,14,7,13914,-1,2,4,0,37326,118,24,144,0,0,0,0,0,0,0,0,-32296,0,0,0,4455,0,21708,0
21799,-794,-8204,242,-44,18,9,13913,-7,7,6,0,37323,114,24,144,0,0,0,0,0,0,0,0,-32295,0,0,0,4455,0,21718,0
21809,-798,-8198,282,-46,13,12,13914,-7,-5,5,0,37326,105,24,144,0,0,0,0,0,0,0,0,-32296,0,0,0,4456,0,21728,0
21819,-812,-8216,270,-46,16,9,13914,-1,2,7,0,37329,101,24,144,0,0,0,0,0,0,0,0,-32295,0,0,0,4455,0,21738,0
21829,-798,-8214,270,-48,17,11,13915,9,1,5,0,37330,105,24,144,0,0,0,0,0,0,0,0,-32295,0,0,0,4455,0,21748,0
21839,-790,-8190,276,-45,16,7,13914,0,2,5,0,37327,102,24,144,0,0,0,0,0,0,0,0,-32295,0,0,0,4455,0,21758,0
21849,-792,-8246,278,-43,14,9,13914,0,1,5,0,37327,100,24,144,0,0,0,0,0,0,0,0,-32295,0,0,0,4455,0,21768,0
21859,-752,-8226,270,-45,15,8,13914,3,2,2,0,37330,94,24,144,0,0,0,0,0,0,0,0,-32296,0,0,0,4455,0,21778,0
21869,-772,-8212,276,-53,15,17,13914,-1,0,2,0,37333,95,24,144,0,0,0,0,0,0,0,0,-32295,0,0,0,4455,0,21788,0
21879,-770,-8194,282,-42,16,19,13914,-3,-1,3,0,37332,96,24,144,0,0,0,0,0,0,0,0,-32295,0,0,0,4455,0,21798,0
21889,-798,-8194,288,-45,14,17,13914,6,8,3,0,37331,98,24,144,0,0,0,0,0,0,0,0,-32295,0,0,0,4455,0,21808,0
21899,-820,-8210,284,-47,9,20,13915,1,-1,4,0,37331,110,24,144,0,0,0,0,0,0,0,0,-32296,0,0,0,4455,0,21818,0
21909,-832,-8204,272,-47,10,17,13914,-1,3,3,0,37330,111,24,144,0,0,0,0,0,0,0,0,-32295,0,0,0,4455,0,21828,0
21919,-828,-8216,284,-43,15,11,13913,-7,0,7,0,37337,114,24,144,0,0,0,0,0,0,0,0,-32295,0,0,0,4455,0,21838,0
21929,-812,-8214,284,-47,10,5,13914,6,-2,6,0,37335,118,24,144,0,0,0,0,0,0,0,0,-32296,0,0,0,4456,0,21848,0
21939,-806,-8204,272,-48,14,7,13915,0,4,5,0,37334,114,24,144,0,0,0,0,0,0,0,0,-32295,0,0,0,4455,0,21858,0
21949,-814,-8216,274,-48,10,4,13914,0,5,3,0,37327,109,24,144,0,0,0,0,0,0,0,0,-32295,0,0,0,4457,0,21868,0
21959,-840,-8232,286,-50,19,5,13914,-2,-2,4,0,37328,111,24,144,0,0,0,0,0,0,0,0,-32295,0,0,0,4456,0,21878,0
21969,-822,-8196,286,-52,18,-3,13913,-4,0,4,0,37330,104,24,144,0,0,0,0,0,0,0,0,-32296,0,0,0,4455,0,21888,0
21979,-792,-8180,266,-45,16,-1,13914,-9,2,3,0,37330,115,24,144,0,0,0,0,0,0,0,0,-32296,0,0,0,4456,0,21898,0
21989,-790,-8202,278,-47,13,-2,13915,0,4,4,0,37329,108,24,144,0,0,0,0,0,0,0,0,-32296,0,0,0,4455,0,21908,0
21999,-782,-8194,274,-44,14,3,13914,0,6,3,0,37330,109,24,144,0,0,0,0,0,0,0,0,-32296,0,0,0,4456,0,21918,0
22009,-754,-8206,294,-46,12,4,13915,1,-2,4,0,37331,98,24,144,0,0,0,0,0,0,0,0,-32296,0,0,0,4455,0,21928,0
22019,-768,-8194,286,-53,14,7,13915,7,2,4,0,37340,102,24,144,0,0,0,0,0,0,0,0,-32295,0,0,0,4456,0,21938,0
22029,-774,-8220,286,-54,21,5,13914,0,-1,2,0,37336,108,24,144,0,0,0,0,0,0,0,0,-32295,0,0,0,4457,0,21948,0
22039,-782,-8208,280,-56,15,13,13914,-7,-5,6,0,37336,116,24,144,0,0,0,0,0,0,0,0,-32295,0,0,0,4457,0,21958,0
22049,-786,-8216,282,-50,10,10,13915,10,1,3,0,37333,105,24,144,0,0,0,0,0,0,0,0,-32295,0,0,0,4457,0,21968,0
22059,-790,-8178,246,-51,14,12,13914,-5,1,4,0,37328,97,24,144,0,0,0,0,0,0,0,0,-32295,0,0,0,4456,0,21978,0
22069,-782,-8220,256,-54,15,8,13915,4,1,6,0,37330,98,24,144,0,0,0,0,0,0,0,0,-32295,0,0,0,4456,0,21988,0
22079,-832,-8210,280,-55,15,5,13915,7,-1,4,0,37332,106,24,144,0,0,0,0,0,0,0,0,-32295,0,0,0,4456,0,21998,0
22089,-794,-8196,308,-48,19,8,13915,6,-6,3,0,37333,110,24,144,0,0,0,0,0,0,0,0,-32296,0,0,0,4456,0,22008,0
22099,-798,-8222,288,-48,14,5,13914,-5,1,4,0,37331,102,24,144,0,0,0,0,0,0,0,0,-32295,0,0,0,4456,0,22018,0
22109,-796,-8220,290,-52,16,17,13913,-7,7,4,0,37325,94,24,144,0,0,0,0,0,0,0,0,-32295,0,0,0,4455,0,22028,0
22119,-776,-8222,282,-54,12,11,13914,-2,-2,5,0,37325,100,24,144,0,0,0,0,0,0,0,0,-32296,0,0,0,4456,0,22038,0
22129,-822,-8180,280,-53,14,17,13915,8,-3,2,0,37330,109,24,144,0,0,0,0,0,0,0,0,-32295,0,0,0,4457,0,22048,0
22139,-820,-8218,252,-54,16,21,13915,3,2,3,0,37330,110,24,144,0,0,0,0,0,0,0,0,-32295,0,0,0,4457,0,22058,0
22149,-776,-8196,266,-55,15,18,13914,1,-2,3,0,37328,108,24,144,0,0,0,0,0,0,0,0,-32295,0,0,0,4457,0,22068,0
22159,-820,-8196,266,-51,19,20,13913,-6,-1,4,0,37324,111,24,144,0,0,0,0,0,0,0,0,-32295,0,0,0,4456,0,22078,0
22169,-828,-8226,266,-53,12,21,13914,-8,-6,6,0,37325,107,24,144,0,0,0,0,0,0,0,0,-32295,0,0,0,4456,0,22088,0
22179,-806,-8212,288,-52,16,11,13914,0,2,5,0,37329,105,24,144,0,0,0,0,0,0,0,0,-32296,0,0,0,4456,0,22098,0
22189,-812,-8202,290,-51,12,9,13914,-3,0,4,0,37329,103,24,144,0,0,0,0,0,0,0,0,-32296,0,0,0,4457,0,22108,0
22199,-814,-8214,276,-52,15,3,13913,-4,2,2,0,37327,106,24,144,0,0,0,0,0,0,0,0,-32296,0,0,0,4457,0,22118,0
22209,-812,-8184,286,-58,13,3,13914,-5,1,3,0,37323,105,24,144,0,0,0,0,0,0,0,0,-32295,0,0,0,4457,0,22128,0
22219,-800,-8206,258,-50,15,6,13914,-1,-1,5,0,37323,96,24,144,0,0,0,0,0,0,0,0,-32295,0,0,0,4457,0,22138,0
22229,-820,-8222,280,-49,16,4,13914,-1,-1,7,0,37325,98,24,144,0,0,0,0,0,0,0,0,-32295,0,0,0,4457,0,22148,0
22239,-818,-8222,256,-50,13,6,13914,0,-4,5,0,37328,105,24,144,0,0,0,0,0,0,0,0,-32295,0,0,0,4457,0,22159,0
22249,-794,-8186,256,-53,13,8,13914,0,2,4,0,37325,110,24,144,0,0,0,0,0,0,0,0,-32295,0,0,0,4457,0,22169,0
22259,-764,-8204,268,-51,12,9,13913,0,1,3,0,37325,107,24,144,0,0,0,0,0,0,0,0,-32295,0,0,0,4457,0,22179,0
22269,-806,-8228,296,-53,14,7,13914,5,0,4,0,37328,99,24,144,0,0,0,0,0,0,0,0,-32296,0,0,0,4457,0,22189,0
22279,-778,-8196,266,-47,14,14,13915,0,2,4,0,37341,110,25,144,0,0,0,0,0,0,0,0,-32296,0,0,0,4457,0,22199,0
22289,-816,-8220,272,-52,20,11,13913,-5,3,3,0,37338,114,24,144,0,0,0,0,0,0,0,0,-32295,0,0,0,4457,0,22209,0
22299,-800,-8212,258,-51,15,11,13913,-6,2,5,0,37333,110,24,144,0,0,0,0,0,0,0,0,-32296,0,0,0,4457,0,22219,0
22309,-812,-8174,270,-53,6,8,13915,0,2,4,0,37320,96,24,144,0,0,0,0,0,0,0,0,-32295,0,0,0,4457,0,22229,0
22319,-792,-8200,274,-46,10,11,13913,-13,-1,6,0,37321,95,24,144,0,0,0,0,0,0,0,0,-32295,0,0,0,4457,0,22239,0
22329,-810,-8192,286,-45,14,7,13913,-4,1,3,0,37323,96,24,144,0,0,0,0,0,0,0,0,-32295,0,0,0,4457,0,22249,0
22339,-804,-8194,294,-48,8,6,13913,-5,-3,7,0,37326,112,24,144,0,0,0,0,0,0,0,0,-32295,0,0,0,4457,0,22259,0
22349,-800,-8230,286,-52,16,8,13913,-5,3,4,0,37323,112,24,144,0,0,0,0,0,0,0,0,-32296,0,0,0,4457,0,22269,0
22359,-792,-8210,270,-54,11,10,13914,4,-2,3,0,37323,105,24,144,0,0,0,0,0,0,0,0,-32295,0,0,0,4457,0,22279,0
22369,-772,-8220,276,-55,12,5,13914,0,2,5,0,37323,102,24,144,0,0,0,0,0,0,0,0,-32295,0,0,0,4457,0,22289,0
22379,-790,-8238,262,-53,15,4,13914,1,-4,3,0,37322,94,24,144,0,0,0,0,0,0,0,0,-32296,0,0,0,4457,0,22309,0
22389,-798,-8192,258,-50,14,6,13915,0,2,4,0,37321,94,24,144,0,0,0,0,0,0,0,0,-32295,0,0,0,4457,0,22329,0
22399,-810,-8196,220,-51,12,6,13915,6,-1,3,0,37318,96,24,144,0,0,0,0,0,0,0,0,-32296,0,0,0,4457,0,22350,0
22409,-814,-8202,226,-47,14,13,13914,1,-1,4,0,37318,100,24,144,0,0,0,0,0,0,0,0,-32295,0,0,0,4457,0,22370,0
22419,-798,-8194,268,-51,11,8,13914,3,-2,5,0,37318,112,24,144,0,0,0,0,0,0,0,0,-32295,0,0,0,4458,0,22390,0
22429,-822,-8226,276,-51,17,6,13915,-2,-5,4,0,37320,120,24,144,0,0,0,0,0,0,0,0,-32296,0,0,0,4458,0,22410,0
22439,-810,-8186,290,-46,19,11,13915,1,-6,5,0,37318,121,24,144,0,0,0,0,0,0,0,0,-32295,0,0,0,4457,0,22430,0
22449,-788,-8218,290,-51,11,4,13914,-1,-1,4,0,37321,112,24,144,0,0,0,0,0,0,0,0,-32296,0,0,0,4457,0,22453,0
22459,-822,-8220,288,-48,13,7,13914,1,2,2,0,37321,112,24,144,0,0,0,0,0,0,0,0,-32296,0,0,0,4457,0,22473,0
22469,-790,-8200,268,-49,12,5,13913,-6,0,5,0,37321,103,25,144,0,0,0,0,0,0,0,0,-32295,0,0,0,4457,0,22493,0
22479,-800,-8218,264,-53,10,7,13915,5,-4,4,0,37319,96,24,144,0,0,0,0,0,0,0,0,-32295,0,0,0,4457,0,22513,0
22489,-802,-8194,256,-47,11,5,13915,2,-2,3,0,37318,100,24,144,0,0,0,0,0,0,0,0,-32295,0,0,0,4457,0,22533,0
22499,-800,-8206,262,-48,16,3,13915,8,0,4,0,37317,105,24,144,0,0,0,0,0,0,0,0,-32295,0,0,0,4457,0,22553,0
22509,-802,-8226,282,-49,14,3,13914,-3,-2,4,0,37315,99,24,144,0,0,0,0,0,0,0,0,-32295,0,0,0,4457,0,22573,0
22519,-792,-8208,274,-45,15,7,13914,3,-1,7,0,37317,103,24,144,0,0,0,0,0,0,0,0,-32295,0,0,0,4457,0,22593,0
22529,-814,-8228,256,-47,13,5,13913,-1,0,5,0,37318,105,24,144,0,0,0,0,0,0,0,0,-32295,0,0,0,4457,0,22613,0
22539,-838,-8232,266,-51,15,3,13915,3,-3,5,0,37316,111,25,144,0,0,0,0,0,0,0,0,-32295,0,0,0,4457,0,22633,0
22549,-800,-8228,290,-49,14,2,13916,1,-1,2,0,37321,117,24,144,0,0,0,0,0,0,0,0,-32296,0,0,0,4457,0,22653,0
22559,-814,-8218,270,-52,11,1,13915,7,-2,3,0,37324,112,24,144,0,0,0,0,0,0,0,0,-32295,0,0,0,4457,0,22673,0
22569,-798,-8182,264,-53,10,5,13914,-5,0,5,0,37327,120,24,144,0,0,0,0,0,0,0,0,-32295,0,0,0,4457,0,22694,0
22579,-782,-8194,278,-49,14,3,13914,0,1,2,0,37323,114,24,144,0,0,0,0,0,0,0,0,-32295,0,0,0,4457,0,22714,0
22589,-808,-8206,264,-50,11,1,13915,5,2,4,0,37319,110,24,144,0,0,0,0,0,0,0,0,-32295,0,0,0,4456,0,22734,0
22599,-792,-8230,298,-53,14,3,13914,-3,2,5,0,37321,102,24,144,0,0,0,0,0,0,0,0,-32296,0,0,0,4458,0,22754,0
22609,-758,-8212,290,-48,15,7,13913,0,3,5,0,37321,100,24,144,0,0,0,0,0,0,0,0,-32296,0,0,0,4456,0,22774,0
22619,-788,-8210,244,-53,14,5,13914,1,-1,4,0,37320,98,24,144,0,0,0,0,0,0,0,0,-32296,0,0,0,4457,0,22794,0
22629,-778,-8246,244,-49,15,9,13914,1,1,4,0,37318,92,24,144,0,0,0,0,0,0,0,0,-32295,0,0,0,4457,0,22814,0
22639,-794,-8214,248,-50,11,10,13913,-7,1,5,0,37318,102,24,144,0,0,0,0,0,0,0,0,-32295,0,0,0,4457,0,22834,0
22649,-808,-8186,278,-43,16,10,13915,5,-2,6,0,37323,107,24,144,0,0,0,0,0,0,0,0,-32295,0,0,0,4457,0,22854,0
22659,-796,-8234,278,-45,16,11,13913,-2,-3,2,0,37327,99,24,144,0,0,0,0,0,0,0,0,-32296,0,0,0,4457,0,22874,0
22669,-776,-8218,274,-40,7,11,13913,0,3,4,0,37329,93,24,144,0,0,0,0,0,0,0,0,-32295,0,0,0,4456,0,22894,0
22679,-810,-8190,278,-49,13,9,13915,5,3,2,0,37332,98,25,144,0,0,0,0,0,0,0,0,-32295,0,0,0,4457,0,22914,0
22689,-782,-8214,274,-52,12,14,13914,-1,1,3,0,37328,104,25,144,0,0,0,0,0,0,0,0,-32295,0,0,0,4457,0,22934,0
22699,-794,-8196,268,-48,8,9,13915,1,4,5,0,37324,102,24,144,0,0,0,0,0,0,0,0,-32296,0,0,0,4456,0,22954,0
22709,-802,-8194,276,-47,12,11,13914,-4,-3,3,0,37321,99,25,144,0,0,0,0,0,0,0,0,-32295,0,0,0,4457,0,22974,0
22719,-808,-8200,250,-51,16,13,13916,4,4,4,0,37321,109,24,144,0,0,0,0,0,0,0,0,-32296,0,0,0,4457,0,22994,0
22729,-816,-8242,294,-46,12,11,13913,-3,-6,5,0,37322,114,24,144,0,0,0,0,0,0,0,0,-32295,0,0,0,4457,0,23014,0
22739,-818,-8186,294,-47,15,10,13915,-2,2,4,0,37323,113,24,144,0,0,0,0,0,0,0,0,-32295,0,0,0,4457,0,23033,0
22749,-832,-8232,264,-54,11,8,13915,3,-2,6,0,37321,108,24,144,0,0,0,0,0,0,0,0,-32296,0,0,0,4457,0,23054,0
22759,-832,-8226,282,-48,14,6,13914,1,2,3,0,37322,102,24,144,0,0,0,0,0,0,0,0,-32295,0,0,0,4457,0,23073,0
22769,-796,-8200,260,-51,14,1,13915,-9,3,5,0,37330,108,25,144,0,0,0,0,0,0,0,0,-32295,0,0,0,4456,0,23093,0
22779,-792,-8220,274,-50,18,4,13915,1,-3,4,0,37332,108,24,144,0,0,0,0,0,0,0,0,-32295,0,0,0,4457,0,23113,0
22789,-802,-8222,266,-46,14,1,13914,0,1,4,0,37331,109,24,144,0,0,0,0,0,0,0,0,-32296,0,0,0,4457,0,23133,0
22799,-812,-8206,270,-49,10,5,13916,6,0,4,0,37324,106,24,144,0,0,0,0,0,0,0,0,-32296,0,0,0,4457,0,23154,0
22809,-774,-8220,276,-47,17,7,13914,0,1,3,0,37323,103,24,144,0,0,0,0,0,0,0,0,-32295,0,0,0,4457,0,23174,0
22819,-794,-8214,276,-48,15,4,13914,4,4,5,0,37327,102,25,144,0,0,0,0,0,0,0,0,-32295,0,0,0,4457,0,23194,0
22829,-794,-8224,316,-49,10,5,13914,0,-8,4,0,37327,104,24,144,0,0,0,0,0,0,0,0,-32295,0,0,0,4457,0,23214,0
22839,-812,-8194,296,-52,10,0,13913,-3,-6,3,0,37326,109,24,144,0,0,0,0,0,0,0,0,-32295,0,0,0,4456,0,23233,0
22849,-810,-8200,264,-52,12,4,13915,-5,-7,3,0,37325,112,24,144,0,0,0,0,0,0,0,0,-32296,0,0,0,4457,0,23254,0
22859,-812,-8212,282,-50,18,1,13914,7,3,6,0,37329,109,24,144,0,0,0,0,0,0,0,0,-32295,0,0,0,4457,0,23274,0
22869,-780,-8206,280,-48,16,6,13914,-4,-6,5,0,37335,107,24,144,0,0,0,0,0,0,0,0,-32295,0,0,0,4457,0,23294,0
22879,-774,-8220,284,-52,15,6,13914,-1,3,4,0,37335,107,24,144,0,0,0,0,0,0,0,0,-32295,0,0,0,4457,0,23314,0
22889,-780,-8198,310,-53,13,3,13914,4,1,3,0,37331,101,25,144,0,0,0,0,0,0,0,0,-32296,0,0,0,4457,0,23334,0
22899,-808,-8204,302,-54,15,10,13913,-5,0,4,0,37327,101,24,144,0,0,0,0,0,0,0,0,-32296,0,0,0,4457,0,23354,0
22909,-798,-8216,258,-56,13,4,13915,0,-6,4,0,37329,113,24,144,0,0,0,0,0,0,0,0,-32295,0,0,0,4457,0,23374,0
22919,-814,-8194,284,-54,13,10,13913,0,2,6,0,37330,105,24,144,0,0,0,0,0,0,0,0,-32295,0,0,0,4457,0,23394,0
22929,-814,-8188,264,-51,11,5,13915,5,3,4,0,37327,103,24,144,0,0,0,0,0,0,0,0,-32295,0,0,0,4457,0,23414,0
22939,-798,-8226,240,-48,10,5,13914,3,3,3,0,37329,102,25,144,0,0,0,0,0,0,0,0,-32295,0,0,0,4457,0,23434,0
22949,-796,-8192,288,-50,15,6,13914,-2,1,5,0,37330,104,25,144,0,0,0,0,0,0,0,0,-32295,0,0,0,4457,0,23454,0
22959,-1220,-8130,346,-49,15,13,13987,265,128,867,1008,37331,101,25,144,0,0,0,0,0,0,0,0,-32295,0,0,0,4457,0,23474,0
22969,-586,-8238,256,-55,25,-5,14198,552,420,955,1736,37333,97,25,144,0,0,0,0,0,0,0,0,-32295,0,0,0,4457,0,23494,0
22979,-778,-8202,298,-55,21,12,14538,832,512,1047,2368,37326,115,24,144,0,0,0,0,0,0,0,0,-32296,0,0,0,4457,0,23514,0
22989,-842,-8216,246,-64,21,6,15009,1113,494,1038,3064,37315,136,25,144,0,0,0,0,0,0,0,0,-32295,0,0,0,4457,0,23534,0
22999,-984,-8240,208,-78,8,2,15605,1398,492,1018,3664,37298,150,24,144,0,0,0,0,0,0,0,0,-32295,0,0,0,4457,0,23554,0
23009,-778,-8140,418,-65,9,-1,16331,1674,487,1016,4248,37287,168,24,144,0,0,0,0,0,0,0,0,-32295,0,0,0,4457,0,23574,0
23019,-770,-8208,244,-63,4,-3,17156,1863,441,993,4704,37276,186,24,144,0,0,0,0,0,0,0,0,-32295,0,0,0,4457,0,23594,0
23029,-870,-8212,280,-47,-17,2,18043,1990,311,948,5160,37265,207,24,144,0,0,0,0,0,0,0,0,-32294,0,0,0,4457,0,23614,0
23039,-762,-8200,248,-39,-16,5,18996,2152,241,966,5704,37256,222,24,144,0,0,0,0,0,0,0,0,-32296,0,0,0,4456,0,23634,0
23049,-820,-8192,354,-37,6,-5,20066,2444,353,1027,6280,37246,238,25,144,0,0,0,0,0,0,0,0,-32296,0,0,0,4456,0,23654,0
23059,-834,-8228,306,-43,9,0,21270,2720,490,1000,6848,37235,256,25,144,0,0,0,0,0,0,0,0,-32295,0,0,0,4457,0,23674,0
23069,-824,-8238,212,-42,5,0,22567,2917,438,976,7480,37233,278,24,144,0,0,0,0,0,0,0,0,-32296,0,0,0,4456,0,23694,0
23079,-652,-8242,210,-44,13,4,24001,3278,431,1033,8184,37223,286,24,144,0,0,0,0,0,0,0,0,-32296,0,0,0,4456,0,23714,0
23089,-768,-8212,520,-7,2,10,25591,3546,583,1034,8720,37212,308,24,144,0,0,0,0,0,0,0,0,-32296,0,0,0,4457,0,23734,0
23099,-724,-8266,568,-65,43,12,27208,3595,348,901,9256,37191,329,24,144,0,0,0,0,0,0,0,0,-32296,0,0,0,4456,0,23754,0
23109,-932,-8214,32,-50,30,12,28977,4043,325,1080,10072,37175,349,24,144,0,0,0,0,0,0,0,0,-32296,0,0,0,4457,0,23774,0
23119,-3304,-8144,330,-92,-36,212,30855,4079,561,1150,9168,37158,366,25,144,0,0,0,0,0,0,0,0,-32295,0,0,0,4475,4,23794,0
23129,22366,-11784,7088,-167,-1922,3464,32248,2462,-665,1303,4040,37144,394,24,144,0,0,0,0,0,0,0,0,-32295,0,0,0,4581,9,23814,0
23139,8682,-8528,1988,-365,-1830,1811,32485,-337,-3181,643,-456,37148,367,24,144,0,0,0,0,0,0,0,0,-32295,0,0,0,4608,0,23834,0
23149,-20448,-5828,-656,-88,963,-1146,31811,-1764,-4086,638,-2464,37192,258,24,144,0,0,0,0,0,0,0,0,-32295,0,0,0,4567,-5,23854,0
23159,-18252,-4492,-2860,-34,2308,-2241,31062,-1483,-1884,858,-1032,37249,131,24,144,0,0,0,0,0,0,0,0,-32295,0,0,0,4517,-4,23874,0
23169,4326,-10874,-1290,414,1882,-2258,30661,-595,563,1243,160,37299,49,24,144,0,0,0,0,0,0,0,0,-32296,0,0,0,4481,-4,23894,0
23179,7108,-4092,-1232,427,-121,-880,30633,77,1426,1026,464,37314,39,24,144,0,0,0,0,0,0,0,0,-32296,0,0,0,4468,0,23914,0
23189,7682,-8724,2358,174,-642,484,30682,98,861,1017,368,37313,56,24,144,0,0,0,0,0,0,0,0,-32295,0,0,0,4472,0,23934,0
23199,-234,-7576,1902,-189,-1695,934,30727,120,117,974,560,37305,75,25,144,0,0,0,0,0,0,0,0,-32296,0,0,0,4480,1,23954,0
23209,-6672,-8288,760,-323,-448,637,30849,326,139,942,1080,37299,91,25,144,0,0,0,0,0,0,0,0,-32295,0,0,0,4491,1,23974,0
23219,-6156,-8868,-502,-373,186,160,31020,368,256,1032,1000,37296,100,24,144,0,0,0,0,0,0,0,0,-32295,0,0,0,4502,0,23994,0
23229,1670,-8754,-950,-167,262,-166,31115,100,-49,1102,256,37294,116,24,144,0,0,0,0,0,0,0,0,-32295,0,0,0,4508,0,24014,0
23239,2800,-8708,-330,-17,102,-108,31054,-197,-467,1014,96,37297,123,24,144,0,0,0,0,0,0,0,0,-32295,0,0,0,4504,0,24034,0
23249,-1286,-7978,446,-47,-37,119,30987,-99,-322,979,256,37299,106,24,144,0,0,0,0,0,0,0,0,-32295,0,0,0,4501,0,24054,0
23259,-1912,-7986,78,-84,-102,225,31018,107,185,968,424,37303,84,25,144,0,0,0,0,0,0,0,0,-32295,0,0,0,4502,0,24074,0
23269,-1332,-7988,-146,-36,2,143,31060,84,216,1014,360,37305,80,24,144,0,0,0,0,0,0,0,0,-32295,0,0,0,4506,0,24094,0
23279,-1084,-8414,46,-15,27,27,31069,-16,-33,1024,224,37312,84,24,144,0,0,0,0,0,0,0,0,-32295,0,0,0,4506,0,24114,0
23289,-1596,-8132,426,-10,45,-26,31061,0,-102,983,272,37314,92,24,144,0,0,0,0,0,0,0,0,-32295,0,0,0,4506,0,24134,0
23299,-774,-8366,560,-42,50,-35,31066,-12,-3,1004,256,37312,97,24,144,0,0,0,0,0,0,0,0,-32295,0,0,0,4506,0,24154,0
23309,-474,-8226,378,-54,6,-6,31063,-6,3,997,280,37304,105,24,144,0,0,0,0,0,0,0,0,-32295,0,0,0,4505,0,24174,0
23319,-692,-8232,280,-51,-21,22,31065,3,-2,1007,280,37304,106,24,144,0,0,0,0,0,0,0,0,-32295,0,0,0,4506,0,24194,0
23329,-1384,-8086,316,-43,-11,10,31067,12,5,1000,288,37305,101,24,144,0,0,0,0,0,0,0,0,-32295,0,0,0,4506,0,24214,0
23339,-1214,-8186,398,-54,20,-39,31065,-4,2,997,272,37305,109,24,144,0,0,0,0,0,0,0,0,-32295,0,0,0,4506,0,24234,0
23349,-518,-8288,348,-70,30,-33,31064,-6,-3,1002,272,37305,114,24,144,0,0,0,0,0,0,0,0,-32295,0,0,0,4506,0,24254,0
23359,-408,-8146,284,-67,15,19,31063,-1,5,1004,280,37304,123,24,144,0,0,0,0,0,0,0,0,-32295,0,0,0,4505,0,24274,0
23369,-712,-8232,76,-64,-2,36,31065,-1,-3,1001,280,37306,123,24,144,0,0,0,0,0,0,0,0,-32295,0,0,0,4505,0,24294,0
23379,-1080,-8180,18,-50,3,38,31065,-1,1,1002,264,37309,123,24,144,0,0,0,0,0,0,0,0,-32294,0,0,0,4506,0,24314,0
23389,-1178,-8174,60,-32,26,22,31064,-7,0,999,288,37313,113,24,144,0,0,0,0,0,0,0,0,-32295,0,0,0,4505,0,24334,0
23399,-956,-8190,162,-16,22,8,31066,4,1,1004,288,37311,106,24,144,0,0,0,0,0,0,0,0,-32295,0,0,0,4505,0,24354,0
23409,-770,-8178,370,-17,8,18,31066,9,-4,1002,280,37310,108,25,144,0,0,0,0,0,0,0,0,-32294,0,0,0,4505,0,24374,0
23419,-878,-8194,482,-31,13,40,31065,-5,1,1001,288,37305,107,24,144,0,0,0,0,0,0,0,0,-32295,0,0,0,4505,0,24394,0
23429,-1038,-8194,428,-56,18,20,31066,-3,-1,1002,280,37306,107,24,144,0,0,0,0,0,0,0,0,-32295,0,0,0,4506,0,24414,0
23439,-968,-8152,308,-62,23,6,31066,1,-1,999,264,37305,104,24,144,0,0,0,0,0,0,0,0,-32295,0,0,0,4505,0,24434,0
23449,-966,-8250,250,-53,19,18,31066,-3,0,1001,288,37304,106,24,144,0,0,0,0,0,0,0,0,-32295,0,0,0,4505,0,24454,0
23459,-1004,-8226,266,-59,9,2,31067,6,4,998,264,37306,102,24,144,0,0,0,0,0,0,0,0,-32295,0,0,0,4506,0,24474,0
23469,-982,-8188,274,-48,9,-15,31066,0,4,1004,272,37306,107,24,144,0,0,0,0,0,0,0,0,-32295,0,0,0,4506,0,24494,0
23479,-952,-8198,306,-55,5,-11,31066,8,0,997,272,37307,101,24,144,0,0,0,0,0,0,0,0,-32295,0,0,0,4505,0,24514,0
23489,-918,-8230,292,-52,9,-17,31065,-7,5,1007,272,37306,114,24,144,0,0,0,0,0,0,0,0,-32295,0,0,0,4505,0,24534,0
23499,-862,-8174,274,-51,5,-23,31065,0,0,999,272,37306,113,24,144,0,0,0,0,0,0,0,0,-32295,0,0,0,4505,0,24554,0
23509,-824,-8244,244,-54,8,-2,31065,-1,2,999,280,37306,110,25,144,0,0,0,0,0,0,0,0,-32295,0,0,0,4505,0,24574,0
23519,-796,-8204,190,-48,13,10,31066,0,2,996,272,37307,110,24,144,0,0,0,0,0,0,0,0,-32295,0,0,0,4506,0,24594,0
23529,-772,-8208,146,-45,24,-3,31065,0,0,998,272,37309,114,24,144,0,0,0,0,0,0,0,0,-32295,0,0,0,4506,0,24614,0
23539,-836,-8160,178,-34,14,7,31067,3,1,1001,288,37308,110,24,144,0,0,0,0,0,0,0,0,-32295,0,0,0,4505,0,24634,0
23549,-894,-8176,320,-37,18,33,31066,2,-2,1003,288,37313,104,24,144,0,0,0,0,0,0,0,0,-32295,0,0,0,4506,0,24654,0
23559,-920,-8218,358,-46,22,13,31067,4,0,997,272,37324,102,25,144,0,0,0,0,0,0,0,0,-32295,0,0,0,4505,0,24674,0
23569,-850,-8210,356,-46,19,16,31065,1,0,1004,272,37339,112,25,144,0,0,0,0,0,0,0,0,-32295,0,0,0,4506,0,24695,0
23579,-942,-8182,324,-48,18,24,31065,5,1,997,272,37344,117,24,144,0,0,0,0,0,0,0,0,-32295,0,0,0,4505,0,24715,0
23589,-974,-8208,256,-49,15,4,31067,1,-2,1000,280,37329,114,24,144,0,0,0,0,0,0,0,0,-32295,0,0,0,4505,0,24735,0
23599,-886,-8194,244,-57,17,1,31066,0,-3,1004,288,37318,114,24,144,0,0,0,0,0,0,0,0,-32295,0,0,0,4505,0,24755,0
23609,-902,-8186,218,-41,13,10,31066,5,2,999,280,37315,115,24,144,0,0,0,0,0,0,0,0,-32295,0,0,0,4505,0,24775,0
23619,-876,-8208,220,-35,16,7,31065,-7,-2,1000,272,37314,120,24,144,0,0,0,0,0,0,0,0,-32295,0,0,0,4505,0,24795,0
23629,-866,-8212,280,-43,13,2,31068,10,2,1002,288,37309,109,24,144,0,0,0,0,0,0,0,0,-32295,0,0,0,4505,0,24815,0
23639,-888,-8170,316,-38,13,15,31069,12,0,1002,288,37309,106,24,144,0,0,0,0,0,0,0,0,-32295,0,0,0,4506,0,24835,0
23649,-888,-8212,310,-55,10,14,31066,-7,2,1000,272,37312,111,24,144,0,0,0,0,0,0,0,0,-32295,0,0,0,4506,0,24855,0
23659,-924,-8238,294,-52,14,12,31068,4,-2,1001,264,37311,114,24,144,0,0,0,0,0,0,0,0,-32295,0,0,0,4505,0,24875,0
23669,-930,-8178,256,-56,15,17,31066,1,-6,999,272,37311,111,24,144,0,0,0,0,0,0,0,0,-32295,0,0,0,4505,0,24895,0
23679,-944,-8220,274,-58,16,9,31065,-5,-4,998,288,37312,106,24,144,0,0,0,0,0,0,0,0,-32295,0,0,0,4505,0,24915,0
23689,-918,-8172,290,-55,14,6,31068,7,-2,996,264,37315,118,24,144,0,0,0,0,0,0,0,0,-32295,0,0,0,4505,0,24935,0
23699,-888,-8182,274,-60,14,4,31067,3,6,1003,288,37321,122,25,144,0,0,0,0,0,0,0,0,-32295,0,0,0,4506,0,24955,0
23709,-910,-8236,268,-54,10,0,31067,0,0,999,264,37320,117,25,144,0,0,0,0,0,0,0,0,-32295,0,0,0,4505,0,24975,0
23719,-906,-8180,276,-55,16,1,31066,-3,1,1001,280,37317,103,24,144,0,0,0,0,0,0,0,0,-32295,0,0,0,4505,0,24995,0
23729,-876,-8212,290,-51,10,0,31067,9,0,999,288,37313,105,24,144,0,0,0,0,0,0,0,0,-32295,0,0,0,4505,0,25015,0
23739,-908,-8244,294,-49,17,10,31066,0,1,997,272,37315,107,24,144,0,0,0,0,0,0,0,0,-32295,0,0,0,4506,0,25035,0
23749,-890,-8200,266,-44,14,6,31067,4,4,1004,280,37316,106,24,144,0,0,0,0,0,0,0,0,-32295,0,0,0,4506,0,25055,0
23759,-888,-8214,240,-48,14,4,31068,2,0,1001,272,37316,107,25,144,0,0,0,0,0,0,0,0,-32295,0,0,0,4506,0,25075,0
23769,-892,-8176,286,-50,12,11,31068,1,-1,1000,280,37315,113,24,144,0,0,0,0,0,0,0,0,-32295,0,0,0,4505,0,25095,0
23779,-880,-8194,278,-48,14,9,31066,0,-3,1003,288,37316,114,24,144,0,0,0,0,0,0,0,0,-32295,0,0,0,4506,0,25115,0
23789,-914,-8218,280,-60,14,10,31067,3,2,999,272,37318,118,25,144,0,0,0,0,0,0,0,0,-32295,0,0,0,4505,0,25135,0
23799,-886,-8230,292,-52,15,22,31066,0,0,1001,280,37319,115,24,144,0,0,0,0,0,0,0,0,-32295,0,0,0,4505,0,25155,0
23809,-884,-8162,280,-57,19,4,31067,6,0,998,264,37325,105,24,144,0,0,0,0,0,0,0,0,-32295,0,0,0,4506,0,25175,0
23819,-864,-8224,264,-55,17,11,31067,-3,-1,1004,288,37325,110,24,144,0,0,0,0,0,0,0,0,-32295,0,0,0,4506,0,25195,0
23829,-904,-8226,288,-58,19,10,31066,5,0,1000,272,37326,111,24,144,0,0,0,0,0,0,0,0,-32295,0,0,0,4505,0,25215,0
23839,-928,-8176,268,-52,15,6,31067,4,5,998,264,37318,112,25,144,0,0,0,0,0,0,0,0,-32295,0,0,0,4506,0,25235,0
23849,-928,-8168,266,-54,14,-1,31067,-5,-5,1005,288,37317,109,25,144,0,0,0,0,0,0,0,0,-32295,0,0,0,4506,0,25255,0
23859,-956,-8202,236,-56,15,-1,31066,3,2,1002,272,37317,112,25,144,0,0,0,0,0,0,0,0,-32295,0,0,0,4506,0,25275,0
23869,-912,-8218,264,-46,15,-1,31066,2,0,1002,280,37320,121,24,144,0,0,0,0,0,0,0,0,-32295,0,0,0,4506,0,25295,0
23879,-930,-8194,262,-47,12,-4,31066,-2,1,998,280,37322,120,24,144,0,0,0,0,0,0,0,0,-32295,0,0,0,4506,0,25315,0
23889,-898,-8208,272,-47,9,-2,31066,2,1,1000,288,37322,109,24,144,0,0,0,0,0,0,0,0,-32295,0,0,0,4506,0,25335,0
23899,-874,-8204,268,-46,7,2,31065,0,-1,1004,280,37321,106,25,144,0,0,0,0,0,0,0,0,-32295,0,0,0,4506,0,25355,0
23909,-850,-8214,248,-55,10,-8,31066,0,-3,999,264,37323,109,25,144,0,0,0,0,0,0,0,0,-32294,0,0,0,4506,0,25375,0
23919,-892,-8208,258,-51,8,-3,31065,-3,0,1001,272,37321,113,24,144,0,0,0,0,0,0,0,0,-32295,0,0,0,4506,0,25395,0
23929,-854,-8196,262,-63,14,5,31066,4,2,1001,272,37321,106,24,144,0,0,0,0,0,0,0,0,-32295,0,0,0,4506,0,25415,0
23939,-882,-8186,240,-55,16,3,31066,1,0,997,272,37319,104,24,144,0,0,0,0,0,0,0,0,-32295,0,0,0,4504,0,25435,0
23949,-880,-8212,256,-59,16,1,31067,1,-2,1004,272,37320,107,24,144,0,0,0,0,0,0,0,0,-32295,0,0,0,4505,0,25456,0
23959,-872,-8212,278,-55,17,6,31066,0,-2,998,264,37322,104,25,144,0,0,0,0,0,0,0,0,-32294,0,0,0,4506,0,25475,0
23969,-888,-8184,298,-51,16,6,31066,1,1,999,272,37323,103,24,144,0,0,0,0,0,0,0,0,-32295,0,0,0,4505,0,25495,0
23979,-906,-8198,308,-62,14,3,31065,-6,1,1000,272,37324,108,24,144,0,0,0,0,0,0,0,0,-32295,0,0,0,4506,0,25515,0
23989,-882,-8200,264,-48,11,13,31066,0,1,1005,272,37321,114,25,144,0,0,0,0,0,0,0,0,-32295,0,0,0,4506,0,25535,0
23999,-874,-8198,300,-58,16,9,31067,7,-3,1002,280,37321,123,25,144,0,0,0,0,0,0,0,0,-32295,0,0,0,4506,0,25556,0
24009,-880,-8194,232,-44,11,9,31066,4,0,1003,272,37322,122,25,144,0,0,0,0,0,0,0,0,-32295,0,0,0,4505,0,25576,0
24019,-884,-8208,234,-51,13,6,31067,-2,1,996,272,37329,127,25,144,0,0,0,0,0,0,0,0,-32295,0,0,0,4506,0,25596,0
24029,-876,-8190,266,-41,14,12,31067,1,-3,998,272,37327,125,25,144,0,0,0,0,0,0,0,0,-32295,0,0,0,4505,0,25616,0
24039,-874,-8208,268,-45,15,7,31066,1,-2,996,280,37324,118,25,144,0,0,0,0,0,0,0,0,-32296,0,0,0,4506,0,25635,0
24049,-892,-8212,262,-49,16,12,31067,0,0,1000,288,37321,116,25,144,0,0,0,0,0,0,0,0,-32295,0,0,0,4506,0,25656,0
24059,-932,-8198,296,-44,15,9,31067,9,3,1003,280,37321,110,25,144,0,0,0,0,0,0,0,0,-32295,0,0,0,4506,0,25676,0
24069,-920,-8208,278,-56,16,4,31067,0,4,1001,272,37320,108,24,144,0,0,0,0,0,0,0,0,-32295,0,0,0,4505,0,25696,0
24079,-914,-8198,258,-52,16,8,31068,5,-2,1001,280,37315,105,25,144,0,0,0,0,0,0,0,0,-32295,0,0,0,4505,0,25716,0
24089,-922,-8192,302,-49,12,10,31067,-1,-2,1000,288,37316,106,25,144,0,0,0,0,0,0,0,0,-32295,0,0,0,4505,0,25736,0
24099,-928,-8192,296,-56,13,3,31066,3,3,1005,280,37321,104,24,144,0,0,0,0,0,0,0,0,-32295,0,0,0,4506,0,25756,0
24109,-892,-8224,282,-50,13,1,31068,-1,-2,1000,288,37323,103,24,144,0,0,0,0,0,0,0,0,-32295,0,0,0,4505,0,25776,0
24119,-914,-8194,250,-61,17,-1,31066,0,3,1003,280,37323,118,24,144,0,0,0,0,0,0,0,0,-32295,0,0,0,4504,0,25796,0
24129,-848,-8170,278,-41,9,-5,31065,-12,0,1000,280,37320,124,24,144,0,0,0,0,0,0,0,0,-32295,0,0,0,4505,0,25816,0
24139,-862,-8224,270,-47,16,-4,31066,-2,4,1000,280,37318,124,24,144,0,0,0,0,0,0,0,0,-32295,0,0,0,4505,0,25836,0
24149,-868,-8194,262,-49,12,4,31067,2,-2,1006,280,37320,118,25,144,0,0,0,0,0,0,0,0,-32295,0,0,0,4505,0,25856,0
24159,-880,-8214,286,-46,13,3,31067,4,1,1002,288,37317,110,25,144,0,0,0,0,0,0,0,0,-32295,0,0,0,4505,0,25876,0
24169,-880,-8192,278,-50,11,8,31066,-2,-4,1000,272,37319,120,24,144,0,0,0,0,0,0,0,0,-32295,0,0,0,4505,0,25896,0
24179,-880,-8196,286,-43,7,12,31065,-6,1,1002,288,37320,116,24,144,0,0,0,0,0,0,0,0,-32295,0,0,0,4505,0,25916,0
24189,-914,-8190,274,-54,15,7,31065,-6,-5,999,288,37320,115,24,144,0,0,0,0,0,0,0,0,-32295,0,0,0,4505,0,25936,0
24199,-892,-8206,258,-49,11,7,31066,-2,-1,1001,280,37319,111,25,144,0,0,0,0,0,0,0,0,-32295,0,0,0,4505,0,25956,0
24209,-846,-8200,268,-54,10,13,31066,3,0,998,272,37317,112,24,144,0,0,0,0,0,0,0,0,-32295,0,0,0,4506,0,25976,0
24219,-906,-8196,256,-50,19,11,31065,-8,10,1004,280,37315,114,25,144,0,0,0,0,0,0,0,0,-32295,0,0,0,4505,0,25996,0
24229,-844,-8202,260,-51,18,1,31066,-4,-4,1000,272,37317,118,25,144,0,0,0,0,0,0,0,0,-32295,0,0,0,4505,0,26016,0
24239,-900,-8232,258,-52,15,8,31066,0,2,999,264,37318,117,25,144,0,0,0,0,0,0,0,0,-32295,0,0,0,4505,0,26036,0
24249,-856,-8206,288,-47,12,13,31066,0,5,1003,280,37320,109,25,144,0,0,0,0,0,0,0,0,-32295,0,0,0,4505,0,26056,0
24259,-844,-8220,282,-51,15,13,31066,0,-2,1000,272,37316,104,24,144,0,0,0,0,0,0,0,0,-32295,0,0,0,4505,0,26076,0
24269,-880,-8210,288,-50,15,12,31066,0,0,1004,272,37314,107,25,144,0,0,0,0,0,0,0,0,-32295,0,0,0,4506,0,26096,0
24279,-946,-8190,262,-49,9,17,31066,0,1,1004,288,37313,113,25,144,0,0,0,0,0,0,0,0,-32295,0,0,0,4506,0,26116,0
24289,-886,-8198,258,-47,17,8,31067,4,4,997,280,37315,109,25,144,0,0,0,0,0,0,0,0,-32295,0,0,0,4506,0,26136,0
24299,-878,-8220,262,-52,16,4,31066,0,5,997,264,37318,112,24,144,0,0,0,0,0,0,0,0,-32295,0,0,0,4505,0,26156,0
24309,-866,-8214,260,-50,10,7,31067,1,4,1001,288,37316,115,25,144,0,0,0,0,0,0,0,0,-32295,0,0,0,4505,0,26176,0
24319,-918,-8214,252,-49,9,3,31067,2,-2,1003,280,37314,118,25,144,0,0,0,0,0,0,0,0,-32295,0,0,0,4505,0,26196,0
24329,-904,-8228,270,-48,7,11,31067,4,0,998,272,37314,115,25,144,0,0,0,0,0,0,0,0,-32295,0,0,0,4506,0,26216,0
24339,-858,-8200,298,-42,16,8,31067,6,-6,1004,288,37312,110,25,144,0,0,0,0,0,0,0,0,-32295,0,0,0,4506,0,26236,0
24349,-916,-8202,292,-58,16,9,31067,-5,-3,1003,280,37312,113,25,144,0,0,0,0,0,0,0,0,-32295,0,0,0,4506,0,26256,0
24359,-866,-8216,282,-50,20,10,31066,-9,-1,997,296,37315,118,25,144,0,0,0,0,0,0,0,0,-32295,0,0,0,4504,0,26276,0
24369,-906,-8204,274,-54,12,7,31066,-2,3,1004,288,37312,114,24,144,0,0,0,0,0,0,0,0,-32295,0,0,0,4506,0,26296,0
24379,-876,-8184,260,-54,16,8,31065,-9,4,1000,288,37312,112,24,144,0,0,0,0,0,0,0,0,-32295,0,0,0,4505,0,26316,0
24389,-862,-8172,264,-50,13,2,31066,0,-3,998,272,37311,114,24,144,0,0,0,0,0,0,0,0,-32295,0,0,0,4506,0,26336,0
24399,-914,-8196,252,-50,13,12,31068,4,0,1003,272,37309,115,24,144,0,0,0,0,0,0,0,0,-32295,0,0,0,4506,0,26356,0
24409,-918,-8218,248,-43,13,5,31066,-3,-4,998,280,37308,112,24,144,0,0,0,0,0,0,0,0,-32295,0,0,0,4505,0,26376,0
24419,-884,-8204,260,-45,15,6,31067,7,-2,1003,280,37308,109,25,144,0,0,0,0,0,0,0,0,-32295,0,0,0,4506,0,26396,0
24429,-884,-8184,252,-40,14,9,31067,2,1,1000,288,37312,113,25,144,0,0,0,0,0,0,0,0,-32295,0,0,0,4505,0,26416,0
24439,-900,-8208,264,-42,10,11,31067,-3,1,1000,280,37312,109,24,144,0,0,0,0,0,0,0,0,-32295,0,0,0,4505,0,26436,0
24449,-924,-8214,268,-48,16,11,31067,-2,-1,998,272,37309,107,24,144,0,0,0,0,0,0,0,0,-32295,0,0,0,4506,0,26456,0
24459,-868,-8200,292,-42,12,6,31066,2,1,1000,288,37310,106,24,144,0,0,0,0,0,0,0,0,-32295,0,0,0,4505,0,26476,0
24469,-890,-8202,300,-49,18,12,31066,-9,-3,1003,272,37308,107,24,144,0,0,0,0,0,0,0,0,-32295,0,0,0,4505,0,26496,0
24479,-922,-8234,286,-49,15,7,31067,0,6,997,272,37308,105,24,144,0,0,0,0,0,0,0,0,-32295,0,0,0,4505,0,26516,0
24489,-872,-8222,288,-60,13,13,31066,2,8,1001,264,37310,102,24,144,0,0,0,0,0,0,0,0,-32295,0,0,0,4506,0,26536,0
24499,-922,-8194,264,-56,16,12,31068,1,-3,1004,272,37309,102,24,144,0,0,0,0,0,0,0,0,-32294,0,0,0,4505,0,26556,0
24509,-922,-8200,254,-58,14,6,31068,0,-1,1006,280,37309,106,24,144,0,0,0,0,0,0,0,0,-32295,0,0,0,4506,0,26576,0
24519,-958,-8204,258,-58,19,8,31068,0,1,999,272,37308,120,25,144,0,0,0,0,0,0,0,0,-32295,0,0,0,4505,0,26596,0
24529,-938,-8172,232,-45,16,7,31068,7,1,1001,280,37306,117,25,144,0,0,0,0,0,0,0,0,-32295,0,0,0,4506,0,26616,0
24539,-936,-8214,264,-50,12,2,31067,-9,-2,999,296,37307,103,25,144,0,0,0,0,0,0,0,0,-32295,0,0,0,4506,0,26637,0
24549,-922,-8170,278,-47,9,4,31068,6,-1,1003,280,37307,95,24,144,0,0,0,0,0,0,0,0,-32295,0,0,0,4506,0,26656,0
24559,-934,-8180,280,-46,7,6,31067,2,-2,1003,296,37308,100,24,144,0,0,0,0,0,0,0,0,-32295,0,0,0,4505,0,26676,0
24569,-942,-8216,302,-47,10,3,31067,0,-6,1001,272,37309,109,24,144,0,0,0,0,0,0,0,0,-32295,0,0,0,4505,0,26697,0
24579,-870,-8196,300,-50,13,-2,31067,0,-3,997,272,37310,114,24,144,0,0,0,0,0,0,0,0,-32295,0,0,0,4505,0,26717,0
24589,-842,-8204,296,-56,13,6,31067,-1,3,1003,272,37307,110,24,144,0,0,0,0,0,0,0,0,-32295,0,0,0,4506,0,26737,0
24599,-944,-8204,278,-51,10,8,31069,8,3,1004,288,37307,108,25,144,0,0,0,0,0,0,0,0,-32295,0,0,0,4506,0,26757,0
24609,-868,-8182,242,-59,16,0,31067,0,1,1004,288,37310,108,24,144,0,0,0,0,0,0,0,0,-32295,0,0,0,4506,0,26777,0
24619,-890,-8194,248,-50,16,2,31068,2,1,1001,272,37312,112,24,144,0,0,0,0,0,0,0,0,-32295,0,0,0,4505,0,26797,0
24629,-872,-8206,258,-57,13,3,31068,9,1,1002,280,37312,109,25,144,0,0,0,0,0,0,0,0,-32295,0,0,0,4505,0,26817,0
24639,-944,-8184,268,-47,22,7,31068,7,1,1000,288,37309,106,25,144,0,0,0,0,0,0,0,0,-32295,0,0,0,4505,0,26837,0
24649,-906,-8224,286,-49,16,7,31066,2,6,1004,280,37311,115,25,144,0,0,0,0,0,0,0,0,-32295,0,0,0,4505,0,26857,0
24659,-902,-8194,286,-55,11,10,31067,4,-1,1005,288,37315,113,25,144,0,0,0,0,0,0,0,0,-32295,0,0,0,4505,0,26877,0
24669,-900,-8188,282,-52,9,3,31066,-1,-3,1001,264,37314,115,25,144,0,0,0,0,0,0,0,0,-32295,0,0,0,4505,0,26897,0
24679,-846,-8204,286,-50,9,6,31067,0,-1,1000,272,37310,106,24,144,0,0,0,0,0,0,0,0,-32295,0,0,0,4506,0,26917,0
24689,-876,-8210,274,-47,9,4,31066,1,2,1001,272,37311,104,24,144,0,0,0,0,0,0,0,0,-32295,0,0,0,4506,0,26937,0
24699,-924,-8212,272,-48,12,1,31067,0,3,1000,272,37316,104,24,144,0,0,0,0,0,0,0,0,-32295,0,0,0,4506,0,26957,0
24709,-838,-8186,292,-45,14,2,31067,0,4,1005,296,37315,105,24,144,0,0,0,0,0,0,0,0,-32295,0,0,0,4506,0,26977,0
24719,-888,-8198,268,-46,12,5,31067,1,-1,1003,272,37311,113,24,144,0,0,0,0,0,0,0,0,-32295,0,0,0,4505,0,26997,0
24729,-920,-8206,284,-53,13,4,31067,-2,2,1000,280,37307,111,25,144,0,0,0,0,0,0,0,0,-32295,0,0,0,4505,0,27017,0
24739,-902,-8172,272,-43,13,8,31065,-7,-5,1001,280,37311,108,25,144,0,0,0,0,0,0,0,0,-32295,0,0,0,4506,0,27037,0
24749,-908,-8214,254,-56,17,7,31066,0,-6,1005,280,37320,105,25,144,0,0,0,0,0,0,0,0,-32295,0,0,0,4506,0,27057,0
24759,-904,-8180,260,-56,14,8,31066,3,-3,1000,280,37322,107,24,144,0,0,0,0,0,0,0,0,-32295,0,0,0,4505,0,27077,0
24769,-908,-8184,276,-52,17,12,31067,3,-3,1001,272,37320,102,25,144,0,0,0,0,0,0,0,0,-32295,0,0,0,4506,0,27097,0
24779,-880,-8212,264,-58,16,7,31065,-7,-6,1003,272,37315,108,25,144,0,0,0,0,0,0,0,0,-32294,0,0,0,4506,0,27117,0
24789,-904,-8166,274,-54,15,7,31068,6,1,1001,272,37317,102,25,144,0,0,0,0,0,0,0,0,-32295,0,0,0,4505,0,27137,0
24799,-866,-8176,294,-56,17,7,31066,-3,0,1005,280,37319,110,25,144,0,0,0,0,0,0,0,0,-32295,0,0,0,4506,0,27157,0
24809,-876,-8246,276,-41,19,7,31065,-8,-1,1001,272,37317,115,24,144,0,0,0,0,0,0,0,0,-32294,0,0,0,4506,0,27177,0
24819,-912,-8180,284,-53,11,8,31066,-3,-5,1002,280,37318,117,24,144,0,0,0,0,0,0,0,0,-32295,0,0,0,4505,0,27197,0
24829,-884,-8200,258,-49,12,12,31067,0,-1,1001,280,37322,119,25,144,0,0,0,0,0,0,0,0,-32295,0,0,0,4506,0,27217,0
24839,-942,-8204,280,-50,15,9,31067,9,2,995,272,37332,117,25,144,0,0,0,0,0,0,0,0,-32295,0,0,0,4506,0,27237,0
24849,-918,-8180,272,-47,12,16,31067,-2,-3,1000,280,37331,120,25,144,0,0,0,0,0,0,0,0,-32295,0,0,0,4505,0,27257,0
24859,-890,-8174,256,-44,11,14,31066,-5,1,1004,288,37335,122,25,144,0,0,0,0,0,0,0,0,-32295,0,0,0,4506,0,27277,0
24869,-904,-8216,250,-53,10,15,31067,-3,1,1001,272,37323,112,24,144,0,0,0,0,0,0,0,0,-32294,0,0,0,4505,0,27297,0
24879,-950,-8222,272,-52,12,12,31068,2,-2,999,280,37324,99,24,144,0,0,0,0,0,0,0,0,-32295,0,0,0,4506,0,27317,0
24889,-900,-8198,262,-54,16,7,31067,-5,5,996,288,37321,94,24,144,0,0,0,0,0,0,0,0,-32294,0,0,0,4505,0,27337,0
24899,-888,-8210,268,-56,12,7,31067,-4,1,1006,280,37321,96,24,144,0,0,0,0,0,0,0,0,-32294,0,0,0,4505,0,27357,0
24909,-864,-8208,280,-55,15,6,31068,9,-1,1002,288,37321,102,25,144,0,0,0,0,0,0,0,0,-32295,0,0,0,4505,0,27377,0
24919,-900,-8186,286,-56,16,1,31067,-2,-1,1000,280,37318,107,24,144,0,0,0,0,0,0,0,0,-32295,0,0,0,4505,0,27397,0
24929,-910,-8222,264,-47,12,3,31067,4,-3,1001,272,37317,110,24,144,0,0,0,0,0,0,0,0,-32295,0,0,0,4505,0,27417,0
24939,-914,-8206,276,-53,16,10,31068,7,1,1000,272,37317,112,25,144,0,0,0,0,0,0,0,0,-32295,0,0,0,4506,0,27437,0
24949,-910,-8204,272,-48,11,2,31067,1,2,1000,288,37319,110,25,144,0,0,0,0,0,0,0,0,-32295,0,0,0,4505,0,27457,0
24959,-926,-8210,290,-51,16,10,31067,3,0,1004,280,37325,104,25,144,0,0,0,0,0,0,0,0,-32295,0,0,0,4506,0,27477,0
24969,-890,-8228,300,-47,10,10,31067,-2,0,1002,280,37327,108,25,144,0,0,0,0,0,0,0,0,-32295,0,0,0,4506,0,27497,0
24979,-892,-8180,254,-45,11,5,31068,3,-1,1001,280,37328,114,24,144,0,0,0,0,0,0,0,0,-32295,0,0,0,4506,0,27517,0
24989,-908,-8208,288,-45,12,4,31068,-2,-5,998,272,37327,112,24,144,0,0,0,0,0,0,0,0,-32295,0,0,0,4505,0,27537,0
24999,-870,-8204,268,-54,12,-3,31067,7,-6,1003,272,37322,119,25,144,0,0,0,0,0,0,0,0,-32295,0,0,0,4504,0,27557,0
25009,-894,-8218,242,-55,17,11,31067,3,0,1004,296,37321,113,24,144,0,0,0,0,0,0,0,0,-32295,0,0,0,4506,0,27577,0
25019,-892,-8200,246,-46,15,9,31066,-1,4,1005,288,37320,115,24,144,0,0,0,0,0,0,0,0,-32295,0,0,0,4506,0,27597,0
25029,-896,-8228,280,-57,16,8,31066,-8,-2,1000,272,37319,105,25,144,0,0,0,0,0,0,0,0,-32295,0,0,0,4505,0,27617,0
25039,-874,-8206,258,-56,13,8,31067,-2,-5,1004,288,37317,104,24,144,0,0,0,0,0,0,0,0,-32296,0,0,0,4506,0,27637,0
25049,-932,-8184,252,-51,18,8,31067,4,1,1002,280,37318,105,24,144,0,0,0,0,0,0,0,0,-32295,0,0,0,4506,0,27657,0
25059,-870,-8194,272,-54,19,9,31068,4,2,1003,272,37320,117,25,144,0,0,0,0,0,0,0,0,-32295,0,0,0,4506,0,27677,0
25069,-892,-8196,282,-50,16,11,31066,-4,5,999,280,37323,118,24,144,0,0,0,0,0,0,0,0,-32295,0,0,0,4506,0,27697,0
25079,-884,-8210,250,-59,14,10,31067,1,-1,1000,280,37320,113,25,144,0,0,0,0,0,0,0,0,-32295,0,0,0,4505,0,27717,0
25089,-960,-8220,272,-46,11,6,31067,-1,-5,1001,288,37323,113,25,144,0,0,0,0,0,0,0,0,-32295,0,0,0,4506,0,27737,0
25099,-896,-8216,268,-45,12,7,31067,1,-1,998,272,37320,109,25,144,0,0,0,0,0,0,0,0,-32295,0,0,0,4505,0,27757,0
25109,-914,-8204,278,-46,8,7,31066,-5,-2,1004,272,37319,111,25,144,0,0,0,0,0,0,0,0,-32295,0,0,0,4505,0,27777,0
25119,-910,-8212,264,-45,9,-2,31067,0,1,1001,280,37317,106,25,144,0,0,0,0,0,0,0,0,-32295,0,0,0,4505,0,27797,0
25129,-900,-8218,276,-54,17,-5,31068,3,-1,1004,280,37314,109,24,144,0,0,0,0,0,0,0,0,-32295,0,0,0,4506,0,27817,0
25139,-922,-8186,272,-46,10,-1,31067,11,7,1000,264,37311,108,24,144,0,0,0,0,0,0,0,0,-32295,0,0,0,4506,0,27837,0
25149,-918,-8198,290,-55,15,2,31067,-1,-3,999,272,37313,110,25,144,0,0,0,0,0,0,0,0,-32295,0,0,0,4505,0,27857,0
25159,-860,-8208,272,-53,11,5,31066,-2,1,996,280,37315,105,25,144,0,0,0,0,0,0,0,0,-32295,0,0,0,4506,0,27878,0
25169,-878,-8212,272,-57,15,2,31065,-1,-3,1004,280,37318,104,25,144,0,0,0,0,0,0,0,0,-32295,0,0,0,4506,0,27898,0
25179,-898,-8192,254,-54,19,2,31068,10,2,998,288,37319,107,25,144,0,0,0,0,0,0,0,0,-32295,0,0,0,4506,0,27918,0
25189,-940,-8184,276,-57,11,6,31067,-6,-7,999,280,37317,107,25,144,0,0,0,0,0,0,0,0,-32295,0,0,0,4506,0,27938,0
25199,-842,-8174,278,-55,18,0,31067,2,6,1005,272,37318,105,25,144,0,0,0,0,0,0,0,0,-32295,0,0,0,4506,0,27958,0
25209,-900,-8218,258,-44,10,4,31066,0,3,1000,280,37315,95,25,144,0,0,0,0,0,0,0,0,-32295,0,0,0,4504,0,27978,0
25219,-882,-8188,272,-49,18,8,31067,2,0,1004,264,37314,104,24,144,0,0,0,0,0,0,0,0,-32295,0,0,0,4506,0,27998,0
25229,-884,-8170,270,-43,14,3,31067,0,0,1001,288,37311,109,24,144,0,0,0,0,0,0,0,0,-32295,0,0,0,4506,0,28018,0
25239,-908,-8198,272,-46,16,6,31066,1,2,1001,264,37312,112,25,144,0,0,0,0,0,0,0,0,-32295,0,0,0,4506,0,28038,0
25249,-924,-8182,256,-43,13,14,31067,-3,-2,1003,288,37313,110,24,144,0,0,0,0,0,0,0,0,-32295,0,0,0,4506,0,28058,0
25259,-882,-8214,272,-40,13,11,31066,0,-1,1003,280,37315,107,25,144,0,0,0,0,0,0,0,0,-32295,0,0,0,4506,0,28078,0
25269,-860,-8210,280,-46,15,10,31068,2,-1,1001,288,37311,106,24,144,0,0,0,0,0,0,0,0,-32295,0,0,0,4506,0,28098,0
25279,-860,-8180,294,-49,14,12,31068,2,1,998,264,37317,102,24,144,0,0,0,0,0,0,0,0,-32295,0,0,0,4504,0,28118,0
25289,-880,-8186,302,-53,16,13,31067,2,-4,998,264,37318,99,25,144,0,0,0,0,0,0,0,0,-32295,0,0,0,4506,0,28138,0
25299,-892,-8182,282,-52,16,16,31067,1,1,1004,280,37321,104,25,144,0,0,0,0,0,0,0,0,-32295,0,0,0,4506,0,28158,0
25309,-882,-8196,246,-59,16,14,31067,5,6,1000,272,37314,111,24,144,0,0,0,0,0,0,0,0,-32295,0,0,0,4506,0,28178,0
25319,-930,-8192,262,-53,17,15,31067,0,0,1000,280,37306,118,25,144,0,0,0,0,0,0,0,0,-32295,0,0,0,4505,0,28198,0
25329,-904,-8168,258,-55,15,7,31068,9,3,998,264,37305,118,25,144,0,0,0,0,0,0,0,0,-32295,0,0,0,4504,0,28218,0
25339,-946,-8222,278,-58,14,9,31068,8,0,1000,280,37306,111,24,144,0,0,0,0,0,0,0,0,-32295,0,0,0,4506,0,28238,0
25349,-890,-8194,272,-52,11,-3,31067,1,2,1003,288,37307,97,24,144,0,0,0,0,0,0,0,0,-32295,0,0,0,4506,0,28258,0
25359,-912,-8186,302,-47,14,7,31067,-4,2,1003,272,37308,98,25,144,0,0,0,0,0,0,0,0,-32295,0,0,0,4505,0,28278,0
25369,-888,-8196,312,-48,9,3,31067,0,-1,1000,272,37306,105,25,144,0,0,0,0,0,0,0,0,-32295,0,0,0,4506,0,28298,0
25379,-904,-8192,258,-45,16,7,31066,-8,-5,1001,288,37311,113,25,144,0,0,0,0,0,0,0,0,-32295,0,0,0,4506,0,28318,0
25389,-870,-8168,272,-45,13,7,31067,3,2,1002,288,37313,113,24,144,0,0,0,0,0,0,0,0,-32295,0,0,0,4506,0,28338,0
25399,-838,-8208,248,-52,9,5,31068,2,-2,1001,288,37315,113,24,144,0,0,0,0,0,0,0,0,-32295,0,0,0,4506,0,28358,0
25409,-858,-8194,242,-56,16,8,31068,0,-2,1006,288,37309,103,25,144,0,0,0,0,0,0,0,0,-32295,0,0,0,4506,0,28378,0
25419,-888,-8206,246,-47,13,8,31066,-1,6,1003,288,37307,96,24,144,0,0,0,0,0,0,0,0,-32295,0,0,0,4506,0,28398,0
25429,-894,-8202,274,-55,17,4,31068,0,-2,1002,288,37306,96,24,144,0,0,0,0,0,0,0,0,-32295,0,0,0,4506,0,28418,0
25439,-918,-8178,274,-56,12,9,31067,0,-3,996,280,37306,108,25,144,0,0,0,0,0,0,0,0,-32295,0,0,0,4505,0,28438,0
25449,-924,-8234,262,-56,15,9,31068,0,3,1003,288,37307,117,25,144,0,0,0,0,0,0,0,0,-32295,0,0,0,4506,0,28458,0
25459,-902,-8182,258,-57,18,10,31067,-2,-1,1005,280,37305,117,24,144,0,0,0,0,0,0,0,0,-32295,0,0,0,4506,0,28478,0
25469,-898,-8228,250,-47,14,5,31067,0,2,1003,272,37306,116,24,144,0,0,0,0,0,0,0,0,-32295,0,0,0,4506,0,28498,0
25479,-894,-8192,242,-53,16,2,31067,-3,-6,1003,280,37305,109,25,144,0,0,0,0,0,0,0,0,-32295,0,0,0,4506,0,28518,0
25489,-878,-8186,274,-43,11,5,31066,6,7,1000,272,37311,111,25,144,0,0,0,0,0,0,0,0,-32295,0,0,0,4506,0,28538,0
25499,-858,-8178,250,-46,16,4,31066,-4,4,1004,280,37314,114,25,144,0,0,0,0,0,0,0,0,-32295,0,0,0,4506,0,28558,0
25509,-856,-8208,274,-44,17,3,31068,1,0,1005,288,37315,117,25,144,0,0,0,0,0,0,0,0,-32295,0,0,0,4505,0,28578,0
25519,-944,-8198,270,-44,19,4,31066,-5,-1,1003,280,37308,105,25,144,0,0,0,0,0,0,0,0,-32295,0,0,0,4506,0,28598,0
25529,-918,-8188,244,-50,13,8,31068,8,2,1000,288,37306,99,24,144,0,0,0,0,0,0,0,0,-32295,0,0,0,4505,0,28618,0
25539,-876,-8174,286,-42,12,12,31066,-3,10,1001,272,37304,99,25,144,0,0,0,0,0,0,0,0,-32295,0,0,0,4506,0,28638,0
25549,-916,-8230,302,-51,16,8,31067,3,2,1005,272,37304,102,25,144,0,0,0,0,0,0,0,0,-32295,0,0,0,4504,0,28658,0
25559,-920,-8198,302,-51,16,5,31067,2,-3,1002,288,37304,102,25,144,0,0,0,0,0,0,0,0,-32295,0,0,0,4505,0,28678,0
25569,-948,-8162,248,-54,14,6,31067,4,-1,1002,272,37307,102,25,144,0,0,0,0,0,0,0,0,-32295,0,0,0,4505,0,28698,0
25579,-908,-8208,274,-47,17,7,31068,4,-6,997,272,37309,107,25,144,0,0,0,0,0,0,0,0,-32295,0,0,0,4505,0,28718,0
25589,-874,-8174,284,-53,14,2,31067,7,0,1000,272,37310,109,25,144,0,0,0,0,0,0,0,0,-32295,0,0,0,4505,0,28738,0
25599,-918,-8192,286,-50,14,5,31068,6,1,1002,280,37313,107,25,144,0,0,0,0,0,0,0,0,-32295,0,0,0,4506,0,28758,0
25609,-892,-8224,270,-49,12,1,31066,-3,-6,1002,272,37315,109,25,144,0,0,0,0,0,0,0,0,-32295,0,0,0,4506,0,28778,0
25619,-868,-8220,270,-54,7,1,31067,7,3,999,272,37317,112,25,144,0,0,0,0,0,0,0,0,-32295,0,0,0,4505,0,28798,0
25629,-850,-8176,264,-44,14,3,31067,6,2,1002,288,37310,115,25,144,0,0,0,0,0,0,0,0,-32295,0,0,0,4505,0,28818,0
25639,-892,-8206,296,-48,12,7,31067,1,5,1003,272,37309,112,25,144,0,0,0,0,0,0,0,0,-32295,0,0,0,4505,0,28838,0
25649,-916,-8218,266,-52,14,7,31067,-6,0,1004,288,37309,98,24,144,0,0,0,0,0,0,0,0,-32295,0,0,0,4505,0,28858,0
25659,-910,-8186,284,-46,11,8,31067,-1,1,1002,272,37311,98,24,144,0,0,0,0,0,0,0,0,-32295,0,0,0,4505,0,28878,0
25669,-914,-8196,274,-52,11,10,31066,-3,1,1001,280,37311,104,24,144,0,0,0,0,0,0,0,0,-32295,0,0,0,4505,0,28898,0
25679,-888,-8216,266,-45,15,9,31067,2,-5,1003,288,37310,106,24,144,0,0,0,0,0,0,0,0,-32295,0,0,0,4506,0,28918,0
25689,-932,-8206,280,-59,17,5,31066,-5,-2,999,296,37310,104,24,144,0,0,0,0,0,0,0,0,-32295,0,0,0,4507,0,28938,0
25699,-906,-8210,284,-55,12,5,31066,-4,-1,1005,288,37319,106,25,144,0,0,0,0,0,0,0,0,-32295,0,0,0,4506,0,28958,0
25709,-860,-8234,266,-54,17,1,31067,1,1,1006,288,37323,108,24,144,0,0,0,0,0,0,0,0,-32295,0,0,0,4505,0,28978,0
25719,-896,-8196,256,-52,11,8,31067,6,2,1003,272,37319,109,25,144,0,0,0,0,0,0,0,0,-32295,0,0,0,4505,0,28998,0
25729,-864,-8190,288,-53,15,11,31068,3,2,1002,288,37309,109,25,144,0,0,0,0,0,0,0,0,-32295,0,0,0,4505,0,29018,0
25739,-882,-8214,266,-52,16,8,31067,1,5,1003,288,37307,118,25,144,0,0,0,0,0,0,0,0,-32295,0,0,0,4505,0,29038,0
25749,-922,-8190,278,-44,15,11,31066,2,-2,1005,272,37311,115,25,144,0,0,0,0,0,0,0,0,-32295,0,0,0,4505,0,29058,0
25759,-878,-8168,286,-47,11,8,31067,0,4,1003,280,37313,112,25,144,0,0,0,0,0,0,0,0,-32295,0,0,0,4505,0,29078,0
25769,-890,-8214,286,-48,11,10,31067,1,-2,1004,280,37312,107,25,144,0,0,0,0,0,0,0,0,-32295,0,0,0,4505,0,29098,0
25779,-832,-8200,272,-51,11,8,31068,3,2,1000,272,37312,113,25,144,0,0,0,0,0,0,0,0,-32295,0,0,0,4505,0,29118,0
25789,-880,-8198,244,-47,10,10,31067,2,1,997,288,37312,111,25,144,0,0,0,0,0,0,0,0,-32295,0,0,0,4505,0,29138,0
25799,-892,-8218,278,-42,11,11,31066,-2,-2,1002,280,37316,113,25,144,0,0,0,0,0,0,0,0,-32295,0,0,0,4506,0,29158,0
25809,-888,-8156,272,-50,16,8,31068,-2,-4,1002,272,37314,118,25,144,0,0,0,0,0,0,0,0,-32294,0,0,0,4505,0,29178,0
25819,-904,-8160,272,-48,16,8,31068,0,3,1002,272,37313,117,25,144,0,0,0,0,0,0,0,0,-32295,0,0,0,4505,0,29198,0
25829,-898,-8190,268,-49,19,13,31068,16,4,1002,288,37312,118,25,144,0,0,0,0,0,0,0,0,-32295,0,0,0,4505,0,29218,0
25839,-894,-8180,290,-45,6,9,31067,-3,5,1003,288,37316,112,25,144,0,0,0,0,0,0,0,0,-32295,0,0,0,4506,0,29238,0
25849,-906,-8200,290,-59,19,8,31068,1,-4,1006,288,37317,116,25,144,0,0,0,0,0,0,0,0,-32295,0,0,0,4506,0,29258,0
25859,-884,-8196,298,-56,16,8,31067,1,3,998,264,37314,109,25,144,0,0,0,0,0,0,0,0,-32295,0,0,0,4505,0,29278,0
25869,-878,-8204,280,-48,16,6,31066,-6,2,1006,288,37313,106,25,144,0,0,0,0,0,0,0,0,-32295,0,0,0,4506,0,29298,0
25879,-890,-8198,278,-52,22,12,31067,4,0,1003,288,37315,110,25,144,0,0,0,0,0,0,0,0,-32295,0,0,0,4506,0,29318,0
25889,-910,-8182,308,-50,13,7,31068,5,-3,1001,288,37319,107,24,144,0,0,0,0,0,0,0,0,-32295,0,0,0,4505,0,29338,0
25899,-886,-8190,282,-55,18,9,31067,7,2,1004,280,37327,103,24,144,0,0,0,0,0,0,0,0,-32295,0,0,0,4504,0,29358,0
25909,-856,-8178,276,-47,11,8,31069,2,-2,1006,288,37327,102,25,144,0,0,0,0,0,0,0,0,-32295,0,0,0,4505,0,29378,0
25919,-974,-8192,274,-47,14,10,31068,0,-2,1002,280,37326,116,25,144,0,0,0,0,0,0,0,0,-32295,0,0,0,4506,0,29398,0
25929,-910,-8204,302,-46,11,1,31067,-5,-4,995,272,37318,118,25,144,0,0,0,0,0,0,0,0,-32295,0,0,0,4506,0,29418,0
25939,-934,-8172,272,-43,11,6,31067,5,6,1005,280,37314,120,25,144,0,0,0,0,0,0,0,0,-32295,0,0,0,4505,0,29438,0
25949,-874,-8214,286,-49,15,-1,31068,4,4,1003,280,37313,118,25,144,0,0,0,0,0,0,0,0,-32295,0,0,0,4506,0,29459,0
25959,-506,-8758,376,-32,57,-113,31026,-147,-72,226,0,37315,115,25,144,0,0,0,0,0,0,0,0,-32295,0,0,0,4503,0,29479,0
25969,-1690,-8124,212,-28,95,-162,30956,-141,-148,279,0,37320,108,25,144,0,0,0,0,0,0,0,0,-32295,0,0,0,4498,0,29499,0
25979,-1402,-8022,196,-22,113,-198,30896,-114,-23,211,0,37322,94,25,144,0,0,0,0,0,0,0,0,-32295,0,0,0,4493,0,29519,0
25989,-644,-8072,338,-24,69,-140,30855,-62,60,140,0,37323,88,25,144,0,0,0,0,0,0,0,0,-32295,0,0,0,4491,0,29539,0
25999,-132,-8212,404,-37,9,-53,30846,-8,96,32,0,37324,89,25,144,0,0,0,0,0,0,0,0,-32296,0,0,0,4491,0,29560,0
26009,-594,-8228,448,-57,-28,23,30844,-4,71,22,0,37330,115,25,144,0,0,0,0,0,0,0,0,-32295,0,0,0,4491,0,29580,0
26019,-1078,-8196,332,-63,-9,21,30838,-9,4,25,0,37330,114,25,144,0,0,0,0,0,0,0,0,-32296,0,0,0,4491,0,29600,0
26029,-1106,-8184,190,-57,29,-29,30830,-20,-7,33,0,37329,116,25,144,0,0,0,0,0,0,0,0,-32295,0,0,0,4490,0,29620,0
26039,-868,-8206,204,-48,38,-48,30821,-24,-11,49,0,37320,97,25,144,0,0,0,0,0,0,0,0,-32295,0,0,0,4489,0,29640,0
26049,-684,-8244,290,-42,22,-27,30812,-17,-8,43,0,37320,94,25,144,0,0,0,0,0,0,0,0,-32296,0,0,0,4489,0,29660,0
26059,-674,-8210,314,-52,12,-3,30808,1,15,11,0,37323,93,25,144,0,0,0,0,0,0,0,0,-32295,0,0,0,4488,0,29680,0
26069,-848,-8210,258,-55,1,14,30808,5,15,-3,0,37324,101,25,144,0,0,0,0,0,0,0,0,-32295,0,0,0,4488,0,29700,0
26079,-996,-8214,226,-54,13,7,30808,0,4,-2,0,37322,92,24,144,0,0,0,0,0,0,0,0,-32295,0,0,0,4489,0,29720,0
26089,-954,-8186,266,-44,22,-8,30808,-1,-1,-1,0,37321,94,25,144,0,0,0,0,0,0,0,0,-32295,0,0,0,4489,0,29740,0
26099,-852,-8192,280,-42,20,-4,30807,0,-6,1,0,37323,96,25,144,0,0,0,0,0,0,0,0,-32295,0,0,0,4487,0,29760,0
26109,-726,-8214,290,-41,14,5,30806,0,-1,1,0,37331,117,25,144,0,0,0,0,0,0,0,0,-32295,0,0,0,4489,0,29780,0
26119,-796,-8224,304,-53,12,-1,30804,-6,-5,1,0,37340,123,25,144,0,0,0,0,0,0,0,0,-32296,0,0,0,4488,0,29800,0
26129,-860,-8202,260,-49,9,9,30804,7,2,0,0,37349,127,25,144,0,0,0,0,0,0,0,0,-32295,0,0,0,4488,0,29820,0
26139,-870,-8212,244,-48,18,5,30804,6,-2,-3,0,37346,120,25,144,0,0,0,0,0,0,0,0,-32296,0,0,0,4487,0,29840,0
26149,-816,-8204,284,-47,16,6,30802,-3,-1,-1,0,37337,118,25,144,0,0,0,0,0,0,0,0,-32295,0,0,0,4488,0,29860,0
26159,-812,-8202,298,-42,14,9,30803,0,0,-2,0,37326,99,25,144,0,0,0,0,0,0,0,0,-32295,0,0,0,4489,0,29880,0
26169,-878,-8220,280,-54,7,17,30803,2,-1,-3,0,37318,89,24,144,0,0,0,0,0,0,0,0,-32296,0,0,0,4487,0,29900,0
26179,-898,-8180,294,-52,11,13,30802,4,-1,-1,0,37315,89,24,144,0,0,0,0,0,0,0,0,-32296,0,0,0,4488,0,29920,0
26189,-932,-8194,266,-50,16,10,30802,3,1,-3,0,37313,89,24,144,0,0,0,0,0,0,0,0,-32295,0,0,0,4488,0,29940,0
26199,-884,-8226,290,-53,17,3,30801,-6,0,-3,0,37313,96,24,144,0,0,0,0,0,0,0,0,-32295,0,0,0,4487,0,29960,0
26209,-820,-8210,276,-52,13,2,30802,-1,-3,-3,0,37317,96,24,144,0,0,0,0,0,0,0,0,-32295,0,0,0,4487,0,29980,0
26219,-842,-8204,288,-51,17,6,30801,-4,-7,-3,0,37324,93,24,144,0,0,0,0,0,0,0,0,-32295,0,0,0,4487,0,30000,0
26229,-882,-8224,290,-54,15,0,30800,-7,5,-1,0,37321,87,24,144,0,0,0,0,0,0,0,0,-32295,0,0,0,4488,0,30020,0
26239,-876,-8220,270,-50,14,-2,30802,-3,3,-1,0,37319,87,24,144,0,0,0,0,0,0,0,0,-32296,0,0,0,4487,0,30040,0
26249,-834,-8192,302,-53,21,2,30800,0,-1,-2,0,37312,98,25,144,0,0,0,0,0,0,0,0,-32295,0,0,0,4487,0,30060,0
26259,-870,-8182,294,-48,14,4,30800,-6,3,1,0,37316,104,25,144,0,0,0,0,0,0,0,0,-32295,0,0,0,4488,0,30080,0
26269,-860,-8202,272,-51,17,1,30799,-6,2,0,0,37315,106,24,144,0,0,0,0,0,0,0,0,-32296,0,0,0,4487,0,30100,0
26279,-848,-8218,290,-54,13,3,30799,-2,-2,3,0,37313,106,24,144,0,0,0,0,0,0,0,0,-32295,0,0,0,4487,0,30120,0
26289,-846,-8206,264,-57,18,-2,30798,-3,5,0,0,37315,101,25,144,0,0,0,0,0,0,0,0,-32295,0,0,0,4487,0,30140,0
26299,-846,-8234,258,-59,14,4,30797,-3,2,-1,0,37316,98,25,144,0,0,0,0,0,0,0,0,-32295,0,0,0,4487,0,30160,0
26309,-834,-8188,250,-51,13,8,30797,-2,-2,-1,0,37319,97,25,144,0,0,0,0,0,0,0,0,-32295,0,0,0,4488,0,30180,0
26319,-828,-8204,276,-46,16,9,30796,-3,-1,0,0,37315,90,24,144,0,0,0,0,0,0,0,0,-32295,0,0,0,4487,0,30200,0
26329,-848,-8206,258,-52,17,8,30796,-3,-2,-2,0,37313,104,24,144,0,0,0,0,0,0,0,0,-32295,0,0,0,4487,0,30220,0
26339,-838,-8190,248,-51,20,9,30795,-11,0,-4,0,37309,97,25,144,0,0,0,0,0,0,0,0,-32295,0,0,0,4487,0,30240,0
26349,-846,-8216,288,-51,16,15,30797,3,3,-3,0,37310,96,24,144,0,0,0,0,0,0,0,0,-32295,0,0,0,4487,0,30260,0
26359,-834,-8194,276,-48,15,16,30797,2,-2,-4,0,37311,96,25,144,0,0,0,0,0,0,0,0,-32296,0,0,0,4487,0,30280,0
26369,-886,-8184,300,-55,13,12,30796,1,0,-4,0,37311,100,24,144,0,0,0,0,0,0,0,0,-32295,0,0,0,4487,0,30300,0
26379,-876,-8218,268,-53,15,8,30796,-3,-5,-3,0,37308,93,24,144,0,0,0,0,0,0,0,0,-32295,0,0,0,4487,0,30320,0
26389,-872,-8206,246,-53,16,8,30796,0,0,-3,0,37307,100,25,144,0,0,0,0,0,0,0,0,-32295,0,0,0,4487,0,30341,0
26399,-868,-8190,300,-47,17,6,30795,-3,0,-3,0,37309,102,25,144,0,0,0,0,0,0,0,0,-32295,0,0,0,4488,0,30360,0
26409,-878,-8240,272,-49,19,6,30797,1,7,-5,0,37311,103,25,144,0,0,0,0,0,0,0,0,-32295,0,0,0,4488,0,30380,0
26419,-852,-8194,280,-50,11,9,30796,2,3,-1,0,37309,110,25,144,0,0,0,0,0,0,0,0,-32295,0,0,0,4487,0,30400,0
26429,-856,-8206,292,-47,13,11,30795,-3,-1,-3,0,37312,107,24,144,0,0,0,0,0,0,0,0,-32295,0,0,0,4487,0,30420,0
26439,-862,-8224,268,-49,15,9,30796,-3,-1,-4,0,37311,108,24,144,0,0,0,0,0,0,0,0,-32295,0,0,0,4487,0,30440,0
26449,-912,-8202,280,-52,11,6,30796,-3,3,-5,0,37310,100,25,144,0,0,0,0,0,0,0,0,-32295,0,0,0,4487,0,30460,0
26459,-866,-8192,250,-49,13,5,30796,0,-1,-2,0,37306,102,25,144,0,0,0,0,0,0,0,0,-32295,0,0,0,4487,0,30481,0
26469,-856,-8200,288,-51,17,4,30796,0,1,-4,0,37306,105,25,144,0,0,0,0,0,0,0,0,-32295,0,0,0,4487,0,30501,0
26479,-824,-8222,276,-52,10,1,30795,-3,-2,-1,0,37307,108,25,144,0,0,0,0,0,0,0,0,-32295,0,0,0,4487,0,30521,0
26489,-854,-8204,274,-50,11,6,30796,3,1,-1,0,37309,101,24,144,0,0,0,0,0,0,0,0,-32295,0,0,0,4487,0,30541,0
26499,-850,-8200,254,-53,15,5,30795,-1,-2,-3,0,37311,94,24,144,0,0,0,0,0,0,0,0,-32295,0,0,0,4488,0,30565,0
26509,-860,-8214,274,-47,13,6,30795,-4,-1,-1,0,37312,102,24,144,0,0,0,0,0,0,0,0,-32295,0,0,0,4487,0,30587,0
26519,-862,-8184,278,-53,13,8,30795,-3,4,-6,0,37312,110,24,144,0,0,0,0,0,0,0,0,-32295,0,0,0,4487,0,30607,0
26529,-864,-8198,262,-51,15,0,30796,0,-1,-3,0,37314,108,24,144,0,0,0,0,0,0,0,0,-32295,0,0,0,4487,0,30627,0
26539,-882,-8184,262,-49,14,5,30794,-3,1,0,0,37314,105,24,144,0,0,0,0,0,0,0,0,-32295,0,0,0,4487,0,30647,0
26549,-864,-8182,272,-41,19,9,30794,-7,-1,-3,0,37314,107,25,144,0,0,0,0,0,0,0,0,-32295,0,0,0,4487,0,30667,0
26559,-852,-8178,272,-48,15,7,30795,0,0,0,0,37309,103,25,144,0,0,0,0,0,0,0,0,-32295,0,0,0,4487,0,30687,0
26569,-852,-8222,288,-52,14,7,30795,0,-5,-3,0,37308,97,25,144,0,0,0,0,0,0,0,0,-32296,0,0,0,4486,0,30707,0
26579,-858,-8202,284,-50,15,11,30795,1,-6,-1,0,37310,96,25,144,0,0,0,0,0,0,0,0,-32295,0,0,0,4488,0,30727,0
26589,-862,-8206,264,-52,15,3,30794,-2,-1,-3,0,37308,99,25,144,0,0,0,0,0,0,0,0,-32296,0,0,0,4488,0,30747,0
26599,-838,-8170,254,-45,16,8,30794,1,-3,-2,0,37308,96,25,144,0,0,0,0,0,0,0,0,-32295,0,0,0,4487,0,30767,0
26609,-858,-8190,268,-50,9,7,30792,-9,4,-2,0,37308,88,25,144,0,0,0,0,0,0,0,0,-32295,0,0,0,4487,0,30787,0
26619,-874,-8200,258,-48,15,5,30792,0,-2,-3,0,37309,98,25,144,0,0,0,0,0,0,0,0,-32295,0,0,0,4488,0,30807,0
26629,-864,-8190,254,-44,12,1,30793,2,-3,-1,0,37317,107,25,144,0,0,0,0,0,0,0,0,-32295,0,0,0,4487,0,30827,0
26639,-866,-8222,286,-46,17,1,30792,-2,1,-1,0,37315,102,25,144,0,0,0,0,0,0,0,0,-32296,0,0,0,4487,0,30847,0
26649,-868,-8176,284,-48,16,2,30793,0,2,1,0,37313,102,24,144,0,0,0,0,0,0,0,0,-32295,0,0,0,4487,0,30867,0
26659,-862,-8200,266,-46,11,-1,30790,-9,0,5,0,37314,96,25,144,0,0,0,0,0,0,0,0,-32295,0,0,0,4487,0,30887,0
26669,-864,-8222,292,-52,13,4,30790,0,0,6,0,37314,102,25,144,0,0,0,0,0,0,0,0,-32295,0,0,0,4487,0,30907,0
26679,-858,-8182,278,-48,15,1,30787,-7,-4,6,0,37314,93,25,144,0,0,0,0,0,0,0,0,-32296,0,0,0,4487,0,30927,0
26689,-872,-8192,286,-47,15,1,30786,2,-3,9,0,37311,97,25,144,0,0,0,0,0,0,0,0,-32295,0,0,0,4486,0,30947,0
26699,-874,-8192,298,-48,20,-3,30783,-14,-2,14,0,37314,97,25,144,0,0,0,0,0,0,0,0,-32295,0,0,0,4485,0,30967,0
26709,-846,-8206,268,-43,16,-11,30780,-11,-5,22,0,37318,103,25,144,0,0,0,0,0,0,0,0,-32295,0,0,0,4485,0,30987,0
26719,-858,-8242,254,-43,19,-16,30773,-19,-10,39,0,37317,103,25,144,0,0,0,0,0,0,0,0,-32296,0,0,0,4485,0,31007,0
26729,-902,-8180,256,-44,25,-21,30760,-35,-13,60,0,37313,104,25,144,0,0,0,0,0,0,0,0,-32295,0,0,0,4485,0,31027,0
26739,-936,-8210,266,-41,28,-26,30750,-12,-7,58,0,37322,96,24,144,0,0,0,0,0,0,0,0,-32295,0,0,0,4484,0,31047,0
26749,-792,-8200,296,-39,16,-9,30744,-3,18,15,0,37325,96,24,144,0,0,0,0,0,0,0,0,-32295,0,0,0,4484,0,31067,0
26759,-724,-8226,312,-49,7,-2,30744,-6,24,1,0,37327,91,25,144,0,0,0,0,0,0,0,0,-32296,0,0,0,4484,0,31087,0
26769,-838,-8196,318,-51,8,11,30743,0,1,-2,0,37318,94,25,144,0,0,0,0,0,0,0,0,-32295,0,0,0,4484,0,31107,0
26779,-926,-8194,280,-52,13,11,30743,-8,5,-3,0,37316,94,24,144,0,0,0,0,0,0,0,0,-32295,0,0,0,4483,0,31127,0
26789,-904,-8210,234,-55,20,-2,30742,-10,-5,-2,0,37318,86,24,144,0,0,0,0,0,0,0,0,-32295,0,0,0,4483,0,31147,0
26799,-804,-8208,234,-52,16,3,30742,-1,-4,-1,0,37319,72,25,144,0,0,0,0,0,0,0,0,-32295,0,0,0,4483,0,31167,0
26809,-804,-8222,288,-56,10,4,30742,6,-1,-1,0,37321,79,25,144,0,0,0,0,0,0,0,0,-32295,0,0,0,4483,0,31187,0
26819,-826,-8246,288,-55,12,10,30741,0,1,-1,0,37318,80,24,144,0,0,0,0,0,0,0,0,-32295,0,0,0,4483,0,31207,0
26829,-848,-8218,264,-51,12,12,30742,5,1,-3,0,37317,82,24,144,0,0,0,0,0,0,0,0,-32295,0,0,0,4483,0,31227,0
26839,-866,-8218,272,-50,16,9,30742,3,-3,-5,0,37317,77,25,144,0,0,0,0,0,0,0,0,-32295,0,0,0,4483,0,31247,0
26849,-846,-8186,264,-48,17,10,30740,-1,0,-4,0,37321,84,25,144,0,0,0,0,0,0,0,0,-32296,0,0,0,4484,0,31267,0
26859,-860,-8176,284,-45,12,10,30741,-1,3,-5,0,37321,78,25,144,0,0,0,0,0,0,0,0,-32295,0,0,0,4483,0,31287,0
26869,-850,-8224,296,-53,13,9,30742,4,2,-5,0,37321,79,25,144,0,0,0,0,0,0,0,0,-32295,0,0,0,4483,0,31307,0
26879,-884,-8200,290,-49,13,8,30741,8,4,-4,0,37320,82,25,144,0,0,0,0,0,0,0,0,-32295,0,0,0,4483,0,31327,0
26889,-852,-8188,270,-53,16,7,30740,0,0,-2,0,37321,86,25,144,0,0,0,0,0,0,0,0,-32295,0,0,0,4483,0,31347,0
26899,-840,-8226,246,-42,18,9,30741,2,-1,-3,0,37321,93,25,144,0,0,0,0,0,0,0,0,-32295,0,0,0,4483,0,31367,0
26909,-846,-8184,270,-45,15,6,30741,6,0,-3,0,37323,88,25,144,0,0,0,0,0,0,0,0,-32296,0,0,0,4484,0,31387,0
26919,-850,-8200,282,-50,11,7,30741,5,-1,-4,0,37324,94,24,144,0,0,0,0,0,0,0,0,-32295,0,0,0,4482,0,31407,0
26929,-872,-8200,282,-51,8,7,30742,-4,-2,-5,0,37324,86,24,144,0,0,0,0,0,0,0,0,-32295,0,0,0,4483,0,31427,0
26939,-868,-8216,262,-47,14,4,30740,-3,6,-2,0,37322,90,25,144,0,0,0,0,0,0,0,0,-32295,0,0,0,4483,0,31447,0
26949,-828,-8210,270,-48,17,8,30742,0,0,-4,0,37324,82,25,144,0,0,0,0,0,0,0,0,-32295,0,0,0,4483,0,31467,0
26959,-828,-8196,286,-48,14,1,30739,-3,1,-4,0,37324,81,25,144,0,0,0,0,0,0,0,0,-32296,0,0,0,4483,0,31487,0
26969,-868,-8194,316,-48,14,10,30740,0,-2,-4,0,37326,78,25,144,0,0,0,0,0,0,0,0,-32295,0,0,0,4483,0,31507,0
26979,-890,-8214,282,-49,14,9,30740,-2,-2,-4,0,37318,77,25,144,0,0,0,0,0,0,0,0,-32295,0,0,0,4483,0,31527,0
26989,-880,-8204,294,-53,10,0,30741,2,2,-4,0,37318,77,25,144,0,0,0,0,0,0,0,0,-32295,0,0,0,4483,0,31547,0
26999,-874,-8212,276,-52,15,6,30739,-5,0,-3,0,37320,77,25,144,0,0,0,0,0,0,0,0,-32295,0,0,0,4483,0,31567,0
27009,-870,-8194,264,-49,16,1,30740,-4,-1,-3,0,37320,76,25,144,0,0,0,0,0,0,0,0,-32295,0,0,0,4484,0,31587,0
27019,-844,-8202,242,-48,16,-2,30739,7,-2,-2,0,37321,75,25,144,0,0,0,0,0,0,0,0,-32295,0,0,0,4482,0,31607,0
27029,-842,-8222,246,-44,12,0,30740,0,-1,-4,0,37321,76,25,144,0,0,0,0,0,0,0,0,-32295,0,0,0,4483,0,31627,0
27039,-840,-8204,264,-54,11,2,30740,0,1,-7,0,37322,81,24,144,0,0,0,0,0,0,0,0,-32296,0,0,0,4483,0,31647,0
27049,-820,-8204,274,-47,10,1,30739,1,3,-2,0,37326,85,24,144,0,0,0,0,0,0,0,0,-32295,0,0,0,4483,0,31667,0
27059,-840,-8218,274,-52,15,6,30740,10,4,-3,0,37325,89,25,144,0,0,0,0,0,0,0,0,-32295,0,0,0,4482,0,31687,0
27069,-830,-8212,284,-46,9,6,30737,0,-2,-3,0,37327,98,24,144,0,0,0,0,0,0,0,0,-32295,0,0,0,4482,0,31707,0
27079,-856,-8200,276,-48,15,8,30737,0,3,-1,0,37322,89,24,144,0,0,0,0,0,0,0,0,-32295,0,0,0,4483,0,31727,0
27089,-864,-8216,268,-52,13,4,30738,-5,3,-5,0,37319,80,25,144,0,0,0,0,0,0,0,0,-32295,0,0,0,4482,0,31747,0
27099,-832,-8196,244,-52,14,7,30738,4,-2,-1,0,37318,72,25,144,0,0,0,0,0,0,0,0,-32295,0,0,0,4483,0,31767,0
27109,-870,-8196,248,-48,16,7,30738,4,2,-3,0,37322,70,25,144,0,0,0,0,0,0,0,0,-32295,0,0,0,4484,0,31787,0
27119,-864,-8194,262,-50,15,6,30738,0,-1,-4,0,37325,77,25,144,0,0,0,0,0,0,0,0,-32295,0,0,0,4483,0,31807,0
27129,-860,-8204,282,-48,12,8,30738,2,-1,-3,0,37322,79,24,144,0,0,0,0,0,0,0,0,-32295,0,0,0,4483,0,31827,0
27139,-826,-8218,280,-48,11,5,30738,0,-4,-4,0,37316,80,25,144,0,0,0,0,0,0,0,0,-32295,0,0,0,4483,0,31847,0
27149,-846,-8192,270,-55,14,5,30737,0,2,-5,0,37319,78,25,144,0,0,0,0,0,0,0,0,-32295,0,0,0,4483,0,31867,0
27159,-830,-8202,280,-50,17,2,30737,5,-2,-4,0,37324,78,25,144,0,0,0,0,0,0,0,0,-32296,0,0,0,4484,0,31888,0
27169,-844,-8192,298,-52,8,7,30737,0,-1,-6,0,37326,72,25,144,0,0,0,0,0,0,0,0,-32295,0,0,0,4483,0,31908,0
27179,-862,-8232,278,-55,7,5,30737,1,4,-3,0,37324,72,25,144,0,0,0,0,0,0,0,0,-32295,0,0,0,4484,0,31928,0
27189,-858,-8200,236,-59,13,-2,30736,-10,-7,-6,0,37312,73,25,144,0,0,0,0,0,0,0,0,-32295,0,0,0,4484,0,31948,0
27199,-876,-8058,308,-53,18,1,30737,0,6,-2,0,37312,81,25,144,0,0,0,0,0,0,0,0,-32295,0,0,0,4483,0,31968,0
27209,-876,-8200,236,-51,13,-1,30736,-8,-2,-4,0,37313,83,25,144,0,0,0,0,0,0,0,0,-32295,0,0,0,4483,0,31988,0
27219,-884,-8216,178,-46,8,-9,30737,1,6,-2,0,37317,82,25,144,0,0,0,0,0,0,0,0,-32295,0,0,0,4483,0,32008,0
27229,-870,-8124,196,-41,9,-9,30737,3,3,0,0,37313,80,25,144,0,0,0,0,0,0,0,0,-32295,0,0,0,4483,0,32028,0
27239,-858,-8248,126,-40,15,0,30735,-3,0,0,0,37312,75,25,144,0,0,0,0,0,0,0,0,-32295,0,0,0,4483,0,32048,0
27249,-802,-8260,190,-20,19,0,30733,-3,-1,0,0,37313,70,25,144,0,0,0,0,0,0,0,0,-32295,0,0,0,4482,0,32068,0
27259,-788,-8158,270,-16,14,0,30734,2,1,0,0,37318,74,25,144,0,0,0,0,0,0,0,0,-32295,0,0,0,4483,0,32088,0
27269,-898,-8314,456,-30,13,19,30733,3,5,3,0,37319,71,25,144,0,0,0,0,0,0,0,0,-32295,0,0,0,4482,0,32108,0
27279,-852,-8192,524,-48,16,9,30732,-4,-2,-3,0,37316,75,25,144,0,0,0,0,0,0,0,0,-32295,0,0,0,4482,0,32128,0
27289,-792,-8166,374,-66,20,12,30732,0,1,-2,0,37313,82,25,144,0,0,0,0,0,0,0,0,-32295,0,0,0,4481,0,32148,0
27299,-810,-8168,268,-59,17,19,30730,0,3,-2,0,37317,82,25,144,0,0,0,0,0,0,0,0,-32295,0,0,0,4482,0,32168,0
27309,-862,-8152,172,-46,8,16,30731,-5,0,-5,0,37319,75,25,144,0,0,0,0,0,0,0,0,-32295,0,0,0,4483,0,32188,0
27319,-902,-8214,132,-42,14,5,30732,6,2,-5,0,37319,77,25,144,0,0,0,0,0,0,0,0,-32295,0,0,0,4482,0,32208,0
27329,-826,-8202,180,-30,18,19,30731,0,-3,-6,0,37314,84,25,144,0,0,0,0,0,0,0,0,-32295,0,0,0,4483,0,32228,0
27339,-808,-8238,224,-21,11,18,30732,0,4,-6,0,37314,93,25,144,0,0,0,0,0,0,0,0,-32295,0,0,0,4482,0,32248,0
27349,-772,-8210,302,-22,13,17,30730,-9,2,-3,0,37311,81,25,144,0,0,0,0,0,0,0,0,-32295,0,0,0,4483,0,32268,0
27359,-862,-8188,384,-30,9,27,30733,8,6,-6,0,37317,77,25,144,0,0,0,0,0,0,0,0,-32295,0,0,0,4482,0,32288,0
27369,-936,-8174,404,-38,14,22,30732,3,1,-7,0,37319,77,25,144,0,0,0,0,0,0,0,0,-32295,0,0,0,4482,0,32308,0
27379,-910,-8194,356,-46,16,7,30733,6,-1,-4,0,37317,82,25,144,0,0,0,0,0,0,0,0,-32295,0,0,0,4483,0,32328,0
27389,-914,-8204,278,-45,12,8,30730,-7,-4,-5,0,37319,79,25,144,0,0,0,0,0,0,0,0,-32295,0,0,0,4482,0,32348,0
27399,-890,-8206,300,-47,11,11,30732,0,3,-3,0,37324,78,25,144,0,0,0,0,0,0,0,0,-32295,0,0,0,4482,0,32368,0
27409,-862,-8154,242,-50,14,-2,30731,0,0,-5,0,37326,76,25,144,0,0,0,0,0,0,0,0,-32295,0,0,0,4484,0,32388,0
27419,-872,-8188,228,-43,18,-1,30732,-3,-2,-4,0,37326,82,25,144,0,0,0,0,0,0,0,0,-32295,0,0,0,4484,0,32408,0
27429,-808,-8220,264,-37,8,9,30732,3,5,-2,0,37310,82,25,144,0,0,0,0,0,0,0,0,-32295,0,0,0,4482,0,32428,0
27439,-798,-8202,308,-37,15,8,30732,1,-1,-4,0,37306,76,25,144,0,0,0,0,0,0,0,0,-32295,0,0,0,4483,0,32448,0
27449,-810,-8220,328,-46,17,10,30733,3,-5,-4,0,37308,75,25,144,0,0,0,0,0,0,0,0,-32295,0,0,0,4482,0,32468,0
27459,-818,-8226,330,-45,22,16,30732,3,2,-2,0,37305,74,25,144,0,0,0,0,0,0,0,0,-32295,0,0,0,4482,0,32488,0
27469,-824,-8196,282,-50,17,15,30732,0,7,-6,0,37307,82,25,144,0,0,0,0,0,0,0,0,-32295,0,0,0,4483,0,32508,0
27479,-850,-8162,274,-48,15,10,30733,5,2,-6,0,37307,90,25,144,0,0,0,0,0,0,0,0,-32295,0,0,0,4483,0,32528,0
27489,-868,-8224,290,-53,15,22,30732,-1,-1,-5,0,37309,83,25,144,0,0,0,0,0,0,0,0,-32295,0,0,0,4483,0,32548,0
27499,-844,-8202,282,-47,11,19,30733,-3,1,-4,0,37311,76,25,144,0,0,0,0,0,0,0,0,-32296,0,0,0,4483,0,32568,0
27509,-854,-8188,264,-41,12,11,30734,11,0,-4,0,37315,72,25,144,0,0,0,0,0,0,0,0,-32295,0,0,0,4482,0,32588,0
27519,-846,-8242,292,-42,7,15,30732,1,1,-6,0,37313,79,24,144,0,0,0,0,0,0,0,0,-32295,0,0,0,4483,0,32608,0
27529,-924,-8164,308,-44,20,14,30733,5,-2,-3,0,37311,81,24,144,0,0,0,0,0,0,0,0,-32295,0,0,0,4483,0,32628,0
27539,-886,-8166,314,-51,19,8,30733,9,0,-4,0,37307,74,25,144,0,0,0,0,0,0,0,0,-32295,0,0,0,4483,0,32648,0
27549,-878,-8200,304,-48,13,6,30733,4,-4,-4,0,37308,78,25,144,0,0,0,0,0,0,0,0,-32295,0,0,0,4483,0,32668,0
27559,-878,-8226,322,-48,10,9,30731,-2,-3,-6,0,37309,81,24,144,0,0,0,0,0,0,0,0,-32295,0,0,0,4483,0,32688,0
27569,-866,-8162,306,-60,13,-1,30732,0,5,-5,0,37309,82,24,144,0,0,0,0,0,0,0,0,-32295,0,0,0,4483,0,32708,0
27579,-854,-8216,280,-57,14,2,30733,1,-1,-5,0,37307,87,25,144,0,0,0,0,0,0,0,0,-32295,0,0,0,4483,0,32728,0
27589,-828,-8194,280,-53,8,5,30733,-2,-4,-4,0,37309,87,25,144,0,0,0,0,0,0,0,0,-32295,0,0,0,4482,0,32748,0
27599,-854,-8200,276,-53,13,3,30733,0,5,-3,0,37309,79,25,144,0,0,0,0,0,0,0,0,-32295,0,0,0,4482,0,32768,0
27609,-908,-8212,284,-54,12,3,30732,-3,4,-5,0,37307,73,25,144,0,0,0,0,0,0,0,0,-32295,0,0,0,4483,0,32788,0
27619,-894,-8214,290,-60,14,4,30732,-7,-2,-5,0,37308,65,25,144,0,0,0,0,0,0,0,0,-32295,0,0,0,4483,0,32808,0
27629,-866,-8160,286,-57,12,-4,30731,-7,6,-3,0,37312,68,25,144,0,0,0,0,0,0,0,0,-32296,0,0,0,4483,0,32828,0
27639,-892,-8230,256,-48,18,-1,30733,-1,-1,-5,0,37314,72,25,144,0,0,0,0,0,0,0,0,-32296,0,0,0,4482,0,32848,0
27649,-910,-8196,308,-53,14,-1,30732,-4,-1,-3,0,37312,76,25,144,0,0,0,0,0,0,0,0,-32295,0,0,0,4481,0,32868,0
27659,-848,-8170,306,-55,17,-8,30732,1,1,-4,0,37312,79,25,144,0,0,0,0,0,0,0,0,-32295,0,0,0,4483,0,32888,0
27669,-826,-8238,254,-58,15,-4,30732,5,-2,-5,0,37317,74,25,144,0,0,0,0,0,0,0,0,-32295,0,0,0,4483,0,32908,0
27679,-838,-8204,258,-57,18,6,30731,0,1,-3,0,37319,79,25,144,0,0,0,0,0,0,0,0,-32295,0,0,0,4482,0,32928,0
27689,-844,-8198,282,-56,16,1,30733,12,3,-2,0,37317,72,25,144,0,0,0,0,0,0,0,0,-32295,0,0,0,4482,0,32948,0
27699,-808,-8210,286,-60,14,-3,30732,-2,0,-2,0,37313,70,25,144,0,0,0,0,0,0,0,0,-32295,0,0,0,4483,0,32968,0
27709,-822,-8200,284,-58,14,10,30732,7,-4,-2,0,37318,74,25,144,0,0,0,0,0,0,0,0,-32295,0,0,0,4482,0,32988,0
27719,-842,-8188,282,-53,14,8,30732,0,3,-3,0,37319,78,25,144,0,0,0,0,0,0,0,0,-32295,0,0,0,4483,0,33008,0
27729,-826,-8248,300,-52,15,6,30733,7,-1,-1,0,37317,90,25,144,0,0,0,0,0,0,0,0,-32295,0,0,0,4482,0,33028,0
27739,-894,-8216,272,-52,13,9,30730,-9,-4,-2,0,37312,85,25,144,0,0,0,0,0,0,0,0,-32295,0,0,0,4483,0,33048,0
27749,-834,-8182,302,-58,10,12,30732,-3,0,-4,0,37312,79,25,144,0,0,0,0,0,0,0,0,-32295,0,0,0,4482,0,33068,0
27759,-848,-8190,284,-53,15,-3,30731,-5,-2,-5,0,37316,83,25,144,0,0,0,0,0,0,0,0,-32295,0,0,0,4483,0,33088,0
27769,-862,-8222,262,-55,15,5,30731,-7,-1,-8,0,37324,90,25,144,0,0,0,0,0,0,0,0,-32295,0,0,0,4483,0,33108,0
27779,-890,-8208,276,-51,10,10,30731,-9,-2,-7,0,37322,90,24,144,0,0,0,0,0,0,0,0,-32295,0,0,0,4483,0,33128,0
27789,-868,-8204,264,-54,17,1,30733,1,2,-7,0,37321,85,24,144,0,0,0,0,0,0,0,0,-32295,0,0,0,4483,0,33148,0
27799,-858,-8228,272,-48,9,-4,30732,5,-4,-4,0,37317,72,25,144,0,0,0,0,0,0,0,0,-32295,0,0,0,4483,0,33168,0
27809,-894,-8196,290,-50,10,4,30732,2,-4,-5,0,37320,69,25,144,0,0,0,0,0,0,0,0,-32295,0,0,0,4483,0,33188,0
27819,-854,-8166,304,-52,14,1,30730,-5,0,-6,0,37319,75,25,144,0,0,0,0,0,0,0,0,-32295,0,0,0,4483,0,33208,0
27829,-824,-8222,300,-51,14,-4,30731,5,4,-2,0,37315,72,25,144,0,0,0,0,0,0,0,0,-32295,0,0,0,4483,0,33228,0
27839,-844,-8220,310,-51,15,6,30730,0,-5,-4,0,37316,81,25,144,0,0,0,0,0,0,0,0,-32295,0,0,0,4483,0,33248,0
27849,-836,-8224,272,-48,15,5,30730,-4,3,-4,0,37319,84,25,144,0,0,0,0,0,0,0,0,-32295,0,0,0,4483,0,33268,0
27859,-846,-8208,268,-51,14,3,30732,5,1,-4,0,37320,92,25,144,0,0,0,0,0,0,0,0,-32295,0,0,0,4483,0,33288,0
27869,-860,-8224,308,-53,14,7,30731,0,-1,-6,0,37319,89,25,144,0,0,0,0,0,0,0,0,-32295,0,0,0,4482,0,33308,0
27879,-844,-8194,292,-55,17,7,30731,0,2,-4,0,37323,88,25,144,0,0,0,0,0,0,0,0,-32295,0,0,0,4482,0,33328,0
27889,-858,-8204,240,-56,12,1,30730,0,2,-3,0,37325,81,25,144,0,0,0,0,0,0,0,0,-32295,0,0,0,4482,0,33348,0
27899,-888,-8222,282,-48,13,2,30731,8,0,-3,0,37327,74,25,144,0,0,0,0,0,0,0,0,-32295,0,0,0,4482,0,33368,0
27909,-848,-8188,264,-52,10,4,30732,5,-2,-5,0,37323,72,25,144,0,0,0,0,0,0,0,0,-32295,0,0,0,4483,0,33388,0
27919,-850,-8192,262,-50,14,4,30730,0,-4,-3,0,37323,78,25,144,0,0,0,0,0,0,0,0,-32295,0,0,0,4482,0,33408,0
27929,-870,-8202,278,-48,11,6,30730,0,-4,-3,0,37323,87,25,144,0,0,0,0,0,0,0,0,-32295,0,0,0,4482,0,33428,0
27939,-842,-8196,288,-44,14,5,30730,-5,-4,-2,0,37324,77,24,144,0,0,0,0,0,0,0,0,-32295,0,0,0,4483,0,33448,0
27949,-858,-8190,276,-49,20,6,30730,4,3,-3,0,37321,76,25,144,0,0,0,0,0,0,0,0,-32295,0,0,0,4482,0,33468,0
27959,-852,-8200,280,-50,11,-1,30730,-3,1,-3,0,37322,80,25,144,0,0,0,0,0,0,0,0,-32295,0,0,0,4482,0,33488,0
27969,-884,-8202,274,-54,11,2,30729,0,2,-1,0,37323,80,25,144,0,0,0,0,0,0,0,0,-32295,0,0,0,4481,0,33508,0
27979,-878,-8192,274,-47,10,1,30730,-3,1,-1,0,37327,83,25,144,0,0,0,0,0,0,0,0,-32295,0,0,0,4482,0,33528,0
27989,-850,-8244,296,-48,14,-1,30728,0,3,0,0,37328,83,25,144,0,0,0,0,0,0,0,0,-32295,0,0,0,4482,0,33548,0
27999,-856,-8206,284,-52,9,1,30728,0,1,3,0,37328,85,25,144,0,0,0,0,0,0,0,0,-32295,0,0,0,4481,0,33568,0
28009,-806,-8214,272,-53,16,-4,30726,-3,-1,4,0,37327,88,25,144,0,0,0,0,0,0,0,0,-32295,0,0,0,4481,0,33588,0
28019,-812,-8196,274,-53,15,3,30725,-2,-1,3,0,37323,81,25,144,0,0,0,0,0,0,0,0,-32295,0,0,0,4482,0,33608,0
28029,-834,-8206,284,-44,14,2,30724,-2,2,6,0,37322,78,25,144,0,0,0,0,0,0,0,0,-32295,0,0,0,4481,0,33628,0
28039,-826,-8208,266,-51,15,3,30723,2,-1,5,0,37320,71,25,144,0,0,0,0,0,0,0,0,-32295,0,0,0,4481,0,33648,0
28049,-830,-8202,292,-48,21,3,30721,2,2,5,0,37318,68,25,144,0,0,0,0,0,0,0,0,-32296,0,0,0,4482,0,33668,0
28059,-842,-8190,286,-41,18,5,30719,-7,-2,4,0,37320,62,25,144,0,0,0,0,0,0,0,0,-32296,0,0,0,4481,0,33688,0
28069,-860,-8212,282,-55,11,1,30718,-11,-1,6,0,37322,70,24,144,0,0,0,0,0,0,0,0,-32295,0,0,0,4480,0,33708,0
28079,-848,-8202,264,-52,22,-6,30716,-4,1,11,0,37321,72,24,144,0,0,0,0,0,0,0,0,-32296,0,0,0,4481,0,33728,0
28089,-858,-8208,262,-50,20,-5,30714,3,3,20,0,37321,73,25,144,0,0,0,0,0,0,0,0,-32295,0,0,0,4480,0,33748,0
28099,-862,-8210,242,-40,20,-10,30707,-12,-1,29,0,37320,72,25,144,0,0,0,0,0,0,0,0,-32295,0,0,0,4481,0,33768,0
28109,-838,-8232,274,-40,23,-21,30699,-21,-10,39,0,37323,70,25,144,0,0,0,0,0,0,0,0,-32295,0,0,0,4480,0,33788,0
28119,-878,-8186,300,-44,28,-16,30690,-8,-4,41,0,37325,73,25,144,0,0,0,0,0,0,0,0,-32295,0,0,0,4480,0,33808,0
28129,-788,-8180,302,-45,21,-5,30684,-10,6,18,0,37321,73,24,144,0,0,0,0,0,0,0,0,-32295,0,0,0,4479,0,33828,0
28139,-720,-8220,308,-47,15,5,30684,-8,16,0,0,37318,74,24,144,0,0,0,0,0,0,0,0,-32296,0,0,0,4479,0,33848,0
28149,-788,-8182,278,-47,9,18,30685,1,10,0,0,37318,68,25,144,0,0,0,0,0,0,0,0,-32295,0,0,0,4479,0,33868,0
28159,-868,-8218,308,-47,9,22,30684,0,-2,-7,0,37317,62,25,144,0,0,0,0,0,0,0,0,-32295,0,0,0,4479,0,33889,0
28169,-922,-8222,286,-48,14,6,30685,1,0,-4,0,37315,64,25,144,0,0,0,0,0,0,0,0,-32295,0,0,0,4479,0,33909,0
28179,-832,-8188,284,-45,15,1,30684,0,0,-2,0,37315,64,25,144,0,0,0,0,0,0,0,0,-32295,0,0,0,4479,0,33929,0
28189,-804,-8198,290,-43,11,11,30683,-5,1,-3,0,37313,58,25,144,0,0,0,0,0,0,0,0,-32295,0,0,0,4479,0,33949,0
28199,-856,-8200,300,-49,15,13,30683,-4,0,-4,0,37322,53,25,144,0,0,0,0,0,0,0,0,-32295,0,0,0,4479,0,33969,0
28209,-900,-8210,298,-51,18,10,30684,-5,-1,-4,0,37322,59,25,144,0,0,0,0,0,0,0,0,-32295,0,0,0,4480,0,33989,0
28219,-872,-8200,280,-51,13,6,30684,-5,-5,-5,0,37322,68,25,144,0,0,0,0,0,0,0,0,-32295,0,0,0,4480,0,34009,0
28229,-842,-8220,268,-41,14,-1,30684,1,-4,-3,0,37317,73,25,144,0,0,0,0,0,0,0,0,-32295,0,0,0,4480,0,34029,0
28239,-826,-8198,286,-52,13,2,30684,4,2,-3,0,37312,73,25,144,0,0,0,0,0,0,0,0,-32295,0,0,0,4479,0,34049,0
28249,-836,-8226,280,-47,9,6,30685,10,0,-3,0,37310,61,25,144,0,0,0,0,0,0,0,0,-32295,0,0,0,4479,0,34069,0
28259,-864,-8212,292,-51,13,1,30684,0,-6,-4,0,37312,62,25,144,0,0,0,0,0,0,0,0,-32295,0,0,0,4479,0,34089,0
28269,-820,-8190,292,-48,14,3,30683,1,2,-5,0,37313,67,25,144,0,0,0,0,0,0,0,0,-32295,0,0,0,4479,0,34109,0
28279,-862,-8182,284,-43,12,7,30684,0,-1,-2,0,37313,64,25,144,0,0,0,0,0,0,0,0,-32295,0,0,0,4480,0,34129,0
28289,-838,-8198,276,-55,16,6,30684,-6,4,-4,0,37311,62,25,144,0,0,0,0,0,0,0,0,-32295,0,0,0,4479,0,34149,0
28299,-828,-8186,270,-53,18,7,30683,-4,-3,-3,0,37314,60,24,144,0,0,0,0,0,0,0,0,-32295,0,0,0,4479,0,34169,0
28309,-826,-8232,260,-46,13,13,30683,5,1,-4,0,37321,52,25,144,0,0,0,0,0,0,0,0,-32295,0,0,0,4479,0,34189,0
28319,-854,-8204,270,-47,10,10,30682,-9,-2,-6,0,37324,52,25,144,0,0,0,0,0,0,0,0,-32296,0,0,0,4479,0,34209,0
28329,-802,-8184,262,-49,21,7,30683,0,-3,-3,0,37321,53,25,144,0,0,0,0,0,0,0,0,-32295,0,0,0,4479,0,34229,0
28339,-814,-8208,306,-51,20,15,30682,2,0,-4,0,37311,62,25,144,0,0,0,0,0,0,0,0,-32295,0,0,0,4479,0,34249,0
28349,-830,-8212,294,-50,14,15,30682,-2,-1,-5,0,37309,67,25,144,0,0,0,0,0,0,0,0,-32295,0,0,0,4479,0,34269,0
28359,-824,-8226,278,-50,15,10,30684,11,-2,-6,0,37312,63,25,144,0,0,0,0,0,0,0,0,-32295,0,0,0,4479,0,34289,0
28369,-852,-8202,284,-52,12,11,30682,-6,0,-4,0,37313,64,25,144,0,0,0,0,0,0,0,0,-32295,0,0,0,4479,0,34309,0
28379,-880,-8220,284,-53,9,16,30683,0,-1,-2,0,37312,63,25,144,0,0,0,0,0,0,0,0,-32295,0,0,0,4480,0,34329,0
28389,-870,-8146,232,-55,16,7,30683,1,1,-4,0,37309,68,25,144,0,0,0,0,0,0,0,0,-32295,0,0,0,4479,0,34349,0
28399,-862,-8188,244,-49,18,3,30683,-3,-4,-3,0,37309,65,25,144,0,0,0,0,0,0,0,0,-32295,0,0,0,4480,0,34369,0
28409,-854,-8222,268,-49,12,7,30683,-7,0,-4,0,37314,64,25,144,0,0,0,0,0,0,0,0,-32295,0,0,0,4480,0,34389,0
28419,-850,-8196,270,-47,14,7,30683,6,-5,-5,0,37315,62,25,144,0,0,0,0,0,0,0,0,-32295,0,0,0,4481,0,34409,0
28429,-852,-8202,284,-42,15,6,30684,3,-3,-2,0,37311,63,25,144,0,0,0,0,0,0,0,0,-32295,0,0,0,4479,0,34429,0
28439,-844,-8210,302,-47,9,12,30682,-5,2,-6,0,37307,59,25,144,0,0,0,0,0,0,0,0,-32295,0,0,0,4479,0,34449,0
28449,-846,-8208,304,-49,18,8,30685,7,2,-4,0,37308,54,25,144,0,0,0,0,0,0,0,0,-32295,0,0,0,4480,0,34469,0
28459,-864,-8192,320,-55,15,8,30684,2,-2,-5,0,37309,53,25,144,0,0,0,0,0,0,0,0,-32295,0,0,0,4479,0,34489,0
28469,-822,-8230,272,-50,18,12,30681,-3,3,-6,0,37308,56,25,144,0,0,0,0,0,0,0,0,-32295,0,0,0,4480,0,34509,0
28479,-838,-8208,276,-57,13,14,30684,4,-1,-4,0,37308,61,25,144,0,0,0,0,0,0,0,0,-32295,0,0,0,4480,0,34529,0
28489,-832,-8198,272,-54,18,13,30683,3,-2,-4,0,37309,66,25,144,0,0,0,0,0,0,0,0,-32295,0,0,0,4480,0,34549,0
28499,-840,-8212,290,-53,12,8,30682,-2,4,-3,0,37311,65,25,144,0,0,0,0,0,0,0,0,-32295,0,0,0,4481,0,34569,0
28509,-858,-8226,272,-48,18,10,30683,-3,-8,-3,0,37319,69,25,144,0,0,0,0,0,0,0,0,-32295,0,0,0,4479,0,34589,0
28519,-874,-8196,262,-50,16,9,30684,-3,-3,-5,0,37322,79,25,144,0,0,0,0,0,0,0,0,-32295,0,0,0,4479,0,34609,0
28529,-884,-8218,280,-49,13,4,30682,-3,-3,-3,0,37319,75,25,144,0,0,0,0,0,0,0,0,-32295,0,0,0,4480,0,34629,0
28539,-862,-8194,282,-50,15,9,30683,4,-4,-4,0,37312,68,25,144,0,0,0,0,0,0,0,0,-32295,0,0,0,4480,0,34649,0
28549,-844,-8202,270,-49,19,7,30684,4,3,-4,0,37310,55,25,144,0,0,0,0,0,0,0,0,-32295,0,0,0,4479,0,34669,0
28559,-852,-8210,292,-51,15,2,30684,1,2,-4,0,37312,55,25,144,0,0,0,0,0,0,0,0,-32295,0,0,0,4480,0,34689,0
28569,-828,-8200,276,-53,18,8,30681,0,-5,-6,0,37311,56,25,144,0,0,0,0,0,0,0,0,-32295,0,0,0,4480,0,34709,0
28579,-836,-8212,284,-52,11,4,30684,13,-1,-2,0,37310,56,25,144,0,0,0,0,0,0,0,0,-32295,0,0,0,4479,0,34729,0
28589,-832,-8238,266,-49,13,5,30683,1,1,-4,0,37312,56,25,144,0,0,0,0,0,0,0,0,-32295,0,0,0,4480,0,34749,0
28599,-826,-8208,262,-48,10,5,30682,-10,1,-4,0,37314,59,25,144,0,0,0,0,0,0,0,0,-32295,0,0,0,4480,0,34769,0
28609,-858,-8200,266,-52,13,6,30683,0,3,-6,0,37313,61,25,144,0,0,0,0,0,0,0,0,-32295,0,0,0,4479,0,34789,0
28619,-822,-8180,288,-47,12,9,30683,-2,-6,-5,0,37318,67,25,144,0,0,0,0,0,0,0,0,-32295,0,0,0,4479,0,34809,0
28629,-852,-8224,268,-48,15,8,30683,0,2,-4,0,37318,66,25,144,0,0,0,0,0,0,0,0,-32295,0,0,0,4480,0,34829,0
28639,-824,-8194,290,-49,17,7,30682,-7,3,-4,0,37319,63,25,144,0,0,0,0,0,0,0,0,-32295,0,0,0,4480,0,34849,0
28649,-824,-8202,294,-51,15,8,30683,-1,0,-4,0,37312,66,25,144,0,0,0,0,0,0,0,0,-32295,0,0,0,4480,0,34869,0
28659,-848,-8224,272,-51,14,11,30682,-9,-4,-5,0,37311,67,25,144,0,0,0,0,0,0,0,0,-32295,0,0,0,4479,0,34889,0
28669,-834,-8194,286,-50,11,13,30684,0,1,-5,0,37316,69,25,144,0,0,0,0,0,0,0,0,-32295,0,0,0,4479,0,34909,0
28679,-832,-8206,280,-53,9,11,30684,8,6,-3,0,37329,76,25,144,0,0,0,0,0,0,0,0,-32295,0,0,0,4480,0,34929,0
28689,-866,-8216,296,-51,11,8,30683,3,4,-2,0,37343,74,25,144,0,0,0,0,0,0,0,0,-32295,0,0,0,4480,0,34949,0
28699,-858,-8188,268,-49,14,8,30683,5,0,-3,0,37344,66,25,144,0,0,0,0,0,0,0,0,-32295,0,0,0,4480,0,34970,0
28709,-840,-8202,268,-47,18,7,30684,4,0,-6,0,37332,61,25,144,0,0,0,0,0,0,0,0,-32295,0,0,0,4479,0,34990,0
28719,-848,-8206,270,-47,14,8,30683,0,-3,-4,0,37327,65,25,144,0,0,0,0,0,0,0,0,-32295,0,0,0,4480,0,35010,0
28729,-856,-8202,262,-51,16,6,30683,0,1,-4,0,37321,65,25,144,0,0,0,0,0,0,0,0,-32295,0,0,0,4481,0,35029,0
28739,-870,-8190,268,-44,13,3,30682,-9,-2,-2,0,37319,69,25,144,0,0,0,0,0,0,0,0,-32295,0,0,0,4481,0,35049,0
28749,-856,-8190,290,-46,18,9,30684,-4,-1,-4,0,37313,57,25,144,0,0,0,0,0,0,0,0,-32295,0,0,0,4480,0,35070,0
28759,-840,-8200,296,-51,16,5,30683,0,-1,-6,0,37316,51,25,144,0,0,0,0,0,0,0,0,-32295,0,0,0,4480,0,35090,0
28769,-838,-8226,294,-48,17,8,30683,-3,2,-5,0,37318,56,25,144,0,0,0,0,0,0,0,0,-32295,0,0,0,4480,0,35110,0
28779,-844,-8216,308,-49,10,7,30683,5,-1,-2,0,37318,70,25,144,0,0,0,0,0,0,0,0,-32295,0,0,0,4480,0,35130,0
28789,-844,-8210,290,-51,18,11,30683,0,0,-5,0,37317,77,25,144,0,0,0,0,0,0,0,0,-32295,0,0,0,4481,0,35150,0
28799,-858,-8216,292,-50,14,9,30682,-8,5,-5,0,37316,69,25,144,0,0,0,0,0,0,0,0,-32295,0,0,0,4479,0,35170,0
28809,-830,-8200,298,-53,13,5,30683,2,3,-3,0,37317,66,25,144,0,0,0,0,0,0,0,0,-32295,0,0,0,4480,0,35190,0
28819,-846,-8200,304,-51,17,5,30683,0,-4,-2,0,37319,66,25,144,0,0,0,0,0,0,0,0,-32295,0,0,0,4480,0,35210,0
28829,-864,-8214,288,-51,12,4,30684,1,4,-4,0,37321,67,25,144,0,0,0,0,0,0,0,0,-32295,0,0,0,4479,0,35230,0
28839,-848,-8208,272,-56,16,2,30683,0,-2,-3,0,37322,58,25,144,0,0,0,0,0,0,0,0,-32295,0,0,0,4480,0,35250,0
28849,-836,-8208,262,-53,13,1,30683,-2,3,-3,0,37323,51,25,144,0,0,0,0,0,0,0,0,-32295,0,0,0,4479,0,35270,0
28859,-826,-8200,262,-46,13,0,30682,8,-3,-3,0,37321,56,25,144,0,0,0,0,0,0,0,0,-32295,0,0,0,4479,0,35290,0
28869,-848,-8248,280,-46,20,3,30682,2,3,-5,0,37322,64,25,144,0,0,0,0,0,0,0,0,-32295,0,0,0,4481,0,35310,0
28879,-848,-8178,298,-42,13,6,30683,2,2,-3,0,37319,65,25,144,0,0,0,0,0,0,0,0,-32295,0,0,0,4479,0,35330,0
28889,-822,-8226,294,-49,12,7,30682,1,4,-4,0,37320,59,25,144,0,0,0,0,0,0,0,0,-32296,0,0,0,4480,0,35350,0
28899,-858,-8192,282,-53,19,4,30683,1,3,-4,0,37323,50,25,144,0,0,0,0,0,0,0,0,-32295,0,0,0,4479,0,35370,0
28909,-852,-8206,294,-46,9,8,30683,1,-1,-4,0,37327,60,25,144,0,0,0,0,0,0,0,0,-32295,0,0,0,4480,0,35390,0
28919,-846,-8184,306,-49,12,9,30683,-1,1,-6,0,37328,66,25,144,0,0,0,0,0,0,0,0,-32295,0,0,0,4479,0,35410,0
28929,-840,-8240,264,-47,13,3,30684,4,-1,-3,0,37331,85,25,144,0,0,0,0,0,0,0,0,-32295,0,0,0,4479,0,35430,0
28939,-822,-8208,270,-52,16,3,30683,2,5,-3,0,37327,78,25,144,0,0,0,0,0,0,0,0,-32295,0,0,0,4479,0,35450,0
