state_time,accelx,accely,accelz,gyrox,gyroy,gyroz,mot_ang,mot_vel,mot_acc,mot_cur,mot_volt,batt_volt,batt_curr,temperature,status_mn,status_ex,status_re,genvar_0,genvar_1,genvar_2,genvar_3,genvar_4,genvar_5,genvar_6,genvar_7,genvar_8,genvar_9,ank_ang,ank_vel,sys_time,event flags
9742,372,-8186,1192,-54,42,13,7348,-11,-3,-1,0,37243,322,26,79,0,0,0,0,0,0,0,0,-32316,0,0,0,3841,0,6832,0
9752,386,-8214,1180,-52,40,14,7350,1,2,-2,0,37242,329,26,79,0,0,0,0,0,0,0,0,-32316,0,0,0,3841,0,9762,0
9762,400,-8220,1170,-51,43,15,7348,-5,-2,0,0,37236,330,26,79,0,0,0,0,0,0,0,0,-32316,0,0,0,3841,0,9782,0
9772,402,-8196,1226,-55,45,19,7348,1,-5,-1,0,37234,314,26,79,0,0,0,0,0,0,0,0,-32316,0,0,0,3840,0,9802,0
9782,396,-8198,1220,-61,39,22,7349,-2,-1,-1,0,37239,310,26,79,0,0,0,0,0,0,0,0,-32317,0,0,0,3841,0,9822,0
9792,408,-8196,1178,-57,43,20,7349,-1,-1,0,0,37241,317,26,79,0,0,0,0,0,0,0,0,-32316,0,0,0,3841,0,9842,0
9802,392,-8176,1182,-55,46,26,7350,9,-2,0,0,37239,328,26,79,0,0,0,0,0,0,0,0,-32316,0,0,0,3841,0,9862,0
9812,480,-8174,1156,-55,41,32,7350,0,4,1,0,37241,324,26,79,0,0,0,0,0,0,0,0,-32316,0,0,0,3842,0,9884,0
9822,416,-8204,1166,-58,40,37,7351,5,0,0,0,37244,319,26,79,0,0,0,0,0,0,0,0,-32316,0,0,0,3843,0,9906,0
9832,396,-8206,1182,-55,43,41,7349,1,-1,-2,0,37248,330,26,79,0,0,0,0,0,0,0,0,-32316,0,0,0,3842,0,9926,0
9842,404,-8170,1162,-56,44,34,7349,-5,1,0,0,37246,327,26,79,0,0,0,0,0,0,0,0,-32316,0,0,0,3843,0,9946,0
9852,390,-8200,1146,-53,41,40,7350,2,-5,-1,0,37245,322,26,79,0,0,0,0,0,0,0,0,-32316,0,0,0,3843,0,9966,0
9862,378,-8180,1152,-46,38,41,7349,0,1,2,0,37244,309,26,79,0,0,0,0,0,0,0,0,-32316,0,0,0,3844,0,9986,0
9872,344,-8200,1174,-46,36,38,7350,1,2,0,0,37244,310,26,79,0,0,0,0,0,0,0,0,-32316,0,0,0,3843,0,10006,0
9882,366,-8194,1188,-46,39,35,7350,-3,1,-2,0,37242,317,26,79,0,0,0,0,0,0,0,0,-32316,0,0,0,3844,0,10026,0
9892,342,-8214,1226,-50,45,25,7349,2,-1,0,0,37243,318,26,79,0,0,0,0,0,0,0,0,-32316,0,0,0,3844,0,10046,0
9902,356,-8188,1222,-52,40,25,7349,6,3,0,0,37246,307,26,79,0,0,0,0,0,0,0,0,-32316,0,0,0,3844,0,10066,0
9912,382,-8206,1144,-56,36,24,7349,0,2,1,0,37247,308,26,79,0,0,0,0,0,0,0,0,-32316,0,0,0,3844,0,10086,0
9922,398,-8182,1144,-53,38,23,7349,1,-4,0,0,37245,317,26,79,0,0,0,0,0,0,0,0,-32316,0,0,0,3844,0,10106,0
9932,404,-8186,1152,-46,35,29,7349,0,0,-3,0,37246,318,26,79,0,0,0,0,0,0,0,0,-32316,0,0,0,3843,0,10126,0
9942,396,-8182,1174,-48,38,26,7350,8,-1,-2,0,37248,315,26,79,0,0,0,0,0,0,0,0,-32316,0,0,0,3845,0,10146,0
9952,386,-8196,1172,-39,42,27,7348,-2,-4,0,0,37248,307,26,79,0,0,0,0,0,0,0,0,-32316,0,0,0,3845,0,10166,0
9962,372,-8192,1170,-51,40,27,7349,5,3,0,0,37250,310,26,79,0,0,0,0,0,0,0,0,-32316,0,0,0,3845,0,10186,0
9972,368,-8196,1172,-46,41,28,7350,8,-1,0,0,37246,312,26,79,0,0,0,0,0,0,0,0,-32316,0,0,0,3844,0,10206,0
9982,380,-8200,1150,-47,47,27,7348,3,0,0,0,37245,303,26,79,0,0,0,0,0,0,0,0,-32316,0,0,0,3845,0,10226,0
9992,380,-8164,1162,-50,36,28,7349,0,-1,0,0,37245,296,26,79,0,0,0,0,0,0,0,0,-32316,0,0,0,3846,0,10246,0
10002,334,-8200,1150,-44,44,23,7350,8,-3,-1,0,37244,304,26,79,0,0,0,0,0,0,0,0,-32316,0,0,0,3845,0,10266,0
10012,334,-8188,1152,-43,46,17,7349,-5,-1,1,0,37244,311,26,79,0,0,0,0,0,0,0,0,-32316,0,0,0,3845,0,10287,0
10022,374,-8194,1158,-44,38,13,7349,-5,-5,-2,0,37243,315,26,79,0,0,0,0,0,0,0,0,-32316,0,0,0,3845,0,10307,0
10032,382,-8208,1184,-38,40,12,7349,-1,-4,0,0,37241,310,26,79,0,0,0,0,0,0,0,0,-32316,0,0,0,3845,0,10327,0
10042,382,-8204,1206,-43,44,16,7350,6,2,0,0,37242,312,26,79,0,0,0,0,0,0,0,0,-32316,0,0,0,3845,0,10347,0
10052,388,-8172,1228,-43,45,14,7350,8,3,-1,0,37241,321,26,79,0,0,0,0,0,0,0,0,-32316,0,0,0,3844,0,10367,0
10062,390,-8186,1204,-41,42,10,7349,-1,0,1,0,37242,322,26,79,0,0,0,0,0,0,0,0,-32316,0,0,0,3845,0,10387,0
10072,410,-8218,1196,-45,44,18,7349,4,1,-1,0,37240,313,26,79,0,0,0,0,0,0,0,0,-32316,0,0,0,3845,0,10407,0
10082,394,-8176,1220,-51,36,14,7349,-1,4,0,0,37238,304,26,79,0,0,0,0,0,0,0,0,-32316,0,0,0,3845,0,10427,0
10092,420,-8194,1202,-49,45,23,7349,2,0,0,0,37239,305,26,79,0,0,0,0,0,0,0,0,-32316,0,0,0,3845,0,10447,0
10102,400,-8182,1192,-52,42,19,7349,-4,3,0,0,37240,314,26,79,0,0,0,0,0,0,0,0,-32316,0,0,0,3845,0,10467,0
10112,396,-8214,1188,-51,38,22,7347,0,-3,1,0,37239,314,26,79,0,0,0,0,0,0,0,0,-32316,0,0,0,3845,0,10487,0
10122,406,-8200,1176,-49,43,21,7349,-6,-2,-1,0,37236,311,26,79,0,0,0,0,0,0,0,0,-32316,0,0,0,3844,0,10507,0
10132,370,-8190,1198,-55,38,20,7350,2,0,0,0,37233,309,26,79,0,0,0,0,0,0,0,0,-32316,0,0,0,3845,0,10527,0
10142,360,-8176,1194,-45,38,18,7349,-7,-4,0,0,37236,308,26,79,0,0,0,0,0,0,0,0,-32316,0,0,0,3846,0,10547,0
10152,356,-8202,1186,-54,39,17,7349,-7,0,-3,0,37245,309,26,79,0,0,0,0,0,0,0,0,-32317,0,0,0,3845,0,10567,0
10162,356,-8176,1202,-49,39,16,7349,-1,-2,0,0,37244,305,26,79,0,0,0,0,0,0,0,0,-32316,0,0,0,3847,0,10587,0
10172,370,-8192,1198,-50,41,16,7348,-3,-5,-1,0,37242,297,26,79,0,0,0,0,0,0,0,0,-32316,0,0,0,3845,0,10607,0
10182,378,-8198,1178,-56,40,17,7348,0,-2,0,0,37237,295,26,79,0,0,0,0,0,0,0,0,-32317,0,0,0,3844,0,10627,0
10192,366,-8182,1182,-55,40,21,7348,-1,-4,0,0,37237,296,26,79,0,0,0,0,0,0,0,0,-32317,0,0,0,3846,0,10646,0
10202,352,-8204,1184,-48,38,19,7350,9,0,-2,0,37240,302,26,79,0,0,0,0,0,0,0,0,-32317,0,0,0,3846,0,10666,0
10212,338,-8166,1176,-49,43,17,7349,-1,4,0,0,37237,295,26,79,0,0,0,0,0,0,0,0,-32316,0,0,0,3845,0,10686,0
10222,382,-8214,1188,-50,41,13,7349,-1,-3,0,0,37234,294,26,79,0,0,0,0,0,0,0,0,-32316,0,0,0,3845,0,10705,0
10232,400,-8178,1204,-51,38,14,7349,-6,-1,0,0,37234,297,26,79,0,0,0,0,0,0,0,0,-32316,0,0,0,3845,0,10725,0
10242,406,-8182,1180,-45,49,14,7347,-5,-4,0,0,37237,296,26,79,0,0,0,0,0,0,0,0,-32316,0,0,0,3845,0,10745,0
10252,412,-8208,1170,-51,42,13,7347,-7,0,0,0,37239,298,26,79,0,0,0,0,0,0,0,0,-32316,0,0,0,3845,0,10764,0
10262,410,-8184,1190,-50,41,19,7350,9,-2,-1,0,37244,305,26,79,0,0,0,0,0,0,0,0,-32316,0,0,0,3846,0,10785,0
10272,410,-8180,1196,-53,46,19,7349,1,-2,-1,0,37243,302,26,79,0,0,0,0,0,0,0,0,-32317,0,0,0,3845,0,10805,0
10282,386,-8206,1210,-51,41,21,7350,3,-1,0,0,37243,299,26,79,0,0,0,0,0,0,0,0,-32316,0,0,0,3846,0,10819,0
10292,396,-8210,1222,-54,38,27,7349,2,2,0,0,37236,285,26,79,0,0,0,0,0,0,0,0,-32316,0,0,0,3845,0,10836,0
10302,434,-8192,1176,-59,32,35,7350,8,-5,0,0,37234,285,26,79,0,0,0,0,0,0,0,0,-32316,0,0,0,3847,0,10855,0
10312,372,-8168,1178,-56,38,35,7350,0,-3,0,0,37232,288,26,79,0,0,0,0,0,0,0,0,-32316,0,0,0,3846,0,10873,0
10322,360,-8206,1160,-55,41,34,7348,0,-2,-1,0,37232,290,26,79,0,0,0,0,0,0,0,0,-32316,0,0,0,3848,0,10893,0
10332,348,-8172,1220,-60,36,27,7349,-1,-5,-1,0,37233,286,26,79,0,0,0,0,0,0,0,0,-32316,0,0,0,3847,0,10911,0
10342,338,-8176,1198,-58,47,24,7350,-5,0,2,0,37236,282,26,79,0,0,0,0,0,0,0,0,-32316,0,0,0,3847,0,10928,0
10352,380,-8196,1192,-58,40,25,7348,-6,-1,-1,0,37240,285,26,79,0,0,0,0,0,0,0,0,-32317,0,0,0,3847,0,10948,0
10362,388,-8198,1168,-56,48,22,7349,-5,-3,0,0,37240,289,26,79,0,0,0,0,0,0,0,0,-32316,0,0,0,3847,0,10966,0
10372,380,-8212,1146,-55,44,16,7349,5,3,0,0,37241,287,26,79,0,0,0,0,0,0,0,0,-32316,0,0,0,3847,0,10981,0
10382,390,-8194,1158,-54,44,16,7349,-1,2,0,0,37240,288,26,79,0,0,0,0,0,0,0,0,-32316,0,0,0,3847,0,10993,0
10392,384,-8182,1202,-53,43,17,7348,-9,-2,1,0,37239,287,26,79,0,0,0,0,0,0,0,0,-32316,0,0,0,3847,0,11008,0
10402,376,-8204,1166,-52,39,23,7349,-3,-2,0,0,37236,292,26,79,0,0,0,0,0,0,0,0,-32316,0,0,0,3847,0,11022,0
10412,392,-8172,1176,-58,41,23,7349,-1,-1,0,0,37233,292,26,79,0,0,0,0,0,0,0,0,-32316,0,0,0,3847,0,11033,0
10422,358,-8174,1198,-56,42,17,7349,-7,2,0,0,37230,292,26,79,0,0,0,0,0,0,0,0,-32316,0,0,0,3848,0,11050,0
10432,320,-8208,1158,-56,44,13,7349,3,-1,-3,0,37227,289,26,79,0,0,0,0,0,0,0,0,-32316,0,0,0,3847,0,11059,0
10442,342,-8196,1138,-48,42,4,7349,-1,7,0,0,37228,289,26,79,0,0,0,0,0,0,0,0,-32316,0,0,0,3848,0,11072,0
10452,352,-8176,1140,-50,41,6,7349,1,1,0,0,37231,295,26,79,0,0,0,0,0,0,0,0,-32316,0,0,0,3847,0,11087,0
10462,376,-8224,1114,-49,40,3,7349,3,6,-1,0,37231,294,26,79,0,0,0,0,0,0,0,0,-32316,0,0,0,3847,0,11102,0
10472,366,-8186,1160,-41,38,8,7349,0,-1,1,0,37236,295,26,79,0,0,0,0,0,0,0,0,-32316,0,0,0,3847,0,11115,0
10482,386,-8168,1188,-40,41,10,7350,0,0,-1,0,37237,287,26,79,0,0,0,0,0,0,0,0,-32316,0,0,0,3847,0,11129,0
10492,374,-8294,1176,-46,38,8,7349,-1,2,0,0,37240,294,26,79,0,0,0,0,0,0,0,0,-32316,0,0,0,3847,0,11143,0
10502,390,-7886,1290,-40,38,9,7348,-9,-4,-1,0,37236,293,26,79,0,0,0,0,0,0,0,0,-32316,0,0,0,3847,0,11158,0
10512,422,-8004,1314,-44,39,16,7349,2,-1,0,0,37233,292,26,79,0,0,0,0,0,0,0,0,-32316,0,0,0,3848,0,11166,0
10522,314,-8290,1040,-67,47,24,7349,2,1,0,0,37235,287,26,79,0,0,0,0,0,0,0,0,-32316,0,0,0,3847,0,11175,0
10532,366,-8440,1010,-38,36,11,7349,1,-1,-2,0,37237,292,26,79,0,0,0,0,0,0,0,0,-32316,0,0,0,3847,0,11183,0
10542,380,-8208,1176,-24,33,21,7348,-2,0,0,0,37236,290,26,79,0,0,0,0,0,0,0,0,-32316,0,0,0,3847,0,11190,0
10552,356,-8512,1318,-40,42,32,7350,0,2,0,0,37235,291,26,79,0,0,0,0,0,0,0,0,-32316,0,0,0,3847,0,11207,0
10562,370,-8066,1258,-45,38,21,7349,3,0,-1,0,37235,292,26,79,0,0,0,0,0,0,0,0,-32316,0,0,0,3847,0,11224,0
10572,398,-7934,1114,-38,43,5,7347,-1,-2,1,0,37243,301,26,79,0,0,0,0,0,0,0,0,-32316,0,0,0,3847,0,11242,0
10582,292,-8200,1118,-33,37,23,7350,6,5,-2,0,37243,305,26,79,0,0,0,0,0,0,0,0,-32316,0,0,0,3848,0,11255,0
10592,388,-8096,1224,-27,33,-15,7350,-3,-1,-1,0,37241,298,26,79,0,0,0,0,0,0,0,0,-32316,0,0,0,3847,0,11270,0
10602,320,-8110,1276,-26,30,-18,7348,-1,-10,0,0,37237,289,26,79,0,0,0,0,0,0,0,0,-32316,0,0,0,3847,0,11284,0
10612,320,-8108,1280,-28,31,1,7349,0,5,0,0,37239,289,26,79,0,0,0,0,0,0,0,0,-32316,0,0,0,3846,0,11297,0
10622,276,-8506,1086,-43,34,-6,7350,2,5,0,0,37239,292,26,79,0,0,0,0,0,0,0,0,-32316,0,0,0,3845,0,11309,0
10632,354,-8388,1148,-29,40,-40,7349,-3,-2,-2,0,37237,290,26,79,0,0,0,0,0,0,0,0,-32316,0,0,0,3845,0,11323,0
10642,280,-8084,1144,-30,53,-23,7349,0,-3,0,0,37238,295,26,79,0,0,0,0,0,0,0,0,-32316,0,0,0,3845,0,11342,0
10652,508,-8378,1154,-36,47,-17,7351,12,7,0,0,37242,289,26,79,0,0,0,0,0,0,0,0,-32316,0,0,0,3845,0,11362,0
10662,540,-8110,1244,-28,43,-35,7348,-1,-5,0,0,37245,290,26,79,0,0,0,0,0,0,0,0,-32316,0,0,0,3843,0,11382,0
10672,434,-7950,1264,-35,47,-6,7348,1,-6,0,0,37247,300,26,79,0,0,0,0,0,0,0,0,-32316,0,0,0,3844,0,11402,0
10682,378,-8330,1324,-51,36,11,7348,-1,-1,-2,0,37247,299,26,79,0,0,0,0,0,0,0,0,-32317,0,0,0,3844,0,11422,0
10692,578,-8190,1288,-54,42,-19,7349,5,0,0,0,37249,299,26,79,0,0,0,0,0,0,0,0,-32316,0,0,0,3842,0,11442,0
10702,340,-8248,1254,-58,44,-11,7349,1,3,0,0,37260,298,26,79,0,0,0,0,0,0,0,0,-32316,0,0,0,3844,0,11462,0
10712,438,-8084,1246,-64,35,31,7348,3,-3,0,0,37265,296,26,79,0,0,0,0,0,0,0,0,-32316,0,0,0,3842,0,11482,0
10722,432,-8324,1198,-67,36,14,7349,2,6,0,0,37268,295,26,79,0,0,0,0,0,0,0,0,-32316,0,0,0,3842,0,11502,0
10732,336,-8216,1190,-77,44,15,7348,-6,3,-3,0,37260,287,26,79,0,0,0,0,0,0,0,0,-32316,0,0,0,3842,0,11522,0
10742,302,-8166,1190,-75,39,38,7349,2,-3,0,0,37254,286,26,79,0,0,0,0,0,0,0,0,-32316,0,0,0,3842,0,11542,0
10752,380,-8236,1164,-69,35,9,7349,1,-2,1,0,37248,295,26,79,0,0,0,0,0,0,0,0,-32316,0,0,0,3842,0,11562,0
10762,354,-8174,1222,-57,35,-9,7350,5,-2,-1,0,37247,294,26,79,0,0,0,0,0,0,0,0,-32317,0,0,0,3842,0,11582,0
10772,394,-8152,1160,-69,38,17,7350,2,5,0,0,37244,289,26,79,0,0,0,0,0,0,0,0,-32317,0,0,0,3844,0,11601,0
10782,416,-8252,1160,-74,36,14,7349,-7,-2,2,0,37248,279,26,79,0,0,0,0,0,0,0,0,-32316,0,0,0,3842,0,11621,0
10792,466,-8112,1146,-52,41,-10,7348,-1,-3,0,0,37252,283,26,79,0,0,0,0,0,0,0,0,-32316,0,0,0,3842,0,11641,0
10802,390,-8250,1148,-54,52,11,7350,-2,5,0,0,37251,286,26,79,0,0,0,0,0,0,0,0,-32316,0,0,0,3842,0,11662,0
10812,492,-8196,1216,-61,38,32,7349,5,-3,-1,0,37244,284,26,79,0,0,0,0,0,0,0,0,-32316,0,0,0,3844,0,11681,0
10822,492,-8166,1282,-53,35,20,7349,-6,-1,0,0,37242,289,26,79,0,0,0,0,0,0,0,0,-32316,0,0,0,3842,0,11701,0
10832,398,-8110,1206,-70,35,50,7348,-7,-6,0,0,37248,288,26,79,0,0,0,0,0,0,0,0,-32316,0,0,0,3842,0,11721,0
10842,432,-8212,1188,-71,43,59,7349,3,-2,0,0,37251,289,26,79,0,0,0,0,0,0,0,0,-32316,0,0,0,3843,0,11741,0
10852,426,-8168,1184,-69,46,44,7349,-1,1,0,0,37246,284,26,79,0,0,0,0,0,0,0,0,-32316,0,0,0,3844,0,11762,0
10862,396,-8168,1212,-67,49,52,7350,8,-1,1,0,37247,288,26,79,0,0,0,0,0,0,0,0,-32317,0,0,0,3843,0,11781,0
10872,386,-8226,1116,-72,41,74,7348,-6,-2,0,0,37249,288,26,79,0,0,0,0,0,0,0,0,-32317,0,0,0,3845,0,11801,0
10882,514,-8164,1186,-56,36,58,7348,-1,-4,0,0,37256,292,26,79,0,0,0,0,0,0,0,0,-32316,0,0,0,3845,0,11821,0
10892,250,-8176,1204,-64,45,58,7350,9,-1,-1,0,37253,295,26,79,0,0,0,0,0,0,0,0,-32316,0,0,0,3846,0,11841,0
10902,316,-8160,1152,-67,43,59,7350,6,-1,0,0,37253,296,26,79,0,0,0,0,0,0,0,0,-32316,0,0,0,3847,0,11862,0
10912,358,-8208,1112,-54,32,39,7349,0,1,1,0,37252,293,26,79,0,0,0,0,0,0,0,0,-32316,0,0,0,3847,0,11881,0
10922,338,-8136,1132,-48,35,32,7349,0,4,-1,0,37252,283,26,79,0,0,0,0,0,0,0,0,-32316,0,0,0,3847,0,11901,0
10932,210,-8154,1140,-45,38,34,7350,0,2,-1,0,37252,280,26,79,0,0,0,0,0,0,0,0,-32316,0,0,0,3847,0,11921,0
10942,358,-8174,1080,-40,39,19,7349,0,2,-1,0,37249,284,26,79,0,0,0,0,0,0,0,0,-32316,0,0,0,3847,0,11942,0
10952,232,-8176,1110,-27,33,6,7349,1,-2,0,0,37249,286,26,79,0,0,0,0,0,0,0,0,-32316,0,0,0,3847,0,11962,0
10962,278,-8166,1134,-28,36,4,7348,-3,0,0,0,37251,283,26,79,0,0,0,0,0,0,0,0,-32317,0,0,0,3847,0,11982,0
10972,360,-8262,1206,-23,37,-6,7349,5,-2,-1,0,37253,286,26,79,0,0,0,0,0,0,0,0,-32317,0,0,0,3848,0,12002,0
10982,402,-8220,1260,-18,34,-20,7348,-9,-3,-2,0,37250,287,26,79,0,0,0,0,0,0,0,0,-32316,0,0,0,3848,0,12022,0
10992,372,-8136,1232,-31,40,-7,7349,3,-2,-1,0,37252,286,26,79,0,0,0,0,0,0,0,0,-32316,0,0,0,3846,0,12042,0
11002,436,-8174,1212,-32,35,-5,7349,-6,0,0,0,37252,272,26,79,0,0,0,0,0,0,0,0,-32316,0,0,0,3847,0,12062,0
11012,420,-8274,1292,-34,40,-16,7350,-8,1,1,0,37256,275,26,79,0,0,0,0,0,0,0,0,-32316,0,0,0,3846,0,12083,0
11022,360,-8172,1260,-48,42,0,7350,6,-2,0,0,37251,276,27,79,0,0,0,0,0,0,0,0,-32316,0,0,0,3846,0,12103,0
11032,396,-8186,1194,-44,40,5,7348,-5,2,-2,0,37251,281,27,79,0,0,0,0,0,0,0,0,-32316,0,0,0,3845,0,12123,0
11042,442,-8194,1180,-51,42,-5,7348,-2,-4,0,0,37251,287,26,79,0,0,0,0,0,0,0,0,-32316,0,0,0,3846,0,12143,0
11052,352,-8142,1158,-51,47,6,7348,0,-3,0,0,37256,297,27,79,0,0,0,0,0,0,0,0,-32316,0,0,0,3845,0,12163,0
11062,352,-8182,1150,-51,39,15,7349,0,-2,-1,0,37257,298,26,79,0,0,0,0,0,0,0,0,-32316,0,0,0,3845,0,12183,0
11072,456,-8214,1188,-45,39,0,7349,2,-1,0,0,37253,290,26,79,0,0,0,0,0,0,0,0,-32316,0,0,0,3845,0,12203,0
11082,442,-8162,1210,-47,38,7,7348,-7,-5,0,0,37247,292,26,79,0,0,0,0,0,0,0,0,-32316,0,0,0,3845,0,12223,0
11092,388,-8192,1206,-50,40,21,7348,-9,-1,-1,0,37247,286,26,79,0,0,0,0,0,0,0,0,-32316,0,0,0,3845,0,12243,0
11102,374,-8210,1248,-51,41,19,7349,5,0,-1,0,37249,288,26,79,0,0,0,0,0,0,0,0,-32316,0,0,0,3845,0,12263,0
11112,412,-8184,1250,-53,42,9,7349,-8,2,1,0,37244,289,26,79,0,0,0,0,0,0,0,0,-32316,0,0,0,3845,0,12283,0
11122,386,-8174,1212,-65,34,27,7350,13,-1,-1,0,37240,288,26,79,0,0,0,0,0,0,0,0,-32316,0,0,0,3845,0,12303,0
11132,356,-8172,1242,-59,37,13,7349,-7,4,0,0,37241,284,26,79,0,0,0,0,0,0,0,0,-32316,0,0,0,3845,0,12323,0
11142,316,-8198,1218,-58,35,7,7350,3,-1,-1,0,37246,278,26,79,0,0,0,0,0,0,0,0,-32316,0,0,0,3845,0,12343,0
11152,336,-8158,1120,-63,44,18,7350,0,3,0,0,37245,280,26,79,0,0,0,0,0,0,0,0,-32316,0,0,0,3845,0,12363,0
11162,374,-8210,1112,-57,40,16,7349,4,-4,0,0,37243,281,26,79,0,0,0,0,0,0,0,0,-32316,0,0,0,3846,0,12383,0
11172,370,-8224,1148,-48,37,-5,7350,0,5,-1,0,37242,281,26,79,0,0,0,0,0,0,0,0,-32316,0,0,0,3846,0,12403,0
11182,352,-8186,1146,-45,42,2,7348,8,-3,0,0,37243,277,26,79,0,0,0,0,0,0,0,0,-32316,0,0,0,3845,0,12423,0
11192,400,-8218,1174,-44,38,2,7349,0,1,-2,0,37245,283,26,79,0,0,0,0,0,0,0,0,-32316,0,0,0,3845,0,12443,0
11202,444,-8238,1178,-42,41,-5,7349,4,-5,1,0,37244,285,26,79,0,0,0,0,0,0,0,0,-32316,0,0,0,3845,0,12463,0
11212,370,-8194,1194,-40,41,7,7349,2,-3,2,0,37242,288,26,79,0,0,0,0,0,0,0,0,-32316,0,0,0,3844,0,12483,0
11222,432,-8200,1250,-46,40,20,7349,4,3,-1,0,37240,278,26,79,0,0,0,0,0,0,0,0,-32316,0,0,0,3845,0,12503,0
11232,428,-8196,1260,-48,40,13,7349,-3,0,0,0,37236,283,26,79,0,0,0,0,0,0,0,0,-32316,0,0,0,3844,0,12523,0
11242,384,-8188,1240,-61,40,13,7350,0,0,-3,0,37234,289,26,79,0,0,0,0,0,0,0,0,-32316,0,0,0,3845,0,12543,0
11252,366,-8140,1172,-57,39,23,7349,0,0,-2,0,37233,290,26,79,0,0,0,0,0,0,0,0,-32316,0,0,0,3844,0,12563,0
11262,396,-8224,1182,-56,44,12,7350,1,2,-2,0,37231,287,26,79,0,0,0,0,0,0,0,0,-32316,0,0,0,3845,0,12583,0
11272,372,-8164,1202,-63,40,15,7349,3,-5,-2,0,37227,289,26,79,0,0,0,0,0,0,0,0,-32316,0,0,0,3845,0,12603,0
11282,358,-8148,1164,-61,36,16,7348,-2,3,-3,0,37218,300,26,79,0,0,0,0,0,0,0,0,-32316,0,0,0,3845,0,12623,0
11292,376,-8246,1172,-51,42,6,7349,3,3,0,0,37223,292,26,79,0,0,0,0,0,0,0,0,-32316,0,0,0,3845,0,12643,0
11302,386,-8192,1186,-45,39,3,7350,3,-2,0,0,37234,281,26,79,0,0,0,0,0,0,0,0,-32316,0,0,0,3845,0,12663,0
11312,382,-8128,1160,-50,35,16,7348,-6,1,0,0,37226,294,26,79,0,0,0,0,0,0,0,0,-32316,0,0,0,3845,0,12683,0
11322,434,-8208,1180,-53,37,13,7350,4,1,-1,0,37217,300,26,79,0,0,0,0,0,0,0,0,-32316,0,0,0,3844,0,12703,0
11332,378,-8160,1222,-50,38,4,7349,1,-1,0,0,37199,311,26,79,0,0,0,0,0,0,0,0,-32316,0,0,0,3843,0,12720,0
11342,344,-8154,1214,-59,41,11,7350,-1,-2,0,0,37200,309,26,79,0,0,0,0,0,0,0,0,-32316,0,0,0,3845,0,12740,0
11352,412,-8186,1204,-57,36,12,7348,0,-5,0,0,37204,313,26,79,0,0,0,0,0,0,0,0,-32317,0,0,0,3844,0,12759,0
11362,396,-8200,1210,-54,39,3,7349,1,3,-1,0,37205,319,26,79,0,0,0,0,0,0,0,0,-32316,0,0,0,3844,0,12779,0
11372,334,-8158,1196,-64,45,14,7349,3,0,0,0,37204,322,26,79,0,0,0,0,0,0,0,0,-32316,0,0,0,3843,0,12797,0
11382,368,-8190,1178,-59,39,17,7349,-2,1,0,0,37206,313,26,79,0,0,0,0,0,0,0,0,-32316,0,0,0,3844,0,12815,0
11392,440,-8194,1162,-55,44,3,7348,1,-2,-1,0,37208,307,26,79,0,0,0,0,0,0,0,0,-32316,0,0,0,3844,0,12832,0
11402,324,-8202,1170,-58,49,13,7350,0,4,0,0,37205,308,26,79,0,0,0,0,0,0,0,0,-32316,0,0,0,3845,0,12851,0
11412,408,-8180,1194,-55,41,17,7350,5,-2,0,0,37204,326,26,79,0,0,0,0,0,0,0,0,-32316,0,0,0,3842,0,12870,0
11422,454,-8242,1194,-59,35,15,7349,1,1,-1,0,37200,332,26,79,0,0,0,0,0,0,0,0,-32317,0,0,0,3844,0,12889,0
11432,376,-8172,1210,-57,35,24,7350,8,3,-1,0,37205,330,26,79,0,0,0,0,0,0,0,0,-32316,0,0,0,3842,0,12909,0
11442,374,-8148,1238,-62,43,31,7349,-1,-2,0,0,37201,324,26,79,0,0,0,0,0,0,0,0,-32316,0,0,0,3842,0,12928,0
11452,392,-8216,1194,-55,39,13,7350,1,1,0,0,37197,326,26,79,0,0,0,0,0,0,0,0,-32316,0,0,0,3845,0,12948,0
11462,386,-8200,1210,-65,41,21,7350,4,1,0,0,37195,330,26,79,0,0,0,0,0,0,0,0,-32316,0,0,0,3842,0,12968,0
11472,348,-8170,1170,-63,42,27,7349,0,-2,0,0,37199,335,26,79,0,0,0,0,0,0,0,0,-32316,0,0,0,3844,0,12987,0
11482,346,-8208,1162,-66,36,16,7348,0,1,-1,0,37201,330,26,79,0,0,0,0,0,0,0,0,-32316,0,0,0,3845,0,13007,0
11492,404,-8206,1150,-66,38,11,7348,-5,-2,0,0,37199,330,26,79,0,0,0,0,0,0,0,0,-32316,0,0,0,3843,0,13026,0
11502,388,-8148,1118,-59,45,24,7349,5,0,0,0,37201,332,26,79,0,0,0,0,0,0,0,0,-32316,0,0,0,3844,0,13045,0
11512,392,-8200,1136,-53,32,17,7349,0,4,-1,0,37210,325,26,79,0,0,0,0,0,0,0,0,-32316,0,0,0,3844,0,13066,0
11522,354,-8194,1188,-52,38,8,7348,0,0,1,0,37212,327,26,79,0,0,0,0,0,0,0,0,-32316,0,0,0,3843,0,13086,0
11532,334,-8182,1186,-54,37,19,7348,-12,-7,0,0,37209,332,26,79,0,0,0,0,0,0,0,0,-32317,0,0,0,3843,0,13106,0
11542,344,-8200,1190,-52,37,9,7349,7,-7,-1,0,37201,330,26,79,0,0,0,0,0,0,0,0,-32316,0,0,0,3844,0,13123,0
11552,328,-8190,1170,-51,41,-4,7349,-3,-2,0,0,37203,330,26,79,0,0,0,0,0,0,0,0,-32316,0,0,0,3845,0,13143,0
11562,336,-8134,1134,-51,35,1,7350,7,0,0,0,37203,334,26,79,0,0,0,0,0,0,0,0,-32316,0,0,0,3842,0,13163,0
11572,374,-8204,1164,-47,39,2,7349,12,2,0,0,37204,337,26,79,0,0,0,0,0,0,0,0,-32316,0,0,0,3843,0,13183,0
11582,408,-8192,1206,-46,36,-9,7350,2,4,0,0,37203,326,26,79,0,0,0,0,0,0,0,0,-32316,0,0,0,3843,0,13203,0
11592,360,-8184,1182,-48,48,-6,7349,-2,0,1,0,37203,324,26,79,0,0,0,0,0,0,0,0,-32316,0,0,0,3842,0,13223,0
11602,432,-8192,1166,-50,46,0,7350,1,1,0,0,37207,337,26,79,0,0,0,0,0,0,0,0,-32316,0,0,0,3843,0,13243,0
11612,476,-8218,1234,-52,37,1,7348,-7,0,0,0,37208,346,26,79,0,0,0,0,0,0,0,0,-32316,0,0,0,3842,0,13263,0
11622,384,-8170,1244,-55,42,9,7349,-5,-3,0,0,37213,335,26,79,0,0,0,0,0,0,0,0,-32316,0,0,0,3842,0,13283,0
11632,408,-8192,1206,-60,42,15,7350,8,-2,-1,0,37211,323,26,79,0,0,0,0,0,0,0,0,-32316,0,0,0,3844,0,13303,0
11642,400,-8224,1170,-57,33,16,7349,0,0,0,0,37217,315,26,79,0,0,0,0,0,0,0,0,-32316,0,0,0,3844,0,13323,0
11652,390,-8166,1132,-55,43,17,7350,0,4,0,0,37216,322,26,79,0,0,0,0,0,0,0,0,-32316,0,0,0,3842,0,13343,0
11662,394,-8170,1158,-53,35,24,7349,0,-2,-1,0,37215,324,26,79,0,0,0,0,0,0,0,0,-32316,0,0,0,3844,0,13363,0
11672,368,-8208,1192,-52,36,13,7349,-1,-1,0,0,37215,326,26,79,0,0,0,0,0,0,0,0,-32316,0,0,0,3842,0,13383,0
11682,346,-8164,1186,-49,37,9,7349,5,-2,0,0,37215,323,26,79,0,0,0,0,0,0,0,0,-32316,0,0,0,3842,0,13403,0
11692,360,-8178,1152,-52,34,13,7350,0,5,-1,0,37218,335,26,79,0,0,0,0,0,0,0,0,-32316,0,0,0,3842,0,13423,0
11702,386,-8188,1128,-48,41,-1,7349,0,-5,1,0,37217,351,26,79,0,0,0,0,0,0,0,0,-32316,0,0,0,3842,0,13443,0
11712,380,-8164,1190,-46,41,-8,7350,3,7,2,0,37214,344,26,79,0,0,0,0,0,0,0,0,-32316,0,0,0,3842,0,13463,0
11722,414,-8174,1216,-46,41,1,7349,2,2,-3,0,37221,339,26,79,0,0,0,0,0,0,0,0,-32316,0,0,0,3841,0,13483,0
11732,498,-8198,1226,-45,43,6,7350,1,8,-1,0,37222,330,26,79,0,0,0,0,0,0,0,0,-32316,0,0,0,3843,0,13503,0
11742,454,-8186,1224,-49,44,7,7349,-5,1,0,0,37221,328,26,79,0,0,0,0,0,0,0,0,-32316,0,0,0,3842,0,13523,0
11752,416,-8176,1216,-58,37,22,7349,3,-1,0,0,37209,333,26,79,0,0,0,0,0,0,0,0,-32316,0,0,0,3842,0,13543,0
11762,430,-8176,1204,-58,45,23,7348,1,-3,-1,0,37209,327,26,79,0,0,0,0,0,0,0,0,-32316,0,0,0,3841,0,13563,0
11772,444,-8176,1170,-54,42,20,7350,-2,2,0,0,37212,325,26,79,0,0,0,0,0,0,0,0,-32316,0,0,0,3840,0,13583,0
11782,420,-8194,1170,-62,48,27,7350,2,-3,-1,0,37216,327,26,79,0,0,0,0,0,0,0,0,-32316,0,0,0,3842,0,13603,0
11792,420,-8194,1184,-64,39,30,7348,-7,-4,-1,0,37214,335,26,79,0,0,0,0,0,0,0,0,-32316,0,0,0,3842,0,13623,0
11802,384,-8206,1180,-60,38,25,7348,-3,-4,0,0,37212,330,26,79,0,0,0,0,0,0,0,0,-32316,0,0,0,3842,0,13643,0
11812,374,-8174,1164,-57,44,28,7348,-2,-3,0,0,37215,328,26,79,0,0,0,0,0,0,0,0,-32316,0,0,0,3842,0,13663,0
11822,394,-8190,1154,-58,43,30,7349,7,-4,-3,0,37219,328,26,79,0,0,0,0,0,0,0,0,-32316,0,0,0,3843,0,13683,0
11832,408,-8192,1170,-55,42,27,7349,-4,0,0,0,37224,329,26,79,0,0,0,0,0,0,0,0,-32316,0,0,0,3842,0,13703,0
11842,382,-8186,1164,-52,46,25,7348,2,-6,0,0,37219,328,26,79,0,0,0,0,0,0,0,0,-32316,0,0,0,3841,0,13723,0
11852,382,-8186,1192,-58,45,23,7349,1,5,0,0,37221,328,26,79,0,0,0,0,0,0,0,0,-32316,0,0,0,3842,0,13743,0
11862,392,-8184,1204,-53,47,19,7349,-5,-3,0,0,37218,326,26,79,0,0,0,0,0,0,0,0,-32316,0,0,0,3842,0,13763,0
11872,394,-8176,1184,-54,41,22,7348,-8,-3,0,0,37220,335,26,79,0,0,0,0,0,0,0,0,-32316,0,0,0,3843,0,13783,0
11882,366,-8194,1172,-53,45,23,7349,2,-2,0,0,37218,328,26,79,0,0,0,0,0,0,0,0,-32316,0,0,0,3843,0,13803,0
11892,366,-8184,1180,-54,42,13,7348,-1,3,-1,0,37219,327,26,79,0,0,0,0,0,0,0,0,-32316,0,0,0,3843,0,13823,0
11902,398,-8166,1184,-56,41,14,7349,4,4,0,0,37222,326,26,79,0,0,0,0,0,0,0,0,-32316,0,0,0,3843,0,13843,0
11912,404,-8158,1138,-53,44,19,7349,0,5,0,0,37225,331,26,79,0,0,0,0,0,0,0,0,-32316,0,0,0,3843,0,13863,0
11922,392,-8208,1160,-51,41,15,7348,-6,-4,-1,0,37221,332,26,79,0,0,0,0,0,0,0,0,-32316,0,0,0,3842,0,13883,0
11932,390,-8186,1206,-51,42,16,7349,0,-3,-1,0,37220,321,26,79,0,0,0,0,0,0,0,0,-32316,0,0,0,3843,0,13903,0
11942,422,-8214,1196,-52,42,18,7350,4,4,0,0,37227,322,26,79,0,0,0,0,0,0,0,0,-32316,0,0,0,3844,0,13924,0
11952,392,-8194,1186,-49,41,20,7350,-3,3,1,0,37229,331,26,79,0,0,0,0,0,0,0,0,-32316,0,0,0,3844,0,13944,0
11962,382,-8222,1206,-52,41,16,7348,1,-5,0,0,37221,327,26,79,0,0,0,0,0,0,0,0,-32317,0,0,0,3843,0,13964,0
11972,370,-8178,1184,-55,42,23,7349,0,1,-1,0,37216,322,26,79,0,0,0,0,0,0,0,0,-32316,0,0,0,3844,0,13984,0
11982,376,-8170,1160,-55,43,22,7348,-3,-1,0,0,37230,323,27,79,0,0,0,0,0,0,0,0,-32316,0,0,0,3844,0,14004,0
11992,404,-8198,1160,-53,42,16,7348,-3,-3,0,0,37238,335,26,79,0,0,0,0,0,0,0,0,-32316,0,0,0,3842,0,14024,0
12002,394,-8192,1130,-49,46,17,7348,-1,-4,0,0,37234,340,26,79,0,0,0,0,0,0,0,0,-32316,0,0,0,3843,0,14044,0
12012,356,-8200,1150,-47,41,20,7350,2,4,0,0,37224,334,26,79,0,0,0,0,0,0,0,0,-32316,0,0,0,3843,0,14064,0
12022,390,-8180,1168,-48,44,16,7349,1,-2,-1,0,37218,324,26,79,0,0,0,0,0,0,0,0,-32316,0,0,0,3843,0,14084,0
12032,386,-8204,1196,-50,42,19,7347,-10,-3,-1,0,37222,321,26,79,0,0,0,0,0,0,0,0,-32316,0,0,0,3842,0,14104,0
12042,360,-8186,1210,-50,39,13,7348,-5,1,0,0,37224,326,26,79,0,0,0,0,0,0,0,0,-32316,0,0,0,3843,0,14124,0
12052,396,-8180,1188,-47,39,12,7349,0,1,0,0,37216,329,26,79,0,0,0,0,0,0,0,0,-32316,0,0,0,3843,0,14144,0
12062,380,-8198,1188,-48,44,15,7350,8,-2,-1,0,37211,328,26,79,0,0,0,0,0,0,0,0,-32317,0,0,0,3843,0,14164,0
12072,398,-8190,1192,-56,43,18,7348,-5,2,0,0,37214,328,26,79,0,0,0,0,0,0,0,0,-32316,0,0,0,3843,0,14184,0
12082,398,-8186,1180,-50,42,15,7349,-2,3,0,0,37219,326,26,79,0,0,0,0,0,0,0,0,-32316,0,0,0,3843,0,14204,0
12092,364,-8224,1180,-50,41,12,7348,-10,-5,-1,0,37220,336,26,79,0,0,0,0,0,0,0,0,-32316,0,0,0,3843,0,14224,0
12102,374,-8162,1174,-50,45,21,7349,-2,-2,0,0,37215,334,26,79,0,0,0,0,0,0,0,0,-32316,0,0,0,3843,0,14244,0
12112,366,-8158,1190,-52,39,18,7350,4,4,0,0,37219,328,26,79,0,0,0,0,0,0,0,0,-32316,0,0,0,3843,0,14264,0
12122,368,-8190,1190,-56,44,8,7349,6,2,0,0,37222,321,26,79,0,0,0,0,0,0,0,0,-32316,0,0,0,3843,0,14284,0
12132,388,-8184,1164,-51,40,16,7349,0,4,0,0,37218,326,26,79,0,0,0,0,0,0,0,0,-32316,0,0,0,3843,0,14304,0
12142,402,-8188,1172,-55,42,18,7349,-2,-2,0,0,37215,326,26,79,0,0,0,0,0,0,0,0,-32316,0,0,0,3843,0,14323,0
12152,428,-8194,1202,-50,37,16,7349,0,-2,1,0,37218,323,26,79,0,0,0,0,0,0,0,0,-32316,0,0,0,3843,0,14343,0
12162,390,-8210,1200,-53,42,18,7350,2,0,0,0,37227,319,26,79,0,0,0,0,0,0,0,0,-32317,0,0,0,3842,0,14363,0
12172,414,-8186,1202,-50,40,20,7349,5,2,-1,0,37225,333,26,79,0,0,0,0,0,0,0,0,-32316,0,0,0,3842,0,14383,0
12182,378,-8188,1194,-56,37,18,7350,4,3,0,0,37218,336,26,79,0,0,0,0,0,0,0,0,-32316,0,0,0,3843,0,14403,0
12192,354,-8168,1206,-52,40,23,7349,0,3,-1,0,37214,335,26,79,0,0,0,0,0,0,0,0,-32316,0,0,0,3844,0,14423,0
12202,352,-8176,1200,-59,39,21,7349,-2,5,0,0,37218,332,26,79,0,0,0,0,0,0,0,0,-32316,0,0,0,3844,0,14443,0
12212,388,-8168,1188,-56,41,18,7349,-9,2,0,0,37222,327,26,79,0,0,0,0,0,0,0,0,-32315,0,0,0,3844,0,14463,0
12222,400,-8180,1154,-54,42,20,7349,6,-2,-2,0,37219,329,26,79,0,0,0,0,0,0,0,0,-32316,0,0,0,3843,0,14483,0
12232,432,-8194,1172,-52,42,19,7349,0,2,-1,0,37213,321,26,79,0,0,0,0,0,0,0,0,-32316,0,0,0,3843,0,14503,0
12242,382,-8200,1178,-55,37,19,7349,0,-2,1,0,37218,325,26,79,0,0,0,0,0,0,0,0,-32316,0,0,0,3844,0,14523,0
12252,394,-8194,1186,-51,39,21,7348,-5,-6,0,0,37222,323,26,79,0,0,0,0,0,0,0,0,-32316,0,0,0,3844,0,14543,0
12262,388,-8196,1188,-53,42,19,7349,3,3,0,0,37220,328,26,79,0,0,0,0,0,0,0,0,-32316,0,0,0,3844,0,14563,0
12272,396,-8192,1206,-53,41,18,7349,-3,1,-1,0,37212,328,26,79,0,0,0,0,0,0,0,0,-32316,0,0,0,3843,0,14583,0
12282,412,-8148,1184,-59,41,20,7348,-6,1,1,0,37215,324,26,79,0,0,0,0,0,0,0,0,-32316,0,0,0,3844,0,14603,0
12292,354,-8186,1142,-58,44,22,7349,-2,-1,0,0,37222,322,26,79,0,0,0,0,0,0,0,0,-32316,0,0,0,3843,0,14623,0
12302,370,-8190,1154,-50,48,20,7349,2,5,0,0,37223,327,26,79,0,0,0,0,0,0,0,0,-32316,0,0,0,3844,0,14643,0
12312,380,-8164,1176,-55,43,16,7347,-7,-1,0,0,37218,332,26,79,0,0,0,0,0,0,0,0,-32316,0,0,0,3844,0,14663,0
12322,380,-8204,1184,-54,41,21,7350,0,-2,-2,0,37215,328,26,79,0,0,0,0,0,0,0,0,-32316,0,0,0,3844,0,14683,0
12332,400,-8192,1154,-56,37,17,7348,0,0,0,0,37221,317,26,79,0,0,0,0,0,0,0,0,-32316,0,0,0,3844,0,14703,0
12342,378,-8220,1174,-50,37,18,7348,-4,1,0,0,37221,312,26,79,0,0,0,0,0,0,0,0,-32316,0,0,0,3844,0,14723,0
12352,414,-8170,1200,-55,43,19,7350,0,-2,-2,0,37227,316,26,79,0,0,0,0,0,0,0,0,-32316,0,0,0,3844,0,14743,0
12362,424,-8166,1168,-56,44,20,7349,0,-1,0,0,37227,323,26,79,0,0,0,0,0,0,0,0,-32316,0,0,0,3843,0,14763,0
12372,388,-8178,1188,-55,40,25,7349,2,0,-1,0,37228,313,26,79,0,0,0,0,0,0,0,0,-32316,0,0,0,3844,0,14783,0
12382,372,-8186,1200,-54,42,29,7350,1,5,0,0,37224,311,26,79,0,0,0,0,0,0,0,0,-32316,0,0,0,3844,0,14803,0
12392,342,-8182,1156,-53,40,26,7349,-5,-1,-2,0,37226,318,26,79,0,0,0,0,0,0,0,0,-32315,0,0,0,3844,0,14823,0
12402,370,-8240,1140,-56,40,19,7348,0,-2,1,0,37222,329,26,79,0,0,0,0,0,0,0,0,-32316,0,0,0,3845,0,14843,0
12412,338,-8174,1154,-51,39,17,7350,-3,6,1,0,37221,329,26,79,0,0,0,0,0,0,0,0,-32316,0,0,0,3845,0,14863,0
12422,364,-8158,1138,-51,45,15,7351,3,4,-1,0,37222,329,26,79,0,0,0,0,0,0,0,0,-32316,0,0,0,3844,0,14883,0
12432,380,-8182,1166,-46,45,11,7349,-2,-3,0,0,37219,320,26,79,0,0,0,0,0,0,0,0,-32316,0,0,0,3844,0,14903,0
12442,402,-8210,1156,-50,42,16,7349,-4,-2,0,0,37215,321,26,79,0,0,0,0,0,0,0,0,-32315,0,0,0,3844,0,14923,0
12452,388,-8164,1180,-46,43,18,7349,-1,-2,-2,0,37215,315,26,79,0,0,0,0,0,0,0,0,-32316,0,0,0,3844,0,14943,0
12462,398,-8204,1198,-50,40,15,7349,0,1,0,0,37227,317,26,79,0,0,0,0,0,0,0,0,-32316,0,0,0,3844,0,14964,0
12472,404,-8212,1202,-48,39,18,7348,-8,-3,-1,0,37227,313,26,79,0,0,0,0,0,0,0,0,-32316,0,0,0,3844,0,14984,0
12482,384,-8192,1190,-55,40,18,7350,1,-3,0,0,37225,324,26,79,0,0,0,0,0,0,0,0,-32316,0,0,0,3844,0,15003,0
12492,378,-8210,1184,-56,42,19,7349,0,2,2,0,37219,326,26,79,0,0,0,0,0,0,0,0,-32316,0,0,0,3845,0,15023,0
12502,386,-8186,1200,-52,43,27,7348,1,1,0,0,37224,321,26,79,0,0,0,0,0,0,0,0,-32316,0,0,0,3844,0,15043,0
12512,382,-8168,1154,-52,42,20,7349,5,3,0,0,37226,313,26,79,0,0,0,0,0,0,0,0,-32316,0,0,0,3844,0,15064,0
12522,384,-8200,1166,-51,43,21,7349,5,1,-1,0,37227,313,26,79,0,0,0,0,0,0,0,0,-32316,0,0,0,3844,0,15084,0
12532,396,-8178,1162,-45,39,17,7349,1,2,-1,0,37228,321,26,79,0,0,0,0,0,0,0,0,-32316,0,0,0,3844,0,15104,0
12542,346,-8190,1148,-53,35,19,7348,-5,-2,0,0,37227,323,26,79,0,0,0,0,0,0,0,0,-32316,0,0,0,3844,0,15124,0
12552,374,-8198,1162,-50,41,15,7350,9,2,0,0,37227,319,26,79,0,0,0,0,0,0,0,0,-32316,0,0,0,3844,0,15144,0
12562,388,-8204,1180,-43,41,16,7349,2,2,-2,0,37222,315,26,79,0,0,0,0,0,0,0,0,-32316,0,0,0,3844,0,15164,0
12572,378,-8156,1160,-51,47,17,7348,-3,-4,-2,0,37221,320,26,79,0,0,0,0,0,0,0,0,-32316,0,0,0,3844,0,15184,0
12582,380,-8200,1180,-44,39,16,7350,8,0,0,0,37228,322,26,79,0,0,0,0,0,0,0,0,-32316,0,0,0,3844,0,15204,0
12592,414,-8212,1202,-49,38,15,7349,4,1,0,0,37231,320,26,79,0,0,0,0,0,0,0,0,-32316,0,0,0,3844,0,15224,0
12602,376,-8150,1194,-49,44,23,7349,2,-1,0,0,37230,313,26,79,0,0,0,0,0,0,0,0,-32316,0,0,0,3843,0,15244,0
12612,366,-8192,1192,-52,45,19,7348,-5,-1,0,0,37228,326,26,79,0,0,0,0,0,0,0,0,-32316,0,0,0,3844,0,15264,0
12622,386,-8174,1162,-55,43,21,7350,3,0,-2,0,37228,336,26,79,0,0,0,0,0,0,0,0,-32316,0,0,0,3844,0,15284,0
12632,384,-8180,1174,-53,39,24,7349,1,-7,-1,0,37232,331,27,79,0,0,0,0,0,0,0,0,-32316,0,0,0,3844,0,15304,0
12642,392,-8202,1164,-55,38,12,7350,2,2,0,0,37230,321,26,79,0,0,0,0,0,0,0,0,-32316,0,0,0,3845,0,15324,0
12652,378,-8202,1160,-54,42,19,7348,-6,-3,-2,0,37229,321,26,79,0,0,0,0,0,0,0,0,-32316,0,0,0,3844,0,15344,0
12662,400,-8176,1168,-51,46,19,7350,5,1,0,0,37234,318,26,79,0,0,0,0,0,0,0,0,-32316,0,0,0,3845,0,15364,0
12672,394,-8192,1186,-48,41,20,7348,0,-4,-1,0,37235,307,27,79,0,0,0,0,0,0,0,0,-32316,0,0,0,3844,0,15384,0
12682,350,-8182,1196,-51,37,27,7349,0,-1,0,0,37236,301,26,79,0,0,0,0,0,0,0,0,-32316,0,0,0,3845,0,15404,0
12692,356,-8180,1156,-54,40,19,7349,-8,-3,0,0,37236,311,26,79,0,0,0,0,0,0,0,0,-32316,0,0,0,3844,0,15424,0
12702,348,-8206,1180,-50,38,21,7349,2,0,1,0,37233,328,26,79,0,0,0,0,0,0,0,0,-32316,0,0,0,3845,0,15444,0
12712,348,-8194,1180,-50,40,12,7350,8,4,0,0,37235,322,27,79,0,0,0,0,0,0,0,0,-32316,0,0,0,3844,0,15464,0
12722,382,-8200,1200,-53,43,15,7349,6,2,-1,0,37235,305,26,79,0,0,0,0,0,0,0,0,-32316,0,0,0,3844,0,15484,0
12732,364,-8194,1172,-50,43,10,7349,-1,3,-1,0,37236,306,26,79,0,0,0,0,0,0,0,0,-32316,0,0,0,3845,0,15504,0
12742,430,-8206,1162,-52,37,15,7349,6,0,-2,0,37235,311,26,79,0,0,0,0,0,0,0,0,-32316,0,0,0,3844,0,15524,0
12752,408,-8188,1178,-48,38,18,7349,5,1,-1,0,37239,317,26,79,0,0,0,0,0,0,0,0,-32316,0,0,0,3844,0,15544,0
12762,404,-8180,1188,-43,43,20,7349,1,2,0,0,37238,312,27,79,0,0,0,0,0,0,0,0,-32316,0,0,0,3845,0,15564,0
12772,380,-8192,1208,-52,42,19,7348,1,-3,0,0,37242,311,26,79,0,0,0,0,0,0,0,0,-32316,0,0,0,3844,0,15584,0
12782,394,-8186,1196,-50,41,18,7348,-6,0,-1,0,37241,321,26,79,0,0,0,0,0,0,0,0,-32317,0,0,0,3845,0,15604,0
12792,388,-8194,1186,-61,37,18,7350,2,4,0,0,37244,327,26,79,0,0,0,0,0,0,0,0,-32316,0,0,0,3844,0,15624,0
12802,388,-8186,1172,-52,42,33,7349,-1,-3,0,0,37241,326,26,79,0,0,0,0,0,0,0,0,-32316,0,0,0,3845,0,15644,0
12812,394,-8188,1174,-53,35,23,7348,-1,-1,0,0,37241,317,26,79,0,0,0,0,0,0,0,0,-32316,0,0,0,3847,0,15664,0
12822,360,-8164,1164,-58,40,21,7350,1,2,-3,0,37238,314,26,79,0,0,0,0,0,0,0,0,-32316,0,0,0,3845,0,15684,0
12832,374,-8180,1178,-54,41,23,7347,-2,-6,0,0,37237,321,26,79,0,0,0,0,0,0,0,0,-32316,0,0,0,3845,0,15704,0
12842,376,-8186,1192,-56,48,21,7349,-4,-3,0,0,37238,324,26,79,0,0,0,0,0,0,0,0,-32316,0,0,0,3846,0,15724,0
12852,390,-8194,1188,-60,39,22,7349,1,-4,-1,0,37239,316,26,79,0,0,0,0,0,0,0,0,-32315,0,0,0,3847,0,15744,0
12862,400,-8216,1158,-56,41,24,7348,-8,0,1,0,37238,313,26,79,0,0,0,0,0,0,0,0,-32316,0,0,0,3847,0,15764,0
12872,382,-8190,1168,-57,34,24,7349,-3,0,0,0,37239,312,26,79,0,0,0,0,0,0,0,0,-32316,0,0,0,3847,0,15784,0
12882,358,-8188,1164,-52,38,26,7348,-7,1,0,0,37246,308,27,79,0,0,0,0,0,0,0,0,-32316,0,0,0,3847,0,15804,0
12892,352,-8198,1194,-53,41,26,7349,0,2,0,0,37246,297,26,79,0,0,0,0,0,0,0,0,-32316,0,0,0,3847,0,15824,0
12902,358,-8192,1174,-56,35,24,7350,8,2,0,0,37246,297,26,79,0,0,0,0,0,0,0,0,-32316,0,0,0,3847,0,15844,0
12912,336,-8170,1162,-55,41,17,7350,6,5,2,0,37242,308,27,79,0,0,0,0,0,0,0,0,-32316,0,0,0,3847,0,15864,0
12922,334,-8190,1142,-51,40,13,7349,5,0,-2,0,37242,318,26,79,0,0,0,0,0,0,0,0,-32316,0,0,0,3847,0,15884,0
12932,370,-8194,1164,-54,42,13,7350,7,-1,-1,0,37243,316,26,79,0,0,0,0,0,0,0,0,-32316,0,0,0,3845,0,15904,0
12942,394,-8170,1154,-54,37,8,7350,1,0,2,0,37243,305,26,79,0,0,0,0,0,0,0,0,-32316,0,0,0,3847,0,15924,0
12952,412,-8172,1162,-51,36,10,7348,-6,-8,0,0,37243,310,27,79,0,0,0,0,0,0,0,0,-32316,0,0,0,3847,0,15944,0
12962,384,-8226,1164,-48,40,12,7351,11,2,0,0,37242,312,27,79,0,0,0,0,0,0,0,0,-32317,0,0,0,3847,0,15964,0
12972,368,-8174,1184,-50,37,13,7351,3,6,-2,0,37243,310,27,79,0,0,0,0,0,0,0,0,-32315,0,0,0,3847,0,15984,0
12982,388,-8228,1182,-56,36,9,7350,0,2,-1,0,37247,301,27,79,0,0,0,0,0,0,0,0,-32316,0,0,0,3845,0,16004,0
12992,374,-8204,1220,-52,42,15,7349,2,0,0,0,37245,312,26,79,0,0,0,0,0,0,0,0,-32316,0,0,0,3847,0,16024,0
13002,362,-8196,1178,-55,40,13,7349,-2,6,-1,0,37242,323,26,79,0,0,0,0,0,0,0,0,-32316,0,0,0,3847,0,16044,0
13012,366,-8220,1172,-56,45,12,7348,-9,-3,0,0,37234,315,27,79,0,0,0,0,0,0,0,0,-32316,0,0,0,3845,0,16065,0
13022,376,-8172,1166,-54,38,10,7349,-1,0,-2,0,37234,297,27,79,0,0,0,0,0,0,0,0,-32316,0,0,0,3846,0,16085,0
13032,384,-8162,1146,-53,40,12,7349,1,1,0,0,37236,294,27,79,0,0,0,0,0,0,0,0,-32316,0,0,0,3847,0,16105,0
13042,374,-8210,1154,-48,45,15,7348,-9,-3,0,0,37237,291,26,79,0,0,0,0,0,0,0,0,-32316,0,0,0,3845,0,16125,0
13052,396,-8204,1172,-55,43,15,7350,8,2,0,0,37238,298,26,79,0,0,0,0,0,0,0,0,-32315,0,0,0,3846,0,16145,0
13062,388,-8214,1176,-52,40,15,7351,4,3,0,0,37239,292,27,79,0,0,0,0,0,0,0,0,-32316,0,0,0,3847,0,16165,0
13072,374,-8248,1176,-51,44,18,7349,2,-5,-1,0,37241,290,26,79,0,0,0,0,0,0,0,0,-32316,0,0,0,3847,0,16185,0
13082,396,-8198,1170,-55,40,14,7350,3,1,-3,0,37242,289,27,79,0,0,0,0,0,0,0,0,-32316,0,0,0,3845,0,16205,0
13092,372,-8178,1178,-53,39,10,7347,-8,-1,0,0,37243,292,26,79,0,0,0,0,0,0,0,0,-32316,0,0,0,3845,0,16225,0
13102,372,-8200,1194,-57,39,9,7350,-1,2,0,0,37242,302,26,79,0,0,0,0,0,0,0,0,-32316,0,0,0,3845,0,16245,0
13112,386,-8200,1170,-54,40,10,7348,-9,-4,0,0,37242,305,27,79,0,0,0,0,0,0,0,0,-32316,0,0,0,3847,0,16265,0
13122,352,-8130,1166,-50,40,13,7349,4,0,-1,0,37240,310,26,79,0,0,0,0,0,0,0,0,-32316,0,0,0,3847,0,16285,0
13132,352,-8220,1126,-51,42,12,7350,0,2,-1,0,37238,315,26,79,0,0,0,0,0,0,0,0,-32316,0,0,0,3845,0,16305,0
13142,398,-8190,1150,-53,46,10,7348,0,-2,1,0,37235,308,27,79,0,0,0,0,0,0,0,0,-32316,0,0,0,3847,0,16325,0
13152,402,-8180,1160,-50,36,12,7349,0,3,0,0,37230,307,26,79,0,0,0,0,0,0,0,0,-32316,0,0,0,3845,0,16345,0
13162,376,-8194,1188,-47,39,13,7348,-4,-3,0,0,37231,299,27,79,0,0,0,0,0,0,0,0,-32316,0,0,0,3845,0,16365,0
13172,374,-8210,1184,-52,40,13,7349,0,-3,0,0,37233,290,27,79,0,0,0,0,0,0,0,0,-32316,0,0,0,3847,0,16385,0
13182,382,-8208,1174,-49,45,18,7348,-7,-1,-1,0,37234,286,26,79,0,0,0,0,0,0,0,0,-32315,0,0,0,3845,0,16405,0
13192,392,-8216,1170,-48,38,21,7348,-5,-5,0,0,37233,287,26,79,0,0,0,0,0,0,0,0,-32316,0,0,0,3847,0,16425,0
13202,372,-8184,1174,-48,41,16,7349,0,2,0,0,37236,297,27,79,0,0,0,0,0,0,0,0,-32316,0,0,0,3847,0,16445,0
13212,390,-8188,1168,-51,38,17,7349,-5,-1,0,0,37237,307,27,79,0,0,0,0,0,0,0,0,-32316,0,0,0,3845,0,16465,0
13222,348,-8194,1196,-54,40,14,7349,-6,-1,-1,0,37238,302,27,79,0,0,0,0,0,0,0,0,-32316,0,0,0,3846,0,16485,0
13232,370,-8186,1162,-55,43,17,7348,-6,-7,-1,0,37234,299,27,79,0,0,0,0,0,0,0,0,-32316,0,0,0,3845,0,16505,0
13242,374,-8168,1174,-60,42,21,7351,5,3,0,0,37232,289,26,79,0,0,0,0,0,0,0,0,-32316,0,0,0,3847,0,16525,0
13252,380,-8220,1160,-54,35,20,7348,5,-3,-1,0,37232,292,27,79,0,0,0,0,0,0,0,0,-32316,0,0,0,3845,0,16545,0
13262,368,-8196,1192,-51,43,18,7349,6,1,0,0,37240,292,27,79,0,0,0,0,0,0,0,0,-32316,0,0,0,3845,0,16565,0
13272,396,-8184,1146,-53,38,19,7351,0,-4,-1,0,37251,288,27,79,0,0,0,0,0,0,0,0,-32316,0,0,0,3846,0,16585,0
13282,410,-8204,1142,-52,42,20,7349,5,-5,-1,0,37257,287,27,79,0,0,0,0,0,0,0,0,-32316,0,0,0,3847,0,16605,0
13292,416,-8172,1160,-51,40,18,7349,7,-3,1,0,37251,297,26,79,0,0,0,0,0,0,0,0,-32316,0,0,0,3846,0,16625,0
13302,382,-8210,1184,-50,38,26,7348,0,-1,-1,0,37246,296,26,79,0,0,0,0,0,0,0,0,-32316,0,0,0,3845,0,16645,0
13312,342,-8192,1180,-52,41,25,7348,-5,-3,0,0,37236,291,27,79,0,0,0,0,0,0,0,0,-32316,0,0,0,3845,0,16667,0
13322,390,-8212,1212,-53,41,20,7348,-9,2,0,0,37235,291,26,79,0,0,0,0,0,0,0,0,-32316,0,0,0,3847,0,16687,0
13332,362,-8204,1196,-54,40,21,7348,-1,-1,-1,0,37233,291,27,79,0,0,0,0,0,0,0,0,-32316,0,0,0,3847,0,16707,0
13342,346,-8142,1156,-54,47,25,7349,-3,-4,0,0,37230,290,26,79,0,0,0,0,0,0,0,0,-32316,0,0,0,3847,0,16727,0
13352,356,-8182,1152,-58,45,18,7350,2,-4,0,0,37230,285,27,79,0,0,0,0,0,0,0,0,-32316,0,0,0,3847,0,16747,0
13362,364,-8212,1138,-54,37,13,7349,-3,2,1,0,37230,285,27,79,0,0,0,0,0,0,0,0,-32316,0,0,0,3847,0,16767,0
13372,408,-8174,1176,-50,40,17,7350,6,7,0,0,37228,289,27,79,0,0,0,0,0,0,0,0,-32315,0,0,0,3847,0,16787,0
13382,366,-8202,1176,-55,37,15,7350,1,1,0,0,37228,287,27,79,0,0,0,0,0,0,0,0,-32316,0,0,0,3847,0,16807,0
13392,374,-8200,1158,-54,35,14,7349,2,2,1,0,37230,279,27,79,0,0,0,0,0,0,0,0,-32316,0,0,0,3847,0,16827,0
13402,360,-8170,1172,-55,46,12,7349,-3,0,0,0,37231,285,26,79,0,0,0,0,0,0,0,0,-32316,0,0,0,3847,0,16847,0
13412,354,-8206,1182,-52,38,17,7349,-6,-2,0,0,37233,284,26,79,0,0,0,0,0,0,0,0,-32316,0,0,0,3845,0,16867,0
13422,394,-8220,1170,-52,42,14,7348,-3,-3,0,0,37230,286,27,79,0,0,0,0,0,0,0,0,-32316,0,0,0,3845,0,16887,0
13432,376,-8198,1170,-58,41,14,7349,0,2,-1,0,37230,284,26,79,0,0,0,0,0,0,0,0,-32316,0,0,0,3846,0,16907,0
13442,382,-8188,1154,-51,45,15,7349,3,3,0,0,37229,292,27,79,0,0,0,0,0,0,0,0,-32316,0,0,0,3847,0,16927,0
13452,374,-8194,1164,-51,41,13,7348,0,-1,-2,0,37229,298,26,79,0,0,0,0,0,0,0,0,-32316,0,0,0,3847,0,16947,0
13462,386,-8194,1176,-57,39,16,7349,9,-1,-1,0,37229,294,26,79,0,0,0,0,0,0,0,0,-32316,0,0,0,3847,0,16967,0
13472,420,-8174,1170,-51,37,16,7349,-2,4,0,0,37229,289,26,79,0,0,0,0,0,0,0,0,-32316,0,0,0,3847,0,16987,0
13482,384,-8188,1154,-54,41,14,7349,-5,-2,-1,0,37230,282,27,79,0,0,0,0,0,0,0,0,-32315,0,0,0,3847,0,17007,0
13492,356,-8190,1164,-49,40,10,7350,0,0,0,0,37231,285,27,79,0,0,0,0,0,0,0,0,-32316,0,0,0,3846,0,17027,0
13502,342,-8200,1154,-49,36,13,7348,-9,-5,0,0,37228,290,27,79,0,0,0,0,0,0,0,0,-32316,0,0,0,3846,0,17047,0
13512,354,-8182,1162,-54,40,9,7349,-3,-1,0,0,37235,299,27,79,0,0,0,0,0,0,0,0,-32316,0,0,0,3847,0,17067,0
13522,366,-8204,1164,-53,37,2,7349,-1,1,0,0,37236,299,27,79,0,0,0,0,0,0,0,0,-32315,0,0,0,3846,0,17087,0
13532,370,-8170,1172,-48,40,11,7349,-1,2,-1,0,37239,295,27,79,0,0,0,0,0,0,0,0,-32316,0,0,0,3845,0,17107,0
13542,408,-8184,1190,-49,33,5,7349,-4,0,0,0,37236,288,27,79,0,0,0,0,0,0,0,0,-32316,0,0,0,3846,0,17127,0
13552,390,-8156,1160,-56,38,9,7350,4,3,0,0,37232,292,27,79,0,0,0,0,0,0,0,0,-32316,0,0,0,3847,0,17147,0
13562,404,-8186,1180,-52,40,11,7350,7,3,0,0,37231,288,27,79,0,0,0,0,0,0,0,0,-32316,0,0,0,3847,0,17167,0
13572,400,-8206,1170,-52,41,14,7349,0,2,-1,0,37232,281,27,79,0,0,0,0,0,0,0,0,-32316,0,0,0,3847,0,17187,0
13582,420,-8218,1188,-51,39,18,7349,0,0,-1,0,37233,287,27,79,0,0,0,0,0,0,0,0,-32315,0,0,0,3845,0,17207,0
13592,392,-8190,1166,-51,41,16,7350,2,5,-2,0,37236,292,26,79,0,0,0,0,0,0,0,0,-32316,0,0,0,3845,0,17227,0
13602,392,-8202,1194,-53,44,21,7349,4,-3,0,0,37235,289,26,79,0,0,0,0,0,0,0,0,-32316,0,0,0,3845,0,17247,0
13612,374,-8194,1176,-55,39,28,7350,7,3,2,0,37239,289,26,79,0,0,0,0,0,0,0,0,-32315,0,0,0,3846,0,17267,0
13622,380,-8208,1154,-52,43,23,7348,-2,-4,0,0,37241,287,26,79,0,0,0,0,0,0,0,0,-32316,0,0,0,3847,0,17287,0
13632,360,-8232,1160,-56,43,23,7349,-2,2,-2,0,37242,288,27,79,0,0,0,0,0,0,0,0,-32316,0,0,0,3847,0,17307,0
13642,356,-8172,1150,-56,42,20,7347,-12,-3,-1,0,37242,292,27,79,0,0,0,0,0,0,0,0,-32316,0,0,0,3847,0,17327,0
13652,362,-8216,1144,-55,41,19,7349,5,1,0,0,37235,291,26,79,0,0,0,0,0,0,0,0,-32316,0,0,0,3845,0,17347,0
13662,356,-8182,1166,-57,40,17,7350,1,5,0,0,37235,291,26,79,0,0,0,0,0,0,0,0,-32316,0,0,0,3845,0,17367,0
13672,352,-8170,1164,-54,44,8,7348,-4,-1,0,0,37237,284,27,79,0,0,0,0,0,0,0,0,-32316,0,0,0,3847,0,17387,0
13682,392,-8204,1162,-51,39,13,7348,-2,-4,-1,0,37238,277,27,79,0,0,0,0,0,0,0,0,-32316,0,0,0,3847,0,17407,0
13692,390,-8190,1148,-49,40,14,7349,3,-4,0,0,37239,278,26,79,0,0,0,0,0,0,0,0,-32316,0,0,0,3846,0,17427,0
13702,384,-8190,1154,-48,38,12,7351,16,4,1,0,37237,280,26,79,0,0,0,0,0,0,0,0,-32316,0,0,0,3847,0,17447,0
13712,402,-8200,1166,-50,42,16,7349,3,0,1,0,37237,278,27,79,0,0,0,0,0,0,0,0,-32316,0,0,0,3845,0,17467,0
13722,374,-8212,1190,-51,43,18,7350,10,4,-1,0,37244,269,27,79,0,0,0,0,0,0,0,0,-32316,0,0,0,3847,0,17487,0
13732,372,-8168,1172,-52,44,19,7350,12,1,0,0,37249,272,27,79,0,0,0,0,0,0,0,0,-32316,0,0,0,3847,0,17507,0
13742,358,-8188,1156,-51,37,17,7349,-4,2,0,0,37254,281,26,79,0,0,0,0,0,0,0,0,-32316,0,0,0,3847,0,17527,0
13752,376,-8164,1152,-52,44,18,7349,-4,-2,0,0,37250,288,26,79,0,0,0,0,0,0,0,0,-32316,0,0,0,3847,0,17547,0
13762,378,-8194,1180,-50,36,11,7347,-5,-5,-1,0,37251,289,27,79,0,0,0,0,0,0,0,0,-32316,0,0,0,3847,0,17567,0
13772,408,-8198,1182,-48,41,16,7349,-1,2,0,0,37252,287,27,79,0,0,0,0,0,0,0,0,-32316,0,0,0,3847,0,17587,0
13782,406,-8210,1190,-52,43,22,7350,-4,0,0,0,37251,285,27,79,0,0,0,0,0,0,0,0,-32316,0,0,0,3847,0,17607,0
13792,398,-8182,1180,-58,43,21,7349,-3,-5,0,0,37248,284,26,79,0,0,0,0,0,0,0,0,-32316,0,0,0,3847,0,17627,0
13802,412,-8186,1190,-58,42,26,7349,10,0,0,0,37247,284,26,79,0,0,0,0,0,0,0,0,-32316,0,0,0,3847,0,17647,0
13812,388,-8182,1154,-55,44,29,7351,3,11,-2,0,37248,291,27,79,0,0,0,0,0,0,0,0,-32316,0,0,0,3847,0,17667,0
13822,372,-8206,1138,-56,48,25,7349,-3,-3,0,0,37248,288,27,79,0,0,0,0,0,0,0,0,-32316,0,0,0,3847,0,17688,0
13832,374,-8224,1126,-53,42,31,7349,-9,4,1,0,37249,289,27,79,0,0,0,0,0,0,0,0,-32316,0,0,0,3847,0,17708,0
13842,378,-8198,1156,-51,36,26,7348,-12,-3,-1,0,37248,293,27,79,0,0,0,0,0,0,0,0,-32316,0,0,0,3847,0,17728,0
13852,360,-8224,1164,-47,37,27,7349,-4,-3,0,0,37248,294,26,79,0,0,0,0,0,0,0,0,-32316,0,0,0,3848,0,17748,0
13862,350,-8204,1170,-54,38,25,7348,-8,-5,0,0,37245,289,27,79,0,0,0,0,0,0,0,0,-32316,0,0,0,3847,0,17768,0
13872,352,-8210,1164,-48,39,25,7347,-9,-8,0,0,37244,290,27,79,0,0,0,0,0,0,0,0,-32316,0,0,0,3848,0,17793,0
13882,346,-8200,1172,-47,40,14,7349,-3,3,0,0,37244,286,27,79,0,0,0,0,0,0,0,0,-32316,0,0,0,3847,0,17813,0
13892,380,-8168,1192,-53,47,18,7351,14,4,0,0,37245,289,27,79,0,0,0,0,0,0,0,0,-32316,0,0,0,3847,0,17833,0
13902,400,-8192,1188,-55,42,20,7349,0,2,1,0,37247,289,27,79,0,0,0,0,0,0,0,0,-32316,0,0,0,3848,0,17853,0
13912,398,-8190,1184,-52,46,21,7349,-5,-1,0,0,37248,286,27,79,0,0,0,0,0,0,0,0,-32316,0,0,0,3848,0,17873,0
13922,406,-8182,1178,-57,38,25,7348,0,-7,0,0,37248,284,27,79,0,0,0,0,0,0,0,0,-32316,0,0,0,3848,0,17893,0
13932,364,-8184,1134,-58,35,25,7349,1,-1,-1,0,37255,283,27,79,0,0,0,0,0,0,0,0,-32316,0,0,0,3847,0,17913,0
13942,346,-8192,1152,-53,43,23,7351,11,2,-1,0,37256,281,27,79,0,0,0,0,0,0,0,0,-32316,0,0,0,3847,0,17934,0
13952,306,-8212,1152,-50,40,19,7350,0,5,0,0,37256,290,27,79,0,0,0,0,0,0,0,0,-32316,0,0,0,3848,0,17954,0
13962,358,-8168,1162,-57,46,13,7350,1,4,0,0,37247,287,27,79,0,0,0,0,0,0,0,0,-32316,0,0,0,3848,0,17974,0
13972,364,-8210,1148,-52,38,21,7349,0,3,-2,0,37246,283,27,79,0,0,0,0,0,0,0,0,-32316,0,0,0,3849,0,17994,0
13982,370,-8152,1152,-49,40,19,7350,7,1,-1,0,37246,281,27,79,0,0,0,0,0,0,0,0,-32316,0,0,0,3849,0,18014,0
13992,360,-8228,1182,-51,41,19,7349,-6,0,-1,0,37247,285,27,79,0,0,0,0,0,0,0,0,-32316,0,0,0,3849,0,18034,0
14002,378,-8170,1158,-51,39,19,7349,5,-2,0,0,37244,284,27,79,0,0,0,0,0,0,0,0,-32316,0,0,0,3849,0,18054,0
14012,360,-8180,1168,-51,38,15,7350,-3,7,0,0,37242,279,27,79,0,0,0,0,0,0,0,0,-32316,0,0,0,3848,0,18074,0
14022,350,-8198,1170,-49,36,17,7348,-4,-4,0,0,37241,274,27,79,0,0,0,0,0,0,0,0,-32316,0,0,0,3848,0,18094,0
14032,352,-8192,1178,-48,41,18,7349,-8,-1,-1,0,37251,286,27,79,0,0,0,0,0,0,0,0,-32316,0,0,0,3848,0,18114,0
14042,372,-8188,1206,-49,43,9,7349,-3,-1,0,0,37251,293,26,79,0,0,0,0,0,0,0,0,-32316,0,0,0,3847,0,18134,0
14052,372,-8210,1148,-52,41,16,7351,5,5,1,0,37246,288,26,79,0,0,0,0,0,0,0,0,-32316,0,0,0,3848,0,18154,0
14062,400,-8182,1164,-52,40,14,7350,1,5,-2,0,37242,283,27,79,0,0,0,0,0,0,0,0,-32316,0,0,0,3848,0,18174,0
14072,368,-8180,1164,-50,41,14,7349,-3,3,-1,0,37239,288,27,79,0,0,0,0,0,0,0,0,-32316,0,0,0,3848,0,18194,0
14082,382,-8204,1164,-53,40,17,7350,9,1,-2,0,37241,287,27,79,0,0,0,0,0,0,0,0,-32316,0,0,0,3848,0,18215,0
14092,394,-8184,1168,-55,40,22,7350,3,5,1,0,37239,281,27,79,0,0,0,0,0,0,0,0,-32316,0,0,0,3848,0,18234,0
14102,420,-8190,1156,-48,41,23,7349,-2,-2,2,0,37235,276,27,79,0,0,0,0,0,0,0,0,-32316,0,0,0,3849,0,18254,0
14112,342,-8216,1158,-50,36,27,7349,0,1,-1,0,37234,282,26,79,0,0,0,0,0,0,0,0,-32316,0,0,0,3849,0,18275,0
14122,442,-8168,1138,-53,38,29,7349,5,-3,-3,0,37232,289,26,79,0,0,0,0,0,0,0,0,-32316,0,0,0,3848,0,18295,0
14132,340,-8172,1180,-48,38,23,7349,7,-2,-1,0,37228,295,27,79,0,0,0,0,0,0,0,0,-32316,0,0,0,3848,0,18314,0
14142,334,-8170,1174,-56,37,23,7350,11,5,-3,0,37226,299,27,79,0,0,0,0,0,0,0,0,-32316,0,0,0,3849,0,18334,0
14152,364,-8162,1164,-54,41,21,7350,0,2,0,0,37222,292,27,79,0,0,0,0,0,0,0,0,-32316,0,0,0,3849,0,18354,0
14162,362,-8180,1162,-51,43,15,7351,4,2,0,0,37218,291,27,79,0,0,0,0,0,0,0,0,-32316,0,0,0,3849,0,18375,0
14172,360,-8174,1154,-47,43,16,7350,2,4,0,0,37221,286,27,79,0,0,0,0,0,0,0,0,-32316,0,0,0,3849,0,18395,0
14182,398,-8204,1164,-50,44,22,7349,3,2,1,0,37227,293,27,79,0,0,0,0,0,0,0,0,-32316,0,0,0,3849,0,18415,0
14192,378,-8176,1154,-52,41,21,7349,-1,0,2,0,37225,289,27,79,0,0,0,0,0,0,0,0,-32315,0,0,0,3849,0,18435,0
14202,392,-8210,1160,-50,38,20,7350,-1,3,1,0,37224,282,27,79,0,0,0,0,0,0,0,0,-32315,0,0,0,3849,0,18455,0
14212,378,-8218,1184,-52,33,23,7348,-8,-4,-1,0,37219,294,27,79,0,0,0,0,0,0,0,0,-32316,0,0,0,3849,0,18475,0
14222,362,-8224,1170,-52,36,28,7349,-5,-2,0,0,37207,307,27,79,0,0,0,0,0,0,0,0,-32316,0,0,0,3850,0,18495,0
14232,356,-8200,1150,-51,35,21,7348,-8,-1,-1,0,37204,319,27,79,0,0,0,0,0,0,0,0,-32315,0,0,0,3849,0,18515,0
14242,348,-8218,1174,-52,42,23,7349,-4,-2,-1,0,37198,322,26,79,0,0,0,0,0,0,0,0,-32315,0,0,0,3849,0,18535,0
14252,320,-8198,1164,-51,44,22,7350,2,2,-1,0,37196,328,27,79,0,0,0,0,0,0,0,0,-32315,0,0,0,3849,0,18555,0
14262,348,-8156,1152,-53,39,19,7349,-7,-3,-1,0,37194,326,26,79,0,0,0,0,0,0,0,0,-32316,0,0,0,3849,0,18575,0
14272,348,-8198,1140,-51,43,13,7349,0,-4,0,0,37195,312,26,79,0,0,0,0,0,0,0,0,-32316,0,0,0,3849,0,18595,0
14282,366,-8172,1148,-51,41,15,7348,-5,-1,0,0,37198,310,27,79,0,0,0,0,0,0,0,0,-32316,0,0,0,3849,0,18615,0
14292,404,-8166,1180,-50,41,14,7350,5,-3,0,0,37195,324,27,79,0,0,0,0,0,0,0,0,-32316,0,0,0,3851,0,18635,0
14302,388,-8198,1188,-44,38,14,7348,-4,-3,0,0,37193,329,27,79,0,0,0,0,0,0,0,0,-32316,0,0,0,3849,0,18655,0
14312,362,-8224,1176,-55,38,20,7349,-1,-3,0,0,37194,323,27,79,0,0,0,0,0,0,0,0,-32315,0,0,0,3851,0,18675,0
14322,398,-8200,1178,-52,40,13,7350,0,-2,0,0,37196,318,27,79,0,0,0,0,0,0,0,0,-32316,0,0,0,3850,0,18695,0
14332,756,-8150,1174,-48,23,44,7308,-185,-72,-833,-704,37202,317,27,79,0,0,0,0,0,0,0,0,-32316,0,0,0,3851,0,18715,0
14342,292,-8224,1156,-51,40,43,7116,-511,-378,-919,-1592,37198,338,27,79,0,0,0,0,0,0,0,0,-32315,0,0,0,3851,0,18735,0
14352,262,-8150,1204,-53,58,28,6788,-810,-560,-1027,-2384,37188,339,27,79,0,0,0,0,0,0,0,0,-32316,0,0,0,3851,0,18755,0
14362,254,-8172,1226,-49,66,20,6343,-1031,-488,-1013,-3000,37177,374,27,79,0,0,0,0,0,0,0,0,-32316,0,0,0,3851,0,18775,0
14372,464,-8234,1056,-41,63,19,5859,-1243,-401,-987,-3624,37169,396,27,79,0,0,0,0,0,0,0,0,-32316,0,0,0,3851,0,18795,0
14382,426,-8176,1184,-21,57,20,5222,-1468,-389,-1021,-4104,37158,420,26,79,0,0,0,0,0,0,0,0,-32316,0,0,0,3851,0,18815,0
14392,302,-8208,1238,-17,39,23,4490,-1672,-385,-1024,-4448,37144,432,26,79,0,0,0,0,0,0,0,0,-32316,0,0,0,3850,0,18835,0
14402,350,-8158,1154,-7,49,16,3669,-1858,-353,-1040,-4752,37134,445,27,79,0,0,0,0,0,0,0,0,-32316,0,0,0,3851,0,18855,0
14412,490,-8166,1158,-6,24,17,2760,-2068,-340,-1014,-5264,37129,446,27,79,0,0,0,0,0,0,0,0,-32316,0,0,0,3850,0,18875,0
14422,362,-8172,1150,5,7,27,1729,-2353,-412,-1070,-5616,37120,462,27,79,0,0,0,0,0,0,0,0,-32316,0,0,0,3851,0,18895,0
14432,378,-8196,1130,3,-14,18,571,-2618,-484,-1102,-5760,37110,478,27,79,0,0,0,0,0,0,0,0,-32316,0,0,0,3851,0,18915,0
14442,292,-8166,1140,-49,47,23,-643,-2671,-335,-965,-6008,37112,490,27,79,0,0,0,0,0,0,0,0,-32316,0,0,0,3851,0,18935,0
14452,466,-8180,1128,-61,20,12,-1816,-2539,6,-797,-6696,37116,499,27,79,0,0,0,0,0,0,0,0,-32315,0,0,0,3852,0,18955,0
14462,366,-8208,1192,-70,16,17,-2965,-2541,129,-953,-6960,37115,503,26,79,0,0,0,0,0,0,0,0,-32316,0,0,0,3851,0,18975,0
14472,220,-8140,1178,-103,30,14,-4162,-2670,-76,-1155,-6856,37100,523,26,79,0,0,0,0,0,0,0,0,-32315,0,0,0,3851,0,18995,0
14482,404,-8180,1256,-107,35,11,-5432,-2864,-247,-1074,-7160,37090,535,27,79,0,0,0,0,0,0,0,0,-32315,0,0,0,3852,0,19015,0
14492,460,-8254,1158,-100,69,18,-6847,-3233,-443,-1075,-7792,37083,553,26,79,0,0,0,0,0,0,0,0,-32316,0,0,0,3851,0,19035,0
14502,338,-8234,1310,-89,84,20,-8433,-3563,-621,-1111,-8016,37078,575,26,79,0,0,0,0,0,0,0,0,-32316,0,0,0,3852,0,19055,0
14512,270,-8202,1114,-34,100,2,-10011,-3404,-275,-713,-8768,37072,573,27,79,0,0,0,0,0,0,0,0,-32316,0,0,0,3851,0,19075,0
14522,450,-8168,1238,15,71,-13,-11547,-3420,132,-1000,-8880,37060,571,27,79,0,0,0,0,0,0,0,0,-32317,0,0,0,3851,0,19095,0
14532,15734,-4696,850,146,1078,-1759,-13154,-3579,-103,-1233,-8280,37056,569,27,79,0,0,0,0,0,0,0,0,-32316,0,0,0,3848,0,19115,0
14542,2320,-12484,694,-493,3520,-3352,-14436,-2351,548,-1227,-4080,37063,578,26,79,0,0,0,0,0,0,0,0,-32317,0,0,0,3735,-10,19135,0
14552,-1098,-11520,2970,-150,1195,-1348,-14761,16,2699,-648,80,37094,533,26,79,0,0,0,0,0,0,0,0,-32316,0,0,0,3682,-2,19155,0
14562,16604,-6086,-5644,-176,-870,651,-14285,1278,3419,-634,1208,37126,438,26,79,0,0,0,0,0,0,0,0,-32316,0,0,0,3707,3,19175,0
14572,7470,-6318,356,399,-1786,1901,-13751,1033,1380,-954,208,37163,320,27,79,0,0,0,0,0,0,0,0,-32316,0,0,0,3749,4,19195,0
14582,-486,-9890,5360,575,-2922,1152,-13523,267,-648,-1322,-192,37181,280,27,79,0,0,0,0,0,0,0,0,-32316,0,0,0,3790,5,19215,0
14592,-12484,-4426,7780,-325,-464,315,-13503,6,-996,-1002,-264,37192,311,27,79,0,0,0,0,0,0,0,0,-32316,0,0,0,3808,0,19235,0
14602,-5130,-6752,2058,-335,105,-251,-13495,11,-339,-988,-288,37186,350,27,79,0,0,0,0,0,0,0,0,-32316,0,0,0,3809,0,19255,0
14612,1092,-7722,-1550,-414,2193,-342,-13516,-71,-69,-983,-384,37177,366,27,79,0,0,0,0,0,0,0,0,-32316,0,0,0,3793,-2,19275,0
14622,2016,-9138,1294,6,472,-309,-13560,-122,-108,-969,-504,37181,358,27,79,0,0,0,0,0,0,0,0,-32316,0,0,0,3774,0,19295,0
14632,1496,-7574,2288,65,-143,-13,-13615,-110,-62,-1020,-416,37189,350,26,79,0,0,0,0,0,0,0,0,-32316,0,0,0,3767,0,19315,0
14642,-900,-8038,3814,-15,-305,13,-13649,-42,32,-1031,-296,37190,340,26,79,0,0,0,0,0,0,0,0,-32316,0,0,0,3766,0,19335,0
14652,-576,-7902,2728,-267,47,-71,-13640,20,130,-998,-256,37187,341,26,79,0,0,0,0,0,0,0,0,-32316,0,0,0,3770,0,19355,0
14662,732,-7724,426,-313,137,-127,-13648,-35,31,-994,-328,37188,339,27,79,0,0,0,0,0,0,0,0,-32316,0,0,0,3768,0,19375,0
14672,1712,-8164,-884,-111,-11,-2,-13660,-23,-48,-1002,-304,37197,341,27,79,0,0,0,0,0,0,0,0,-32316,0,0,0,3767,0,19395,0
14682,1016,-8048,-412,34,-52,84,-13665,-5,12,-997,-296,37200,349,27,79,0,0,0,0,0,0,0,0,-32316,0,0,0,3767,0,19415,0
14692,-174,-8100,1484,85,-4,77,-13660,17,33,-1009,-264,37193,354,27,79,0,0,0,0,0,0,0,0,-32315,0,0,0,3767,0,19435,0
14702,-346,-8322,2158,26,79,-3,-13659,-10,8,-999,-288,37192,345,27,79,0,0,0,0,0,0,0,0,-32316,0,0,0,3767,0,19455,0
14712,642,-8226,1906,-86,99,-44,-13661,-3,-18,-998,-296,37197,338,27,79,0,0,0,0,0,0,0,0,-32315,0,0,0,3767,0,19475,0
14722,888,-8044,1398,-110,22,0,-13663,0,-5,-997,-296,37204,337,27,79,0,0,0,0,0,0,0,0,-32316,0,0,0,3766,0,19495,0
14732,456,-8226,982,-90,-19,39,-13663,1,10,-996,-280,37201,338,27,79,0,0,0,0,0,0,0,0,-32316,0,0,0,3767,0,19515,0
14742,144,-8304,978,-75,16,14,-13662,-2,7,-1001,-288,37198,338,27,79,0,0,0,0,0,0,0,0,-32316,0,0,0,3767,0,19535,0
14752,278,-8090,1052,-67,68,-15,-13663,-2,-4,-995,-288,37202,334,27,79,0,0,0,0,0,0,0,0,-32316,0,0,0,3766,0,19555,0
14762,674,-8220,926,-51,74,-16,-13664,-2,0,-998,-304,37213,331,27,79,0,0,0,0,0,0,0,0,-32316,0,0,0,3766,0,19575,0
14772,658,-8154,1026,-29,24,10,-13665,-3,-2,-1000,-296,37213,346,27,79,0,0,0,0,0,0,0,0,-32316,0,0,0,3766,0,19595,0
14782,452,-8036,1232,-22,13,36,-13666,-4,1,-999,-288,37208,341,27,79,0,0,0,0,0,0,0,0,-32316,0,0,0,3765,0,19615,0
14792,184,-8196,1320,-40,21,3,-13663,9,6,-999,-288,37203,335,26,79,0,0,0,0,0,0,0,0,-32316,0,0,0,3766,0,19635,0
14802,296,-8202,1250,-52,38,-18,-13664,0,1,-997,-312,37207,327,26,79,0,0,0,0,0,0,0,0,-32316,0,0,0,3766,0,19655,0
14812,608,-8172,1108,-39,43,-7,-13667,-6,-6,-999,-296,37210,331,27,79,0,0,0,0,0,0,0,0,-32316,0,0,0,3765,0,19675,0
14822,554,-8202,1178,-43,36,6,-13670,-9,-4,-996,-304,37206,343,27,79,0,0,0,0,0,0,0,0,-32315,0,0,0,3766,0,19695,0
14832,464,-8312,1340,-62,40,11,-13672,-4,-2,-999,-288,37204,336,27,79,0,0,0,0,0,0,0,0,-32316,0,0,0,3766,0,19715,0
14842,536,-8148,1320,-70,47,14,-13674,-7,1,-1000,-288,37210,336,27,79,0,0,0,0,0,0,0,0,-32315,0,0,0,3766,0,19735,0
14852,556,-8208,1072,-79,41,27,-13676,-1,1,-1002,-288,37214,345,27,79,0,0,0,0,0,0,0,0,-32316,0,0,0,3764,0,19755,0
14862,522,-8254,978,-61,37,22,-13676,3,1,-998,-280,37211,348,27,79,0,0,0,0,0,0,0,0,-32316,0,0,0,3766,0,19775,0
14872,432,-8098,1096,-53,44,29,-13675,-4,6,-994,-296,37207,347,27,79,0,0,0,0,0,0,0,0,-32316,0,0,0,3766,0,19795,0
14882,320,-8206,1170,-57,48,30,-13676,-1,-2,-999,-296,37211,342,27,79,0,0,0,0,0,0,0,0,-32316,0,0,0,3766,0,19815,0
14892,452,-8206,1194,-56,51,17,-13676,0,-2,-999,-288,37219,346,27,79,0,0,0,0,0,0,0,0,-32316,0,0,0,3766,0,19835,0
14902,482,-8182,1164,-56,44,19,-13676,1,0,-1002,-288,37216,355,27,79,0,0,0,0,0,0,0,0,-32315,0,0,0,3764,0,19855,0
14912,466,-8180,1118,-51,35,31,-13676,-5,-1,-998,-288,37210,347,27,79,0,0,0,0,0,0,0,0,-32315,0,0,0,3764,0,19875,0
14922,390,-8176,1146,-52,38,21,-13675,1,2,-992,-288,37210,334,27,79,0,0,0,0,0,0,0,0,-32316,0,0,0,3766,0,19895,0
14932,384,-8112,1154,-52,41,15,-13675,-5,-3,-999,-288,37213,328,27,79,0,0,0,0,0,0,0,0,-32316,0,0,0,3767,0,19915,0
14942,482,-8176,1136,-48,42,17,-13675,0,-3,-997,-288,37215,338,27,79,0,0,0,0,0,0,0,0,-32316,0,0,0,3764,0,19936,0
14952,488,-8210,1182,-43,29,19,-13676,1,-1,-999,-280,37209,348,27,79,0,0,0,0,0,0,0,0,-32316,0,0,0,3766,0,19956,0
14962,454,-8192,1210,-44,36,5,-13675,-4,-1,-1000,-288,37212,345,27,79,0,0,0,0,0,0,0,0,-32316,0,0,0,3766,0,19976,0
14972,444,-8150,1156,-54,41,11,-13677,-1,-5,-994,-296,37220,336,27,79,0,0,0,0,0,0,0,0,-32316,0,0,0,3764,0,19996,0
14982,376,-8178,1132,-48,37,13,-13676,0,1,-1000,-288,37224,337,27,79,0,0,0,0,0,0,0,0,-32316,0,0,0,3766,0,20016,0
14992,452,-8176,1136,-45,42,6,-13676,-1,-1,-999,-288,37219,342,27,79,0,0,0,0,0,0,0,0,-32316,0,0,0,3766,0,20036,0
15002,450,-8170,1162,-47,40,8,-13675,4,-2,-998,-288,37207,343,27,79,0,0,0,0,0,0,0,0,-32316,0,0,0,3766,0,20056,0
15012,530,-8208,1154,-52,40,12,-13675,7,5,-998,-288,37211,331,27,79,0,0,0,0,0,0,0,0,-32316,0,0,0,3766,0,20077,0
15022,500,-8186,1118,-50,41,5,-13676,-5,2,-996,-280,37213,327,27,79,0,0,0,0,0,0,0,0,-32315,0,0,0,3766,0,20097,0
15032,460,-8174,1124,-40,38,22,-13676,0,-3,-998,-296,37213,337,27,79,0,0,0,0,0,0,0,0,-32316,0,0,0,3764,0,20117,0
15042,444,-8212,1164,-43,41,27,-13676,5,2,-998,-288,37209,350,27,79,0,0,0,0,0,0,0,0,-32316,0,0,0,3764,0,20137,0
15052,440,-8200,1192,-43,38,8,-13676,1,2,-1000,-296,37208,343,27,79,0,0,0,0,0,0,0,0,-32316,0,0,0,3764,0,20157,0
15062,384,-8176,1160,-48,41,12,-13676,0,-4,-994,-296,37212,344,27,79,0,0,0,0,0,0,0,0,-32316,0,0,0,3764,0,20177,0
15072,464,-8182,1162,-39,34,14,-13676,0,0,-999,-288,37218,354,26,79,0,0,0,0,0,0,0,0,-32316,0,0,0,3765,0,20197,0
15082,434,-8222,1178,-40,37,7,-13675,0,3,-997,-288,37215,350,26,79,0,0,0,0,0,0,0,0,-32316,0,0,0,3764,0,20217,0
15092,392,-8210,1172,-42,45,13,-13676,3,0,-1001,-280,37214,337,27,79,0,0,0,0,0,0,0,0,-32316,0,0,0,3764,0,20237,0
15102,456,-8178,1160,-46,38,14,-13677,-3,2,-998,-296,37209,320,27,79,0,0,0,0,0,0,0,0,-32316,0,0,0,3764,0,20257,0
15112,446,-8224,1154,-43,39,13,-13676,-2,1,-995,-288,37214,328,27,79,0,0,0,0,0,0,0,0,-32316,0,0,0,3765,0,20277,0
15122,476,-8198,1134,-43,35,14,-13676,1,0,-994,-288,37213,338,27,79,0,0,0,0,0,0,0,0,-32316,0,0,0,3766,0,20297,0
15132,434,-8182,1134,-41,31,18,-13676,0,2,-999,-280,37214,344,27,79,0,0,0,0,0,0,0,0,-32316,0,0,0,3764,0,20317,0
15142,486,-8202,1138,-44,37,13,-13676,-2,4,-999,-280,37217,334,27,79,0,0,0,0,0,0,0,0,-32316,0,0,0,3764,0,20337,0
15152,456,-8182,1148,-39,38,6,-13676,5,1,-1001,-288,37218,335,27,79,0,0,0,0,0,0,0,0,-32316,0,0,0,3764,0,20357,0
15162,478,-8158,1170,-44,40,11,-13677,2,2,-997,-296,37218,339,27,79,0,0,0,0,0,0,0,0,-32316,0,0,0,3765,0,20377,0
15172,452,-8230,1208,-41,34,14,-13678,-1,0,-1001,-288,37215,341,27,79,0,0,0,0,0,0,0,0,-32316,0,0,0,3764,0,20397,0
15182,480,-8170,1204,-46,45,8,-13678,0,4,-997,-288,37219,345,27,79,0,0,0,0,0,0,0,0,-32316,0,0,0,3766,0,20417,0
15192,470,-8178,1178,-46,42,14,-13679,-4,-3,-999,-288,37220,353,27,79,0,0,0,0,0,0,0,0,-32316,0,0,0,3764,0,20437,0
15202,468,-8196,1170,-42,39,17,-13679,0,2,-999,-280,37215,357,27,79,0,0,0,0,0,0,0,0,-32316,0,0,0,3764,0,20457,0
15212,462,-8160,1184,-50,39,11,-13681,-5,-1,-997,-296,37206,345,27,79,0,0,0,0,0,0,0,0,-32316,0,0,0,3764,0,20477,0
15222,438,-8208,1144,-48,42,14,-13681,-4,-3,-996,-296,37206,331,27,79,0,0,0,0,0,0,0,0,-32316,0,0,0,3766,0,20497,0
15232,468,-8208,1122,-47,38,11,-13680,-1,-3,-997,-288,37214,327,27,79,0,0,0,0,0,0,0,0,-32316,0,0,0,3764,0,20517,0
15242,422,-8176,1134,-44,45,8,-13681,-6,-3,-1001,-288,37213,332,27,79,0,0,0,0,0,0,0,0,-32316,0,0,0,3766,0,20537,0
15252,402,-8230,1164,-41,38,2,-13681,0,-3,-998,-296,37207,344,27,79,0,0,0,0,0,0,0,0,-32316,0,0,0,3766,0,20557,0
15262,432,-8160,1160,-46,43,5,-13683,-5,-4,-993,-296,37208,349,27,79,0,0,0,0,0,0,0,0,-32316,0,0,0,3766,0,20577,0
15272,456,-8188,1172,-44,38,-3,-13683,-11,-2,-1000,-296,37211,343,27,79,0,0,0,0,0,0,0,0,-32316,0,0,0,3765,0,20597,0
15282,504,-8194,1180,-35,43,-4,-13684,0,-5,-997,-304,37220,334,27,79,0,0,0,0,0,0,0,0,-32316,0,0,0,3765,0,20617,0
15292,444,-8180,1188,-46,35,0,-13686,-5,5,-998,-288,37216,339,27,79,0,0,0,0,0,0,0,0,-32316,0,0,0,3764,0,20637,0
15302,490,-8168,1210,-50,36,3,-13687,-5,-1,-998,-304,37209,341,26,79,0,0,0,0,0,0,0,0,-32316,0,0,0,3764,0,20657,0
15312,520,-8198,1188,-51,40,3,-13687,0,-2,-996,-296,37204,340,27,79,0,0,0,0,0,0,0,0,-32316,0,0,0,3763,0,20677,0
15322,490,-8180,1164,-48,36,10,-13688,1,1,-996,-296,37210,338,27,79,0,0,0,0,0,0,0,0,-32316,0,0,0,3763,0,20697,0
15332,504,-8186,1188,-44,42,5,-13688,-3,-3,-999,-296,37211,344,27,79,0,0,0,0,0,0,0,0,-32316,0,0,0,3764,0,20717,0
15342,470,-8168,1152,-47,43,6,-13688,-2,2,-999,-296,37209,350,27,79,0,0,0,0,0,0,0,0,-32315,0,0,0,3764,0,20737,0
15352,442,-8166,1130,-49,38,10,-13689,-3,2,-1000,-296,37207,347,27,79,0,0,0,0,0,0,0,0,-32316,0,0,0,3764,0,20757,0
15362,508,-8198,1142,-51,40,10,-13689,5,2,-998,-288,37211,342,27,79,0,0,0,0,0,0,0,0,-32315,0,0,0,3764,0,20777,0
15372,468,-8194,1170,-45,40,8,-13689,-2,-2,-997,-296,37211,331,27,79,0,0,0,0,0,0,0,0,-32315,0,0,0,3764,0,20797,0
15382,406,-8158,1182,-41,40,10,-13690,2,-6,-998,-296,37216,341,27,79,0,0,0,0,0,0,0,0,-32315,0,0,0,3764,0,20817,0
15392,468,-8186,1188,-49,36,11,-13690,3,-1,-1000,-296,37213,343,27,79,0,0,0,0,0,0,0,0,-32316,0,0,0,3763,0,20837,0
15402,484,-8178,1158,-48,43,10,-13690,2,0,-996,-296,37215,344,27,79,0,0,0,0,0,0,0,0,-32316,0,0,0,3763,0,20857,0
15412,480,-8170,1176,-50,42,13,-13691,-3,2,-997,-304,37213,346,27,79,0,0,0,0,0,0,0,0,-32315,0,0,0,3763,0,20877,0
15422,476,-8166,1206,-56,40,16,-13690,0,0,-996,-296,37213,339,27,79,0,0,0,0,0,0,0,0,-32315,0,0,0,3763,0,20897,0
15432,468,-8212,1198,-51,42,13,-13690,1,2,-998,-288,37212,335,27,79,0,0,0,0,0,0,0,0,-32316,0,0,0,3764,0,20917,0
15442,466,-8180,1184,-57,33,12,-13691,0,2,-998,-304,37211,322,26,79,0,0,0,0,0,0,0,0,-32315,0,0,0,3763,0,20937,0
15452,442,-8186,1144,-55,33,14,-13691,-4,3,-1000,-296,37214,323,26,79,0,0,0,0,0,0,0,0,-32316,0,0,0,3763,0,20957,0
15462,410,-8196,1144,-50,43,9,-13691,0,-1,-998,-296,37214,322,27,79,0,0,0,0,0,0,0,0,-32316,0,0,0,3764,0,20977,0
15472,512,-8176,1142,-51,37,8,-13691,4,-2,-993,-304,37212,333,27,79,0,0,0,0,0,0,0,0,-32315,0,0,0,3763,0,20997,0
15482,446,-8176,1146,-49,37,9,-13690,3,1,-998,-304,37215,337,27,79,0,0,0,0,0,0,0,0,-32316,0,0,0,3763,0,21017,0
15492,442,-8178,1148,-42,38,7,-13691,0,-3,-998,-288,37218,350,27,79,0,0,0,0,0,0,0,0,-32315,0,0,0,3764,0,21037,0
15502,470,-8206,1162,-44,34,6,-13691,1,3,-998,-304,37217,348,27,79,0,0,0,0,0,0,0,0,-32315,0,0,0,3764,0,21057,0
15512,430,-8174,1194,-44,39,6,-13691,0,0,-998,-288,37215,345,27,79,0,0,0,0,0,0,0,0,-32315,0,0,0,3763,0,21077,0
15522,478,-8206,1216,-48,36,4,-13692,1,1,-996,-296,37213,341,27,79,0,0,0,0,0,0,0,0,-32315,0,0,0,3763,0,21097,0
15532,496,-8182,1178,-47,42,1,-13692,0,-1,-998,-304,37215,326,27,79,0,0,0,0,0,0,0,0,-32315,0,0,0,3764,0,21117,0
15542,458,-8184,1182,-54,41,5,-13693,-9,2,-998,-296,37216,324,27,79,0,0,0,0,0,0,0,0,-32315,0,0,0,3763,0,21137,0
15552,416,-8176,1178,-46,37,1,-13691,0,5,-1000,-296,37218,336,27,79,0,0,0,0,0,0,0,0,-32315,0,0,0,3764,0,21157,0
15562,466,-8214,1168,-51,40,-3,-13694,-6,-1,-995,-296,37218,347,27,79,0,0,0,0,0,0,0,0,-32315,0,0,0,3763,0,21177,0
15572,498,-8176,1132,-47,40,6,-13693,-4,-1,-997,-304,37217,339,27,79,0,0,0,0,0,0,0,0,-32315,0,0,0,3764,0,21197,0
15582,484,-8144,1146,-44,38,1,-13692,3,3,-999,-304,37219,334,27,79,0,0,0,0,0,0,0,0,-32316,0,0,0,3764,0,21217,0
15592,452,-8226,1178,-40,35,3,-13694,0,-2,-996,-296,37221,334,27,79,0,0,0,0,0,0,0,0,-32315,0,0,0,3763,0,21237,0
15602,470,-8190,1172,-47,39,2,-13696,1,-6,-994,-304,37224,341,27,79,0,0,0,0,0,0,0,0,-32315,0,0,0,3763,0,21257,0
15612,504,-8172,1166,-47,28,-1,-13695,0,2,-998,-296,37223,343,27,79,0,0,0,0,0,0,0,0,-32315,0,0,0,3763,0,21277,0
15622,486,-8208,1152,-44,37,1,-13696,0,1,-996,-296,37222,333,27,79,0,0,0,0,0,0,0,0,-32315,0,0,0,3764,0,21297,0
15632,466,-8206,1172,-43,32,4,-13696,3,3,-999,-304,37223,331,27,79,0,0,0,0,0,0,0,0,-32315,0,0,0,3762,0,21317,0
15642,490,-8160,1194,-45,36,2,-13698,-4,0,-1002,-296,37225,336,27,79,0,0,0,0,0,0,0,0,-32316,0,0,0,3763,0,21337,0
15652,418,-8210,1156,-47,38,-2,-13698,-1,1,-1000,-296,37225,339,27,79,0,0,0,0,0,0,0,0,-32316,0,0,0,3763,0,21357,0
15662,530,-8182,1152,-42,39,-6,-13698,0,3,-995,-304,37225,334,27,79,0,0,0,0,0,0,0,0,-32316,0,0,0,3763,0,21377,0
15672,492,-8148,1172,-43,30,0,-13697,-2,2,-997,-296,37225,332,27,79,0,0,0,0,0,0,0,0,-32315,0,0,0,3762,0,21397,0
15682,464,-8194,1156,-45,30,3,-13699,-2,3,-1001,-296,37227,337,27,79,0,0,0,0,0,0,0,0,-32315,0,0,0,3763,0,21417,0
15692,478,-8198,1170,-42,32,1,-13700,-5,-3,-998,-296,37226,337,26,79,0,0,0,0,0,0,0,0,-32316,0,0,0,3763,0,21437,0
15702,468,-8172,1170,-43,37,-1,-13700,-3,0,-999,-304,37226,337,27,79,0,0,0,0,0,0,0,0,-32316,0,0,0,3762,0,21457,0
15712,496,-8200,1174,-42,44,5,-13700,0,1,-996,-304,37225,338,27,79,0,0,0,0,0,0,0,0,-32316,0,0,0,3763,0,21477,0
15722,522,-8178,1158,-42,36,4,-13701,-6,-1,-998,-296,37227,326,27,79,0,0,0,0,0,0,0,0,-32315,0,0,0,3762,0,21497,0
15732,480,-8174,1182,-44,38,9,-13701,2,-1,-999,-296,37228,330,27,79,0,0,0,0,0,0,0,0,-32316,0,0,0,3762,0,21517,0
15742,508,-8194,1200,-42,38,8,-13701,1,3,-999,-304,37227,328,27,79,0,0,0,0,0,0,0,0,-32315,0,0,0,3762,0,21537,0
15752,478,-8186,1184,-51,40,5,-13701,-6,-1,-1000,-296,37227,324,27,79,0,0,0,0,0,0,0,0,-32315,0,0,0,3761,0,21557,0
15762,556,-8190,1208,-47,44,9,-13701,0,-3,-995,-304,37227,318,27,79,0,0,0,0,0,0,0,0,-32316,0,0,0,3763,0,21577,0
15772,468,-8178,1160,-53,40,11,-13701,2,-2,-997,-304,37230,321,27,79,0,0,0,0,0,0,0,0,-32316,0,0,0,3762,0,21597,0
15782,508,-8194,1170,-52,41,14,-13703,-2,-4,-999,-296,37232,324,27,79,0,0,0,0,0,0,0,0,-32316,0,0,0,3763,0,21617,0
15792,478,-8144,1156,-49,40,12,-13702,-2,3,-998,-296,37233,324,27,79,0,0,0,0,0,0,0,0,-32315,0,0,0,3763,0,21637,0
15802,444,-8146,1122,-45,40,15,-13702,3,-1,-1000,-296,37233,325,27,79,0,0,0,0,0,0,0,0,-32315,0,0,0,3763,0,21657,0
15812,486,-8162,1150,-41,39,20,-13704,-6,0,-996,-304,37244,322,27,79,0,0,0,0,0,0,0,0,-32316,0,0,0,3762,0,21677,0
15822,508,-8178,1202,-47,39,13,-13703,2,-2,-996,-296,37256,323,27,79,0,0,0,0,0,0,0,0,-32316,0,0,0,3761,0,21697,0
15832,484,-8180,1210,-48,35,15,-13703,-1,3,-998,-304,37266,332,27,79,0,0,0,0,0,0,0,0,-32315,0,0,0,3760,0,21717,0
15842,488,-8222,1210,-53,42,14,-13702,1,0,-997,-304,37266,334,27,79,0,0,0,0,0,0,0,0,-32316,0,0,0,3761,0,21737,0
15852,506,-8172,1202,-50,40,16,-13703,3,-1,-999,-296,37257,337,27,79,0,0,0,0,0,0,0,0,-32315,0,0,0,3762,0,21757,0
15862,556,-8210,1180,-53,41,17,-13703,9,-2,-995,-296,37245,340,27,79,0,0,0,0,0,0,0,0,-32316,0,0,0,3762,0,21778,0
15872,506,-8178,1152,-50,42,22,-13704,-5,0,-996,-304,37235,335,27,79,0,0,0,0,0,0,0,0,-32315,0,0,0,3762,0,21798,0
15882,506,-8190,1142,-53,38,19,-13704,-1,-1,-998,-304,37231,329,27,79,0,0,0,0,0,0,0,0,-32316,0,0,0,3762,0,21817,0
15892,516,-8172,1146,-54,36,23,-13704,-6,-3,-1000,-288,37231,328,27,79,0,0,0,0,0,0,0,0,-32316,0,0,0,3762,0,21837,0
15902,528,-8186,1180,-44,48,18,-13702,0,5,-1000,-296,37232,332,27,79,0,0,0,0,0,0,0,0,-32316,0,0,0,3762,0,21857,0
15912,514,-8176,1196,-49,40,19,-13702,-1,1,-997,-296,37233,328,27,79,0,0,0,0,0,0,0,0,-32315,0,0,0,3762,0,21878,0
15922,470,-8208,1180,-53,41,19,-13702,0,-2,-999,-296,37234,327,27,79,0,0,0,0,0,0,0,0,-32316,0,0,0,3762,0,21898,0
15932,492,-8174,1168,-50,37,18,-13702,1,-1,-999,-296,37234,329,27,79,0,0,0,0,0,0,0,0,-32316,0,0,0,3762,0,21918,0
15942,472,-8180,1176,-49,44,21,-13703,-1,-2,-997,-304,37235,319,27,79,0,0,0,0,0,0,0,0,-32316,0,0,0,3763,0,21938,0
15952,424,-8172,1182,-53,43,21,-13702,1,0,-1000,-296,37232,322,27,79,0,0,0,0,0,0,0,0,-32315,0,0,0,3762,0,21958,0
15962,502,-8174,1204,-52,42,19,-13702,-2,2,-996,-304,37232,315,27,79,0,0,0,0,0,0,0,0,-32315,0,0,0,3763,0,21978,0
15972,530,-8172,1162,-56,40,17,-13702,-1,0,-998,-304,37230,318,27,79,0,0,0,0,0,0,0,0,-32317,0,0,0,3761,0,21998,0
15982,492,-8192,1166,-52,43,24,-13701,10,5,-997,-296,37229,323,27,79,0,0,0,0,0,0,0,0,-32315,0,0,0,3762,0,22018,0
15992,504,-8184,1178,-47,43,22,-13701,3,3,-995,-296,37229,318,26,79,0,0,0,0,0,0,0,0,-32315,0,0,0,3762,0,22038,0
16002,462,-8172,1200,-55,42,18,-13702,-1,1,-999,-296,37230,330,26,79,0,0,0,0,0,0,0,0,-32315,0,0,0,3762,0,22058,0
16012,480,-8162,1172,-53,50,13,-13703,0,-2,-997,-296,37229,315,27,79,0,0,0,0,0,0,0,0,-32315,0,0,0,3763,0,22079,0
16022,452,-8188,1164,-58,41,19,-13702,0,0,-994,-304,37229,318,26,79,0,0,0,0,0,0,0,0,-32316,0,0,0,3763,0,22099,0
16032,448,-8198,1166,-47,43,18,-13701,1,1,-1002,-296,37228,316,26,79,0,0,0,0,0,0,0,0,-32315,0,0,0,3762,0,22119,0
16042,472,-8190,1178,-54,43,11,-13703,-7,-3,-995,-312,37229,311,27,79,0,0,0,0,0,0,0,0,-32315,0,0,0,3762,0,22139,0
16052,498,-8200,1154,-49,44,11,-13702,3,-4,-999,-296,37227,315,27,79,0,0,0,0,0,0,0,0,-32316,0,0,0,3762,0,22159,0
16062,504,-8198,1150,-47,45,5,-13701,4,0,-995,-296,37224,313,27,79,0,0,0,0,0,0,0,0,-32315,0,0,0,3762,0,22179,0
16072,508,-8158,1200,-46,35,5,-13703,-8,-3,-995,-304,37226,314,27,79,0,0,0,0,0,0,0,0,-32316,0,0,0,3761,0,22199,0
16082,442,-8192,1210,-51,38,7,-13702,1,1,-998,-296,37227,328,27,79,0,0,0,0,0,0,0,0,-32315,0,0,0,3762,0,22219,0
16092,486,-8198,1180,-51,40,6,-13703,-1,0,-996,-304,37229,328,27,79,0,0,0,0,0,0,0,0,-32316,0,0,0,3762,0,22239,0
16102,470,-8158,1168,-51,47,9,-13703,-3,-2,-997,-312,37226,322,27,79,0,0,0,0,0,0,0,0,-32316,0,0,0,3762,0,22259,0
16112,488,-8200,1150,-50,36,5,-13704,-2,-5,-998,-296,37223,315,27,79,0,0,0,0,0,0,0,0,-32315,0,0,0,3762,0,22279,0
16122,512,-8174,1168,-53,35,5,-13703,-3,-2,-998,-304,37226,312,27,79,0,0,0,0,0,0,0,0,-32316,0,0,0,3762,0,22299,0
16132,502,-8172,1170,-49,39,7,-13703,0,-3,-998,-296,37229,314,27,79,0,0,0,0,0,0,0,0,-32315,0,0,0,3761,0,22319,0
16142,412,-8178,1166,-47,37,6,-13703,1,1,-994,-312,37230,310,27,79,0,0,0,0,0,0,0,0,-32315,0,0,0,3762,0,22339,0
16152,450,-8178,1140,-44,33,6,-13704,2,-1,-999,-296,37226,313,27,79,0,0,0,0,0,0,0,0,-32315,0,0,0,3762,0,22359,0
16162,498,-8204,1160,-45,40,-2,-13703,-1,0,-996,-296,37224,312,27,79,0,0,0,0,0,0,0,0,-32315,0,0,0,3762,0,22379,0
16172,474,-8194,1188,-44,34,0,-13705,1,-3,-999,-296,37225,305,27,79,0,0,0,0,0,0,0,0,-32315,0,0,0,3762,0,22399,0
16182,502,-8194,1202,-49,38,2,-13706,0,3,-1000,-304,37225,307,27,79,0,0,0,0,0,0,0,0,-32315,0,0,0,3762,0,22419,0
16192,502,-8204,1182,-48,38,2,-13707,-3,1,-998,-304,37227,309,27,79,0,0,0,0,0,0,0,0,-32315,0,0,0,3761,0,22439,0
16202,536,-8180,1190,-43,33,8,-13708,-9,-2,-997,-296,37225,311,27,79,0,0,0,0,0,0,0,0,-32315,0,0,0,3761,0,22459,0
16212,504,-8220,1176,-38,1,10,-13706,4,6,-997,-296,37222,308,27,79,0,0,0,0,0,0,0,0,-32315,0,0,0,3761,0,22479,0
16222,488,-8118,1126,-54,44,11,-13708,-1,0,-994,-304,37227,308,27,79,0,0,0,0,0,0,0,0,-32316,0,0,0,3761,0,22499,0
16232,428,-8168,1172,-52,46,12,-13708,7,-1,-1001,-288,37229,304,27,79,0,0,0,0,0,0,0,0,-32315,0,0,0,3762,0,22519,0
16242,474,-8186,1170,-52,43,8,-13709,1,4,-997,-304,37229,307,27,79,0,0,0,0,0,0,0,0,-32315,0,0,0,3762,0,22539,0
16252,560,-8198,1162,-50,38,14,-13709,4,4,-995,-304,37227,305,27,79,0,0,0,0,0,0,0,0,-32315,0,0,0,3762,0,22559,0
16262,546,-8184,1154,-49,36,13,-13710,3,2,-998,-296,37221,305,27,79,0,0,0,0,0,0,0,0,-32315,0,0,0,3763,0,22579,0
16272,546,-8170,1208,-49,36,19,-13711,-1,1,-996,-304,37223,313,27,79,0,0,0,0,0,0,0,0,-32316,0,0,0,3761,0,22599,0
16282,512,-8174,1226,-51,46,18,-13711,-7,-1,-999,-296,37225,312,27,79,0,0,0,0,0,0,0,0,-32315,0,0,0,3762,0,22619,0
16292,544,-8198,1190,-52,44,16,-13710,2,0,-996,-304,37224,314,27,79,0,0,0,0,0,0,0,0,-32316,0,0,0,3763,0,22639,0
16302,478,-8200,1198,-56,44,20,-13710,0,-2,-999,-304,37222,318,27,79,0,0,0,0,0,0,0,0,-32316,0,0,0,3763,0,22659,0
16312,468,-8182,1172,-51,43,24,-13710,-4,-1,-996,-296,37221,318,27,79,0,0,0,0,0,0,0,0,-32315,0,0,0,3761,0,22679,0
16322,466,-8172,1170,-59,42,17,-13710,-8,-5,-996,-304,37220,316,27,79,0,0,0,0,0,0,0,0,-32316,0,0,0,3762,0,22699,0
16332,454,-8190,1174,-50,48,17,-13709,2,-1,-1002,-304,37226,306,27,79,0,0,0,0,0,0,0,0,-32315,0,0,0,3762,0,22719,0
16342,534,-8156,1152,-52,46,19,-13710,-4,-2,-998,-304,37226,308,27,79,0,0,0,0,0,0,0,0,-32316,0,0,0,3762,0,22739,0
16352,494,-8164,1144,-49,39,16,-13709,1,2,-997,-304,37225,313,27,79,0,0,0,0,0,0,0,0,-32316,0,0,0,3761,0,22759,0
16362,452,-8198,1170,-51,39,19,-13710,-6,-3,-1000,-296,37219,311,27,79,0,0,0,0,0,0,0,0,-32316,0,0,0,3762,0,22779,0
16372,532,-8164,1192,-50,39,18,-13709,1,1,-994,-304,37221,305,27,79,0,0,0,0,0,0,0,0,-32315,0,0,0,3761,0,22799,0
16382,472,-8152,1188,-50,39,20,-13709,2,2,-1000,-296,37222,301,27,79,0,0,0,0,0,0,0,0,-32316,0,0,0,3763,0,22819,0
16392,506,-8206,1194,-51,43,18,-13710,0,2,-999,-296,37221,302,27,79,0,0,0,0,0,0,0,0,-32315,0,0,0,3762,0,22839,0
16402,512,-8176,1184,-52,41,19,-13709,-1,-2,-994,-304,37218,305,27,79,0,0,0,0,0,0,0,0,-32316,0,0,0,3761,0,22859,0
16412,466,-8172,1168,-50,44,8,-13709,-5,0,-998,-288,37219,303,27,79,0,0,0,0,0,0,0,0,-32316,0,0,0,3762,0,22879,0
16422,446,-8200,1172,-53,41,15,-13709,-3,1,-997,-296,37223,302,27,79,0,0,0,0,0,0,0,0,-32316,0,0,0,3761,0,22899,0
16432,460,-8176,1184,-50,41,16,-13710,3,1,-999,-296,37226,305,27,79,0,0,0,0,0,0,0,0,-32316,0,0,0,3761,0,22919,0
16442,486,-8190,1174,-53,46,20,-13710,-7,2,-996,-304,37227,304,27,79,0,0,0,0,0,0,0,0,-32316,0,0,0,3761,0,22939,0
16452,482,-8204,1192,-57,39,22,-13709,-2,-2,-998,-304,37226,301,27,79,0,0,0,0,0,0,0,0,-32316,0,0,0,3762,0,22959,0
16462,514,-8190,1170,-52,46,15,-13709,0,-1,-997,-288,37228,293,27,79,0,0,0,0,0,0,0,0,-32316,0,0,0,3762,0,22979,0
16472,502,-8204,1120,-55,40,19,-13710,-5,-1,-997,-296,37226,286,27,79,0,0,0,0,0,0,0,0,-32316,0,0,0,3762,0,22999,0
16482,522,-8180,1160,-48,41,19,-13708,10,4,-998,-304,37228,295,27,79,0,0,0,0,0,0,0,0,-32316,0,0,0,3763,0,23019,0
16492,516,-8170,1194,-49,42,17,-13709,4,2,-999,-296,37231,303,27,79,0,0,0,0,0,0,0,0,-32316,0,0,0,3761,0,23039,0
16502,492,-8162,1176,-52,38,20,-13709,0,1,-994,-312,37231,303,27,79,0,0,0,0,0,0,0,0,-32316,0,0,0,3762,0,23059,0
16512,468,-8192,1190,-57,38,18,-13709,0,0,-996,-296,37234,296,27,79,0,0,0,0,0,0,0,0,-32316,0,0,0,3762,0,23079,0
16522,464,-8196,1174,-54,42,20,-13709,2,0,-995,-304,37231,300,27,79,0,0,0,0,0,0,0,0,-32315,0,0,0,3763,0,23099,0
16532,480,-8152,1164,-56,44,16,-13708,6,-1,-1001,-296,37229,305,27,79,0,0,0,0,0,0,0,0,-32315,0,0,0,3763,0,23119,0
16542,484,-8176,1162,-49,39,22,-13710,0,-5,-999,-296,37232,306,27,79,0,0,0,0,0,0,0,0,-32316,0,0,0,3762,0,23139,0
16552,492,-8186,1174,-54,45,24,-13709,-4,0,-996,-304,37232,307,27,79,0,0,0,0,0,0,0,0,-32316,0,0,0,3762,0,23159,0
16562,538,-8184,1172,-51,43,23,-13708,3,-3,-996,-296,37231,306,27,79,0,0,0,0,0,0,0,0,-32315,0,0,0,3762,0,23179,0
16572,506,-8210,1156,-54,41,21,-13708,-7,0,-997,-296,37224,314,27,79,0,0,0,0,0,0,0,0,-32315,0,0,0,3762,0,23199,0
16582,460,-8204,1156,-55,34,21,-13708,-4,-2,-998,-304,37223,314,27,79,0,0,0,0,0,0,0,0,-32316,0,0,0,3763,0,23219,0
16592,450,-8180,1150,-48,42,15,-13708,1,0,-998,-304,37227,308,27,79,0,0,0,0,0,0,0,0,-32315,0,0,0,3761,0,23239,0
16602,388,-8198,1154,-47,39,17,-13709,-1,-4,-997,-304,37228,311,27,79,0,0,0,0,0,0,0,0,-32315,0,0,0,3762,0,23259,0
16612,468,-8184,1166,-53,37,12,-13708,5,-1,-995,-296,37227,317,27,79,0,0,0,0,0,0,0,0,-32315,0,0,0,3763,0,23279,0
16622,474,-8152,1182,-56,44,10,-13708,-2,3,-995,-304,37227,316,27,79,0,0,0,0,0,0,0,0,-32315,0,0,0,3762,0,23299,0
16632,450,-8186,1152,-50,39,16,-13707,8,-2,-1000,-296,37231,310,27,79,0,0,0,0,0,0,0,0,-32316,0,0,0,3762,0,23319,0
16642,536,-8182,1156,-55,39,14,-13708,-6,2,-998,-296,37242,312,27,79,0,0,0,0,0,0,0,0,-32315,0,0,0,3762,0,23339,0
16652,464,-8184,1168,-54,41,18,-13708,2,-1,-999,-296,37239,314,27,79,0,0,0,0,0,0,0,0,-32315,0,0,0,3762,0,23359,0
16662,526,-8194,1152,-46,44,16,-13709,5,1,-998,-296,37236,309,27,79,0,0,0,0,0,0,0,0,-32315,0,0,0,3763,0,23379,0
16672,542,-8188,1160,-53,40,15,-13707,4,6,-994,-304,37230,300,27,79,0,0,0,0,0,0,0,0,-32316,0,0,0,3761,0,23399,0
16682,442,-8164,1152,-43,40,13,-13708,3,3,-1000,-296,37235,296,27,79,0,0,0,0,0,0,0,0,-32316,0,0,0,3762,0,23419,0
16692,454,-8188,1168,-49,46,11,-13709,-3,-1,-997,-304,37235,304,27,79,0,0,0,0,0,0,0,0,-32315,0,0,0,3762,0,23439,0
16702,478,-8184,1142,-47,43,9,-13707,5,4,-996,-296,37230,307,27,79,0,0,0,0,0,0,0,0,-32316,0,0,0,3762,0,23459,0
16712,480,-8158,1134,-47,41,10,-13707,9,6,-998,-296,37230,310,27,79,0,0,0,0,0,0,0,0,-32315,0,0,0,3761,0,23479,0
16722,424,-8176,1178,-41,42,15,-13709,-3,0,-997,-304,37233,305,27,79,0,0,0,0,0,0,0,0,-32316,0,0,0,3762,0,23499,0
16732,442,-8180,1196,-46,39,12,-13709,1,-4,-998,-304,37236,299,27,79,0,0,0,0,0,0,0,0,-32315,0,0,0,3762,0,23519,0
16742,458,-8192,1160,-49,41,12,-13710,-4,-3,-998,-304,37236,299,27,79,0,0,0,0,0,0,0,0,-32315,0,0,0,3762,0,23539,0
16752,444,-8176,1156,-47,36,14,-13708,1,2,-1000,-296,37235,299,27,79,0,0,0,0,0,0,0,0,-32315,0,0,0,3762,0,23559,0
16762,458,-8186,1184,-48,38,17,-13709,-1,-3,-996,-296,37238,299,27,79,0,0,0,0,0,0,0,0,-32316,0,0,0,3763,0,23580,0
16772,462,-8208,1202,-48,46,19,-13708,3,4,-994,-304,37239,301,27,79,0,0,0,0,0,0,0,0,-32315,0,0,0,3762,0,23599,0
16782,512,-8174,1192,-49,38,13,-13708,-3,5,-999,-296,37238,303,27,79,0,0,0,0,0,0,0,0,-32315,0,0,0,3762,0,23619,0
16792,514,-8188,1174,-52,42,17,-13709,-1,-2,-994,-304,37237,311,27,79,0,0,0,0,0,0,0,0,-32315,0,0,0,3761,0,23639,0
16802,448,-8168,1188,-52,40,18,-13708,2,2,-996,-296,37238,305,27,79,0,0,0,0,0,0,0,0,-32315,0,0,0,3763,0,23659,0
16812,470,-8170,1172,-48,37,15,-13708,-4,-1,-999,-296,37240,302,27,79,0,0,0,0,0,0,0,0,-32315,0,0,0,3762,0,23680,0
16822,478,-8182,1168,-53,40,19,-13709,4,1,-995,-312,37239,301,27,79,0,0,0,0,0,0,0,0,-32315,0,0,0,3762,0,23700,0
16832,478,-8196,1174,-52,41,16,-13709,-9,-3,-999,-304,37237,310,27,79,0,0,0,0,0,0,0,0,-32316,0,0,0,3761,0,23720,0
16842,498,-8156,1168,-47,39,22,-13709,-3,-3,-993,-320,37236,311,27,79,0,0,0,0,0,0,0,0,-32315,0,0,0,3762,0,23740,0
16852,458,-8182,1184,-54,43,21,-13709,1,0,-996,-304,37246,316,27,79,0,0,0,0,0,0,0,0,-32316,0,0,0,3762,0,23759,0
16862,488,-8186,1178,-53,46,20,-13709,-2,1,-998,-296,37247,316,27,79,0,0,0,0,0,0,0,0,-32316,0,0,0,3762,0,23780,0
16872,514,-8166,1146,-50,38,14,-13710,-3,-4,-996,-304,37247,311,27,79,0,0,0,0,0,0,0,0,-32316,0,0,0,3762,0,23800,0
16882,502,-8196,1158,-52,40,18,-13708,0,0,-1002,-296,37241,304,27,79,0,0,0,0,0,0,0,0,-32315,0,0,0,3762,0,23820,0
16892,472,-8196,1160,-52,38,21,-13709,-5,-4,-997,-304,37244,300,27,79,0,0,0,0,0,0,0,0,-32315,0,0,0,3762,0,23840,0
16902,480,-8154,1186,-57,47,17,-13709,1,-3,-999,-296,37243,304,27,79,0,0,0,0,0,0,0,0,-32315,0,0,0,3762,0,23860,0
16912,460,-8186,1162,-57,40,23,-13709,-1,0,-998,-304,37241,307,27,79,0,0,0,0,0,0,0,0,-32315,0,0,0,3763,0,23880,0
16922,480,-8170,1158,-52,36,22,-13708,1,-1,-994,-304,37239,312,27,79,0,0,0,0,0,0,0,0,-32315,0,0,0,3762,0,23900,0
16932,496,-8172,1152,-54,41,24,-13710,-4,-3,-1000,-296,37241,309,27,79,0,0,0,0,0,0,0,0,-32315,0,0,0,3762,0,23920,0
16942,560,-8196,1170,-50,40,24,-13708,0,2,-997,-304,37243,318,27,79,0,0,0,0,0,0,0,0,-32316,0,0,0,3762,0,23940,0
16952,456,-8182,1196,-53,39,29,-13706,2,8,-999,-296,37241,309,27,79,0,0,0,0,0,0,0,0,-32315,0,0,0,3762,0,23960,0
16962,534,-8168,1200,-58,45,21,-13708,3,-5,-1001,-296,37242,302,27,79,0,0,0,0,0,0,0,0,-32315,0,0,0,3763,0,23980,0
16972,506,-8172,1184,-56,44,27,-13707,7,2,-997,-312,37243,302,27,79,0,0,0,0,0,0,0,0,-32317,0,0,0,3763,0,24000,0
16982,450,-8182,1164,-59,49,28,-13708,-4,1,-1001,-296,37245,297,27,79,0,0,0,0,0,0,0,0,-32315,0,0,0,3762,0,24020,0
16992,488,-8164,1158,-56,45,21,-13706,2,3,-996,-304,37239,299,27,79,0,0,0,0,0,0,0,0,-32316,0,0,0,3761,0,24040,0
17002,448,-8200,1150,-56,43,23,-13707,1,0,-997,-304,37232,307,27,79,0,0,0,0,0,0,0,0,-32316,0,0,0,3761,0,24060,0
17012,414,-8172,1146,-55,41,21,-13707,-1,1,-997,-304,37228,310,27,79,0,0,0,0,0,0,0,0,-32315,0,0,0,3763,0,24081,0
17022,474,-8160,1116,-54,40,20,-13706,5,1,-998,-296,37225,310,27,79,0,0,0,0,0,0,0,0,-32316,0,0,0,3761,0,24101,0
17032,448,-8196,1156,-53,43,23,-13707,6,-1,-997,-304,37226,306,27,79,0,0,0,0,0,0,0,0,-32316,0,0,0,3763,0,24121,0
17042,424,-8194,1168,-51,40,20,-13707,-1,1,-999,-296,37220,312,27,79,0,0,0,0,0,0,0,0,-32315,0,0,0,3762,0,24141,0
17052,384,-8192,1178,-51,38,17,-13707,-6,1,-1001,-304,37225,318,27,79,0,0,0,0,0,0,0,0,-32315,0,0,0,3762,0,24161,0
17062,498,-8188,1156,-56,39,12,-13707,0,-1,-995,-312,37233,311,27,79,0,0,0,0,0,0,0,0,-32315,0,0,0,3761,0,24181,0
17072,518,-8182,1178,-49,33,17,-13706,1,0,-996,-296,37231,312,27,79,0,0,0,0,0,0,0,0,-32316,0,0,0,3762,0,24201,0
17082,416,-8162,1184,-53,47,15,-13706,5,0,-999,-304,37228,313,27,79,0,0,0,0,0,0,0,0,-32316,0,0,0,3763,0,24221,0
17092,504,-8198,1172,-55,47,15,-13707,-1,2,-999,-296,37222,320,27,79,0,0,0,0,0,0,0,0,-32316,0,0,0,3763,0,24241,0
17102,490,-8178,1190,-54,39,18,-13706,4,-2,-997,-304,37215,322,27,79,0,0,0,0,0,0,0,0,-32316,0,0,0,3762,0,24261,0
17112,442,-8166,1160,-46,39,15,-13708,-10,-1,-998,-304,37218,318,27,79,0,0,0,0,0,0,0,0,-32316,0,0,0,3763,0,24281,0
17122,466,-8204,1194,-50,41,18,-13707,2,-3,-999,-296,37215,317,27,79,0,0,0,0,0,0,0,0,-32316,0,0,0,3763,0,24301,0
17132,460,-8154,1170,-46,49,18,-13707,-1,0,-998,-304,37210,325,27,79,0,0,0,0,0,0,0,0,-32316,0,0,0,3763,0,24321,0
17142,430,-8162,1158,-52,43,15,-13709,-11,-3,-1001,-304,37204,336,27,79,0,0,0,0,0,0,0,0,-32315,0,0,0,3763,0,24341,0
17152,466,-8200,1146,-55,40,19,-13708,-3,2,-995,-304,37202,344,27,79,0,0,0,0,0,0,0,0,-32315,0,0,0,3763,0,24361,0
17162,502,-8208,1152,-56,40,16,-13707,-4,-3,-998,-296,37199,339,27,79,0,0,0,0,0,0,0,0,-32316,0,0,0,3763,0,24381,0
17172,530,-8156,1132,-46,43,13,-13706,-6,-1,-998,-296,37201,334,27,79,0,0,0,0,0,0,0,0,-32316,0,0,0,3763,0,24401,0
17182,508,-8214,1132,-49,40,15,-13707,-2,-4,-996,-304,37206,337,27,79,0,0,0,0,0,0,0,0,-32315,0,0,0,3764,0,24421,0
17192,506,-8210,1168,-48,40,17,-13706,4,-2,-998,-304,37201,345,27,79,0,0,0,0,0,0,0,0,-32315,0,0,0,3763,0,24441,0
17202,402,-8188,1180,-48,36,14,-13706,2,0,-1000,-304,37194,349,27,79,0,0,0,0,0,0,0,0,-32316,0,0,0,3763,0,24461,0
17212,476,-8184,1184,-46,42,10,-13707,7,-4,-996,-296,37190,348,27,79,0,0,0,0,0,0,0,0,-32316,0,0,0,3763,0,24481,0
17222,458,-8202,1186,-47,43,15,-13707,0,0,-995,-304,37190,347,27,79,0,0,0,0,0,0,0,0,-32315,0,0,0,3762,0,24501,0
17232,426,-8140,1174,-48,38,13,-13707,-2,-2,-998,-304,37195,351,27,79,0,0,0,0,0,0,0,0,-32315,0,0,0,3762,0,24521,0
17242,466,-8164,1170,-53,31,18,-13707,-3,1,-999,-296,37196,358,27,79,0,0,0,0,0,0,0,0,-32315,0,0,0,3761,0,24541,0
17252,444,-8178,1186,-46,44,20,-13706,-3,1,-1001,-296,37192,354,27,79,0,0,0,0,0,0,0,0,-32315,0,0,0,3763,0,24561,0
17262,478,-8188,1178,-49,41,10,-13707,2,1,-1000,-296,37192,345,27,79,0,0,0,0,0,0,0,0,-32315,0,0,0,3761,0,24581,0
17272,502,-8158,1164,-51,36,19,-13707,-6,1,-997,-304,37199,353,27,79,0,0,0,0,0,0,0,0,-32315,0,0,0,3763,0,24601,0
17282,514,-8214,1162,-48,39,14,-13705,2,6,-997,-304,37199,348,27,79,0,0,0,0,0,0,0,0,-32316,0,0,0,3762,0,24621,0
17292,514,-8192,1182,-50,40,17,-13707,0,-1,-999,-296,37194,340,27,79,0,0,0,0,0,0,0,0,-32316,0,0,0,3763,0,24641,0
17302,448,-8194,1148,-47,38,19,-13707,1,2,-997,-304,37194,340,27,79,0,0,0,0,0,0,0,0,-32316,0,0,0,3762,0,24661,0
17312,408,-8188,1162,-52,45,15,-13706,1,-4,-999,-296,37193,342,27,79,0,0,0,0,0,0,0,0,-32316,0,0,0,3762,0,24681,0
17322,456,-8170,1158,-51,44,13,-13707,-3,1,-1000,-296,37194,349,27,79,0,0,0,0,0,0,0,0,-32315,0,0,0,3762,0,24701,0
17332,116,-8558,1254,-24,6,159,-13679,125,45,-321,0,37194,339,27,79,0,0,0,0,0,0,0,0,-32315,0,0,0,3764,0,24721,0
17342,1636,-8086,792,-27,-118,180,-13616,115,143,-226,0,37195,334,27,79,0,0,0,0,0,0,0,0,-32316,0,0,0,3770,0,24741,0
17352,378,-8258,1308,-7,-264,202,-13576,87,11,-151,0,37198,326,27,79,0,0,0,0,0,0,0,0,-32315,0,0,0,3775,0,24761,0
17362,568,-8166,1126,1,-356,174,-13539,80,-39,-140,0,37197,328,27,79,0,0,0,0,0,0,0,0,-32315,0,0,0,3782,0,24782,0
17372,164,-8202,1302,-42,-255,151,-13512,70,-23,-116,0,37193,333,27,79,0,0,0,0,0,0,0,0,-32316,0,0,0,3789,0,24803,0
17382,350,-8178,1266,-41,-162,113,-13487,40,-21,-80,0,37198,342,27,79,0,0,0,0,0,0,0,0,-32315,0,0,0,3795,0,24823,0
17392,-50,-8174,1198,-62,43,40,-13484,0,-52,-11,0,37198,351,27,79,0,0,0,0,0,0,0,0,-32315,0,0,0,3798,0,24843,0
17402,-2,-8230,1278,-58,133,6,-13484,1,-42,-7,0,37202,363,27,79,0,0,0,0,0,0,0,0,-32315,0,0,0,3797,0,24863,0
17412,362,-8190,1188,-83,215,-18,-13483,1,-5,4,0,37197,366,27,79,0,0,0,0,0,0,0,0,-32315,0,0,0,3794,0,24883,0
17422,548,-8198,1124,-75,182,-17,-13484,-5,-2,4,0,37192,366,27,79,0,0,0,0,0,0,0,0,-32315,0,0,0,3792,0,24903,0
17432,708,-8168,1104,-55,68,4,-13484,3,1,2,0,37193,367,27,79,0,0,0,0,0,0,0,0,-32316,0,0,0,3790,0,24923,0
17442,658,-8208,1100,-50,10,23,-13484,3,3,-4,0,37195,358,27,79,0,0,0,0,0,0,0,0,-32315,0,0,0,3790,0,24943,0
17452,476,-8178,1128,-45,-24,37,-13485,-3,2,-3,0,37195,362,27,79,0,0,0,0,0,0,0,0,-32316,0,0,0,3790,0,24963,0
17462,392,-8196,1138,-41,-2,33,-13483,1,-2,-3,0,37194,358,27,79,0,0,0,0,0,0,0,0,-32315,0,0,0,3792,0,24983,0
17472,356,-8172,1172,-46,43,19,-13483,3,-1,-2,0,37195,362,27,79,0,0,0,0,0,0,0,0,-32315,0,0,0,3792,0,25003,0
17482,374,-8162,1164,-48,66,12,-13483,0,2,-2,0,37204,360,27,79,0,0,0,0,0,0,0,0,-32315,0,0,0,3792,0,25023,0
17492,466,-8192,1198,-44,66,16,-13483,-5,-1,0,0,37206,371,27,79,0,0,0,0,0,0,0,0,-32315,0,0,0,3792,0,25043,0
17502,470,-8162,1206,-55,50,15,-13484,-1,-6,0,0,37201,371,27,79,0,0,0,0,0,0,0,0,-32316,0,0,0,3790,0,25063,0
17512,458,-8168,1190,-51,42,18,-13483,0,0,-1,0,37196,354,27,79,0,0,0,0,0,0,0,0,-32316,0,0,0,3792,0,25083,0
17522,460,-8170,1148,-53,45,14,-13483,3,0,0,0,37200,350,27,79,0,0,0,0,0,0,0,0,-32315,0,0,0,3792,0,25103,0
17532,468,-8196,1148,-58,49,22,-13483,0,-4,-2,0,37206,360,27,79,0,0,0,0,0,0,0,0,-32315,0,0,0,3792,0,25123,0
17542,472,-8170,1150,-50,51,20,-13483,-5,-1,-2,0,37203,371,27,79,0,0,0,0,0,0,0,0,-32316,0,0,0,3792,0,25143,0
17552,434,-8182,1170,-45,52,21,-13482,-3,1,0,0,37199,368,27,79,0,0,0,0,0,0,0,0,-32315,0,0,0,3791,0,25163,0
17562,460,-8198,1192,-46,52,24,-13482,-8,3,-2,0,37200,365,27,79,0,0,0,0,0,0,0,0,-32316,0,0,0,3791,0,25183,0
17572,440,-8164,1176,-53,46,24,-13481,0,1,-5,0,37206,365,27,79,0,0,0,0,0,0,0,0,-32315,0,0,0,3791,0,25203,0
17582,424,-8178,1190,-55,47,22,-13481,1,-1,-6,0,37205,367,27,79,0,0,0,0,0,0,0,0,-32315,0,0,0,3791,0,25223,0
17592,438,-8192,1156,-58,44,18,-13480,0,2,-9,0,37201,361,27,79,0,0,0,0,0,0,0,0,-32316,0,0,0,3790,0,25243,0
17602,422,-8186,1130,-57,44,24,-13479,-1,-1,-6,0,37201,355,27,79,0,0,0,0,0,0,0,0,-32316,0,0,0,3790,0,25263,0
17612,444,-8186,1146,-53,46,20,-13478,0,-1,-8,0,37209,350,27,79,0,0,0,0,0,0,0,0,-32315,0,0,0,3792,0,25283,0
17622,420,-8172,1150,-50,50,20,-13477,3,1,-7,0,37209,360,27,79,0,0,0,0,0,0,0,0,-32315,0,0,0,3790,0,25303,0
17632,446,-8164,1148,-47,41,18,-13474,10,6,-7,0,37204,363,27,79,0,0,0,0,0,0,0,0,-32316,0,0,0,3791,0,25323,0
17642,448,-8200,1174,-47,32,24,-13474,0,2,-11,0,37204,365,27,79,0,0,0,0,0,0,0,0,-32316,0,0,0,3790,0,25343,0
17652,426,-8182,1180,-54,33,24,-13472,3,0,-12,0,37209,354,27,79,0,0,0,0,0,0,0,0,-32316,0,0,0,3792,0,25363,0
17662,448,-8174,1192,-55,28,25,-13469,8,6,-16,0,37213,346,27,79,0,0,0,0,0,0,0,0,-32315,0,0,0,3792,0,25383,0
17672,458,-8216,1136,-57,20,32,-13464,6,6,-28,0,37207,347,27,79,0,0,0,0,0,0,0,0,-32316,0,0,0,3792,0,25403,0
17682,480,-8192,1144,-54,-1,44,-13454,24,12,-55,0,37206,349,27,79,0,0,0,0,0,0,0,0,-32316,0,0,0,3794,0,25423,0
17692,596,-8152,1128,-43,-68,62,-13438,40,21,-80,0,37209,346,27,79,0,0,0,0,0,0,0,0,-32316,0,0,0,3797,0,25443,0
17702,548,-8188,1162,-32,-115,60,-13427,13,-3,-40,0,37222,338,27,79,0,0,0,0,0,0,0,0,-32316,0,0,0,3799,0,25463,0
17712,302,-8188,1106,-39,-79,56,-13424,1,-25,-18,0,37224,348,27,79,0,0,0,0,0,0,0,0,-32316,0,0,0,3801,0,25483,0
17722,118,-8200,1306,-54,7,32,-13420,5,-8,-19,0,37221,353,27,79,0,0,0,0,0,0,0,0,-32316,0,0,0,3802,0,25503,0
17732,284,-8206,1176,-46,68,-2,-13418,2,-6,-11,0,37214,345,27,79,0,0,0,0,0,0,0,0,-32316,0,0,0,3803,0,25523,0
17742,446,-8196,1098,-41,67,-9,-13418,-2,-6,3,0,37213,332,27,79,0,0,0,0,0,0,0,0,-32316,0,0,0,3803,0,25543,0
17752,538,-8202,1188,-42,33,5,-13417,8,-2,1,0,37213,338,27,79,0,0,0,0,0,0,0,0,-32316,0,0,0,3802,0,25563,0
17762,508,-8182,1220,-45,15,6,-13418,0,2,0,0,37209,345,27,79,0,0,0,0,0,0,0,0,-32316,0,0,0,3802,0,25583,0
17772,394,-8186,1218,-55,23,12,-13418,3,1,0,0,37207,338,27,79,0,0,0,0,0,0,0,0,-32316,0,0,0,3802,0,25603,0
17782,424,-8192,1160,-55,37,11,-13418,3,5,0,0,37211,325,27,79,0,0,0,0,0,0,0,0,-32316,0,0,0,3802,0,25623,0
17792,470,-8200,1110,-50,39,17,-13418,0,3,-1,0,37217,328,27,79,0,0,0,0,0,0,0,0,-32316,0,0,0,3802,0,25643,0
17802,472,-8182,1118,-43,37,18,-13418,2,1,3,0,37217,330,27,79,0,0,0,0,0,0,0,0,-32316,0,0,0,3802,0,25663,0
17812,462,-8224,1186,-47,33,15,-13418,0,-1,0,0,37215,323,27,79,0,0,0,0,0,0,0,0,-32316,0,0,0,3802,0,25683,0
17822,408,-8180,1214,-51,42,14,-13418,-7,0,0,0,37220,318,27,79,0,0,0,0,0,0,0,0,-32316,0,0,0,3802,0,25703,0
17832,474,-8160,1204,-51,45,14,-13418,2,-2,-1,0,37227,324,27,79,0,0,0,0,0,0,0,0,-32315,0,0,0,3802,0,25723,0
17842,452,-8188,1200,-51,45,12,-13418,-1,0,0,0,37227,336,27,79,0,0,0,0,0,0,0,0,-32315,0,0,0,3802,0,25743,0
17852,472,-8150,1172,-55,37,17,-13419,-6,-1,0,0,37221,345,27,79,0,0,0,0,0,0,0,0,-32316,0,0,0,3803,0,25763,0
17862,464,-8182,1140,-53,33,19,-13417,9,1,-3,0,37221,342,27,79,0,0,0,0,0,0,0,0,-32316,0,0,0,3802,0,25785,0
17872,420,-8192,1184,-53,44,15,-13417,4,1,0,0,37224,337,27,79,0,0,0,0,0,0,0,0,-32315,0,0,0,3802,0,25808,0
17882,438,-8186,1176,-51,41,18,-13418,-2,-4,-1,0,37224,341,27,79,0,0,0,0,0,0,0,0,-32316,0,0,0,3802,0,25828,0
17892,440,-8212,1138,-52,41,21,-13417,0,4,0,0,37216,343,27,79,0,0,0,0,0,0,0,0,-32315,0,0,0,3803,0,25848,0
17902,454,-8200,1170,-47,40,19,-13416,3,4,2,0,37213,339,27,79,0,0,0,0,0,0,0,0,-32316,0,0,0,3802,0,25868,0
17912,422,-8168,1150,-52,32,20,-13418,-5,0,-2,0,37217,331,27,79,0,0,0,0,0,0,0,0,-32316,0,0,0,3802,0,25888,0
17922,412,-8188,1168,-49,31,13,-13418,4,-3,0,0,37221,336,27,79,0,0,0,0,0,0,0,0,-32315,0,0,0,3802,0,25908,0
17932,430,-8172,1192,-55,36,9,-13416,12,1,0,0,37219,346,27,79,0,0,0,0,0,0,0,0,-32315,0,0,0,3802,0,25928,0
17942,444,-8166,1178,-48,40,16,-13418,-1,0,0,0,37215,343,27,79,0,0,0,0,0,0,0,0,-32315,0,0,0,3802,0,25949,0
17952,422,-8196,1158,-50,34,16,-13417,7,5,0,0,37216,331,27,79,0,0,0,0,0,0,0,0,-32316,0,0,0,3801,0,25969,0
17962,436,-8210,1164,-51,30,12,-13417,2,2,-1,0,37222,318,27,79,0,0,0,0,0,0,0,0,-32315,0,0,0,3802,0,25989,0
17972,434,-8204,1148,-50,38,13,-13417,1,6,1,0,37220,327,27,79,0,0,0,0,0,0,0,0,-32317,0,0,0,3803,0,26009,0
17982,460,-8186,1144,-49,42,11,-13420,-9,-6,-1,0,37217,338,27,79,0,0,0,0,0,0,0,0,-32315,0,0,0,3802,0,26029,0
17992,454,-8186,1158,-48,39,17,-13417,1,1,-2,0,37216,336,27,79,0,0,0,0,0,0,0,0,-32316,0,0,0,3802,0,26049,0
18002,446,-8206,1154,-47,40,16,-13417,2,2,2,0,37219,331,27,79,0,0,0,0,0,0,0,0,-32315,0,0,0,3803,0,26069,0
18012,462,-8186,1182,-46,39,21,-13417,-3,2,-1,0,37223,336,27,79,0,0,0,0,0,0,0,0,-32316,0,0,0,3802,0,26089,0
18022,452,-8182,1194,-48,39,16,-13418,-1,-4,0,0,37221,341,27,79,0,0,0,0,0,0,0,0,-32315,0,0,0,3803,0,26109,0
18032,442,-8182,1200,-50,39,24,-13418,-3,-3,0,0,37217,341,27,79,0,0,0,0,0,0,0,0,-32315,0,0,0,3802,0,26129,0
18042,450,-8168,1214,-54,47,26,-13418,-3,-4,-2,0,37217,330,27,79,0,0,0,0,0,0,0,0,-32315,0,0,0,3803,0,26149,0
18052,412,-8176,1188,-59,46,20,-13416,7,3,-1,0,37221,331,27,79,0,0,0,0,0,0,0,0,-32315,0,0,0,3803,0,26169,0
18062,434,-8182,1158,-57,48,20,-13415,1,0,-5,0,37222,348,27,79,0,0,0,0,0,0,0,0,-32315,0,0,0,3802,0,26189,0
18072,410,-8182,1158,-62,51,29,-13415,-2,0,-5,0,37214,340,27,79,0,0,0,0,0,0,0,0,-32315,0,0,0,3802,0,26209,0
18082,418,-8190,1156,-55,43,19,-13415,5,0,-5,0,37216,328,27,79,0,0,0,0,0,0,0,0,-32315,0,0,0,3803,0,26229,0
18092,444,-8190,1146,-55,42,19,-13414,3,0,-6,0,37218,322,27,79,0,0,0,0,0,0,0,0,-32316,0,0,0,3803,0,26249,0
18102,420,-8178,1146,-57,35,17,-13413,-5,0,-3,0,37219,329,27,79,0,0,0,0,0,0,0,0,-32316,0,0,0,3804,0,26269,0
18112,426,-8188,1120,-51,37,18,-13412,11,0,-2,0,37219,324,27,79,0,0,0,0,0,0,0,0,-32315,0,0,0,3803,0,26289,0
18122,402,-8194,1124,-47,35,14,-13412,1,3,-2,0,37218,323,27,79,0,0,0,0,0,0,0,0,-32315,0,0,0,3803,0,26309,0
18132,396,-8174,1162,-45,28,10,-13412,-7,-5,-1,0,37224,324,27,79,0,0,0,0,0,0,0,0,-32315,0,0,0,3804,0,26329,0
18142,420,-8176,1176,-47,32,12,-13411,0,-5,0,0,37223,330,27,79,0,0,0,0,0,0,0,0,-32315,0,0,0,3805,0,26350,0
18152,402,-8170,1180,-49,35,10,-13412,-3,-8,1,0,37218,334,27,79,0,0,0,0,0,0,0,0,-32316,0,0,0,3804,0,26369,0
18162,454,-8186,1166,-46,35,8,-13413,-7,-1,0,0,37215,329,27,79,0,0,0,0,0,0,0,0,-32315,0,0,0,3804,0,26390,0
18172,460,-8198,1176,-48,37,5,-13412,0,-2,1,0,37216,320,27,79,0,0,0,0,0,0,0,0,-32316,0,0,0,3804,0,26410,0
18182,460,-8194,1170,-48,41,10,-13412,-1,0,1,0,37217,318,27,79,0,0,0,0,0,0,0,0,-32315,0,0,0,3804,0,26430,0
18192,428,-8222,1162,-53,41,12,-13412,1,-3,-1,0,37216,324,27,79,0,0,0,0,0,0,0,0,-32315,0,0,0,3804,0,26450,0
18202,460,-8192,1174,-52,33,16,-13411,4,0,3,0,37215,325,27,79,0,0,0,0,0,0,0,0,-32316,0,0,0,3803,0,26470,0
18212,438,-8198,1176,-50,43,14,-13412,-9,-1,-4,0,37221,318,27,79,0,0,0,0,0,0,0,0,-32315,0,0,0,3804,0,26490,0
18222,436,-8200,1152,-52,40,12,-13411,-3,3,0,0,37224,323,27,79,0,0,0,0,0,0,0,0,-32316,0,0,0,3804,0,26510,0
18232,420,-8178,1160,-47,33,11,-13412,-1,-2,0,0,37224,334,27,79,0,0,0,0,0,0,0,0,-32316,0,0,0,3804,0,26530,0
18242,412,-8178,1146,-51,32,12,-13411,-4,4,-1,0,37221,342,27,79,0,0,0,0,0,0,0,0,-32316,0,0,0,3804,0,26550,0
18252,430,-8158,1162,-45,35,8,-13412,0,-1,0,0,37217,331,27,79,0,0,0,0,0,0,0,0,-32316,0,0,0,3803,0,26570,0
18262,472,-8196,1168,-53,39,7,-13411,5,0,0,0,37220,318,27,79,0,0,0,0,0,0,0,0,-32316,0,0,0,3804,0,26590,0
18272,454,-8206,1162,-48,37,7,-13412,-8,-2,1,0,37218,317,27,79,0,0,0,0,0,0,0,0,-32316,0,0,0,3804,0,26610,0
18282,466,-8180,1182,-42,37,12,-13411,-2,0,1,0,37217,332,27,79,0,0,0,0,0,0,0,0,-32316,0,0,0,3803,0,26630,0
18292,446,-8220,1184,-48,35,18,-13412,-4,2,0,0,37216,335,27,79,0,0,0,0,0,0,0,0,-32315,0,0,0,3804,0,26650,0
18302,438,-8190,1202,-53,39,15,-13412,-1,1,2,0,37219,325,27,79,0,0,0,0,0,0,0,0,-32315,0,0,0,3804,0,26670,0
18312,450,-8182,1174,-51,37,15,-13413,-3,1,0,0,37218,321,27,79,0,0,0,0,0,0,0,0,-32316,0,0,0,3804,0,26690,0
18322,430,-8202,1154,-54,41,15,-13412,1,5,1,0,37224,320,27,79,0,0,0,0,0,0,0,0,-32315,0,0,0,3804,0,26710,0
18332,438,-8184,1142,-48,36,11,-13411,4,-4,0,0,37223,316,27,79,0,0,0,0,0,0,0,0,-32315,0,0,0,3803,0,26730,0
18342,454,-8178,1162,-46,41,11,-13412,-1,1,0,0,37223,308,27,79,0,0,0,0,0,0,0,0,-32315,0,0,0,3803,0,26750,0
18352,442,-8180,1160,-53,38,17,-13412,-5,-4,1,0,37221,312,27,79,0,0,0,0,0,0,0,0,-32315,0,0,0,3804,0,26770,0
18362,458,-8168,1188,-47,38,14,-13413,-8,2,0,0,37221,330,27,79,0,0,0,0,0,0,0,0,-32316,0,0,0,3804,0,26790,0
18372,422,-8182,1198,-53,35,14,-13412,-1,-1,0,0,37216,340,27,79,0,0,0,0,0,0,0,0,-32315,0,0,0,3803,0,26810,0
18382,436,-8216,1174,-51,38,13,-13412,-11,2,0,0,37228,336,27,79,0,0,0,0,0,0,0,0,-32315,0,0,0,3803,0,26830,0
18392,466,-8186,1176,-50,43,12,-13413,-11,-3,0,0,37241,320,27,79,0,0,0,0,0,0,0,0,-32316,0,0,0,3803,0,26850,0
18402,448,-8170,1158,-53,34,15,-13412,-6,-6,0,0,37248,311,27,79,0,0,0,0,0,0,0,0,-32316,0,0,0,3803,0,26870,0
18412,438,-8196,1180,-53,35,16,-13413,-5,-11,0,0,37238,315,27,79,0,0,0,0,0,0,0,0,-32316,0,0,0,3803,0,26890,0
18422,472,-8178,1144,-52,38,17,-13412,-4,1,0,0,37230,317,27,79,0,0,0,0,0,0,0,0,-32316,0,0,0,3803,0,26910,0
18432,450,-8182,1146,-53,40,14,-13413,-3,-4,0,0,37224,316,27,79,0,0,0,0,0,0,0,0,-32316,0,0,0,3803,0,26930,0
18442,456,-8198,1148,-45,42,10,-13412,5,-1,-1,0,37223,313,27,79,0,0,0,0,0,0,0,0,-32315,0,0,0,3803,0,26950,0
18452,420,-8194,1162,-49,38,15,-13413,-6,-1,2,0,37220,317,27,79,0,0,0,0,0,0,0,0,-32316,0,0,0,3803,0,26970,0
18462,428,-8156,1156,-48,38,12,-13412,-5,0,1,0,37216,320,27,79,0,0,0,0,0,0,0,0,-32315,0,0,0,3803,0,26990,0
18472,410,-8194,1192,-49,39,12,-13412,2,-4,1,0,37218,299,27,79,0,0,0,0,0,0,0,0,-32315,0,0,0,3804,0,27010,0
18482,440,-8198,1178,-47,43,12,-13412,4,1,0,0,37222,299,27,79,0,0,0,0,0,0,0,0,-32315,0,0,0,3804,0,27030,0
18492,430,-8186,1178,-50,43,8,-13414,-6,-4,-1,0,37226,305,27,79,0,0,0,0,0,0,0,0,-32315,0,0,0,3804,0,27050,0
18502,494,-8188,1150,-46,46,13,-13412,1,1,1,0,37229,322,27,79,0,0,0,0,0,0,0,0,-32315,0,0,0,3803,0,27070,0
18512,462,-8220,1152,-50,35,13,-13412,-3,3,0,0,37230,320,27,79,0,0,0,0,0,0,0,0,-32315,0,0,0,3803,0,27090,0
18522,446,-8198,1128,-43,39,20,-13413,-6,-1,-1,0,37231,317,27,79,0,0,0,0,0,0,0,0,-32315,0,0,0,3804,0,27110,0
18532,434,-8180,1130,-52,45,16,-13412,0,2,1,0,37236,328,27,79,0,0,0,0,0,0,0,0,-32315,0,0,0,3803,0,27130,0
18542,446,-8192,1144,-48,40,11,-13413,0,0,-1,0,37233,338,27,79,0,0,0,0,0,0,0,0,-32315,0,0,0,3803,0,27150,0
18552,446,-8182,1166,-46,40,16,-13412,-1,2,0,0,37233,334,27,79,0,0,0,0,0,0,0,0,-32315,0,0,0,3804,0,27170,0
18562,450,-8188,1148,-47,43,12,-13413,3,-4,1,0,37230,321,27,79,0,0,0,0,0,0,0,0,-32315,0,0,0,3804,0,27190,0
18572,454,-8200,1170,-45,41,11,-13412,-1,4,1,0,37229,309,27,79,0,0,0,0,0,0,0,0,-32315,0,0,0,3804,0,27210,0
18582,452,-8188,1204,-46,37,10,-13412,1,-1,0,0,37224,323,27,79,0,0,0,0,0,0,0,0,-32315,0,0,0,3804,0,27230,0
18592,452,-8192,1186,-56,41,17,-13412,0,1,0,0,37221,318,27,79,0,0,0,0,0,0,0,0,-32315,0,0,0,3804,0,27250,0
18602,450,-8192,1176,-48,39,19,-13413,-3,-3,1,0,37223,307,27,79,0,0,0,0,0,0,0,0,-32315,0,0,0,3804,0,27270,0
18612,456,-8196,1182,-47,40,15,-13412,-2,-2,-2,0,37228,302,27,79,0,0,0,0,0,0,0,0,-32316,0,0,0,3805,0,27290,0
18622,458,-8168,1184,-47,42,20,-13413,0,0,0,0,37230,303,27,79,0,0,0,0,0,0,0,0,-32315,0,0,0,3804,0,27310,0
18632,444,-8176,1184,-56,43,21,-13411,4,5,0,0,37231,321,27,79,0,0,0,0,0,0,0,0,-32315,0,0,0,3804,0,27330,0
18642,426,-8210,1150,-52,39,18,-13412,-1,-1,-1,0,37232,333,27,79,0,0,0,0,0,0,0,0,-32315,0,0,0,3804,0,27350,0
18652,434,-8176,1150,-49,40,16,-13413,-12,-5,1,0,37235,331,27,79,0,0,0,0,0,0,0,0,-32315,0,0,0,3803,0,27370,0
18662,448,-8206,1150,-51,47,19,-13412,0,-1,0,0,37234,328,27,79,0,0,0,0,0,0,0,0,-32316,0,0,0,3804,0,27390,0
18672,428,-8208,1158,-48,43,13,-13412,-1,-3,0,0,37230,324,27,79,0,0,0,0,0,0,0,0,-32315,0,0,0,3804,0,27410,0
18682,448,-8194,1160,-47,43,17,-13411,3,2,0,0,37228,321,27,79,0,0,0,0,0,0,0,0,-32315,0,0,0,3804,0,27430,0
18692,450,-8208,1190,-48,42,18,-13412,-3,0,0,0,37230,314,27,79,0,0,0,0,0,0,0,0,-32315,0,0,0,3803,0,27450,0
18702,466,-8170,1158,-50,42,17,-13412,6,0,0,0,37231,314,27,79,0,0,0,0,0,0,0,0,-32315,0,0,0,3805,0,27470,0
18712,438,-8164,1162,-51,36,15,-13412,-1,-2,0,0,37228,308,27,79,0,0,0,0,0,0,0,0,-32315,0,0,0,3804,0,27490,0
18722,446,-8208,1160,-42,40,20,-13414,-7,-5,-1,0,37227,314,27,79,0,0,0,0,0,0,0,0,-32315,0,0,0,3804,0,27510,0
18732,432,-8196,1156,-49,37,15,-13411,0,2,1,0,37229,306,27,79,0,0,0,0,0,0,0,0,-32316,0,0,0,3804,0,27530,0
18742,432,-8186,1166,-47,39,15,-13412,-1,1,0,0,37233,305,27,79,0,0,0,0,0,0,0,0,-32315,0,0,0,3804,0,27550,0
18752,450,-8234,1178,-45,42,12,-13413,-5,-4,0,0,37234,300,27,79,0,0,0,0,0,0,0,0,-32315,0,0,0,3804,0,27570,0
18762,440,-8182,1174,-53,39,12,-13412,-1,0,0,0,37234,309,27,79,0,0,0,0,0,0,0,0,-32315,0,0,0,3804,0,27590,0
18772,440,-8192,1162,-46,39,14,-13411,0,4,0,0,37235,302,27,79,0,0,0,0,0,0,0,0,-32315,0,0,0,3804,0,27610,0
18782,440,-8172,1172,-45,38,15,-13412,3,-2,0,0,37234,298,27,79,0,0,0,0,0,0,0,0,-32315,0,0,0,3804,0,27630,0
18792,426,-8186,1162,-50,40,8,-13411,2,5,0,0,37236,303,27,79,0,0,0,0,0,0,0,0,-32315,0,0,0,3804,0,27650,0
18802,434,-8172,1168,-48,42,12,-13411,9,2,2,0,37236,318,27,79,0,0,0,0,0,0,0,0,-32315,0,0,0,3804,0,27670,0
18812,466,-8182,1164,-48,40,13,-13412,-3,1,0,0,37234,308,27,79,0,0,0,0,0,0,0,0,-32316,0,0,0,3803,0,27690,0
18822,470,-8186,1166,-51,41,14,-13412,-1,0,0,0,37233,299,27,79,0,0,0,0,0,0,0,0,-32315,0,0,0,3804,0,27710,0
18832,440,-8194,1158,-41,34,12,-13412,4,4,1,0,37235,300,27,79,0,0,0,0,0,0,0,0,-32315,0,0,0,3804,0,27730,0
18842,430,-8198,1162,-48,40,13,-13411,7,2,-1,0,37237,307,27,79,0,0,0,0,0,0,0,0,-32315,0,0,0,3804,0,27750,0
18852,452,-8182,1182,-46,41,11,-13413,2,0,-2,0,37242,311,27,79,0,0,0,0,0,0,0,0,-32315,0,0,0,3805,0,27770,0
18862,438,-8178,1206,-46,34,10,-13413,-2,-3,0,0,37242,295,27,79,0,0,0,0,0,0,0,0,-32316,0,0,0,3804,0,27791,0
18872,458,-8238,1176,-51,42,11,-13412,3,0,0,0,37244,294,27,79,0,0,0,0,0,0,0,0,-32315,0,0,0,3804,0,27811,0
18882,474,-8170,1164,-52,37,14,-13412,-1,-1,0,0,37238,302,27,79,0,0,0,0,0,0,0,0,-32316,0,0,0,3804,0,27831,0
18892,464,-8186,1154,-55,38,13,-13413,3,-4,0,0,37236,306,27,79,0,0,0,0,0,0,0,0,-32315,0,0,0,3804,0,27851,0
18902,432,-8180,1148,-49,34,12,-13411,6,0,1,0,37236,309,27,79,0,0,0,0,0,0,0,0,-32315,0,0,0,3805,0,27871,0
18912,480,-8212,1164,-51,45,14,-13413,-3,-5,0,0,37238,300,27,79,0,0,0,0,0,0,0,0,-32315,0,0,0,3804,0,27891,0
18922,458,-8192,1196,-55,39,18,-13413,2,-4,0,0,37239,298,27,79,0,0,0,0,0,0,0,0,-32315,0,0,0,3804,0,27911,0
18932,458,-8210,1184,-54,43,17,-13411,4,2,0,0,37241,303,27,79,0,0,0,0,0,0,0,0,-32316,0,0,0,3804,0,27931,0
18942,426,-8204,1186,-53,40,14,-13412,2,0,-1,0,37239,304,27,79,0,0,0,0,0,0,0,0,-32315,0,0,0,3805,0,27951,0
18952,416,-8172,1166,-55,41,13,-13413,-9,-1,0,0,37241,302,27,79,0,0,0,0,0,0,0,0,-32315,0,0,0,3805,0,27971,0
18962,432,-8188,1148,-58,42,13,-13413,0,-10,0,0,37238,303,27,79,0,0,0,0,0,0,0,0,-32315,0,0,0,3805,0,27991,0
18972,412,-8196,1136,-56,41,11,-13414,-1,-2,0,0,37239,304,27,79,0,0,0,0,0,0,0,0,-32315,0,0,0,3804,0,28011,0
18982,436,-8168,1162,-52,40,17,-13413,-5,-1,2,0,37239,310,27,79,0,0,0,0,0,0,0,0,-32315,0,0,0,3804,0,28031,0
18992,432,-8170,1188,-50,42,16,-13413,4,-2,0,0,37236,303,27,79,0,0,0,0,0,0,0,0,-32315,0,0,0,3804,0,28051,0
19002,442,-8212,1174,-47,38,16,-13413,-2,-1,1,0,37234,302,27,79,0,0,0,0,0,0,0,0,-32316,0,0,0,3805,0,28071,0
19012,472,-8190,1184,-51,37,16,-13414,-3,-10,1,0,37232,294,27,79,0,0,0,0,0,0,0,0,-32315,0,0,0,3804,0,28092,0
19022,458,-8174,1152,-50,43,13,-13414,-8,1,0,0,37232,294,27,79,0,0,0,0,0,0,0,0,-32316,0,0,0,3804,0,28112,0
19032,458,-8186,1162,-50,36,17,-13412,6,4,0,0,37230,292,27,79,0,0,0,0,0,0,0,0,-32315,0,0,0,3805,0,28132,0
19042,434,-8208,1174,-57,39,20,-13413,-7,2,0,0,37229,287,27,79,0,0,0,0,0,0,0,0,-32315,0,0,0,3804,0,28152,0
19052,474,-8192,1190,-51,36,16,-13413,-1,0,0,0,37228,287,27,79,0,0,0,0,0,0,0,0,-32315,0,0,0,3804,0,28172,0
19062,470,-8178,1190,-51,48,24,-13413,-5,1,-2,0,37241,283,27,79,0,0,0,0,0,0,0,0,-32315,0,0,0,3805,0,28192,0
19072,468,-8178,1186,-58,42,25,-13412,2,-2,0,0,37242,283,27,79,0,0,0,0,0,0,0,0,-32315,0,0,0,3805,0,28212,0
19082,412,-8152,1190,-53,40,21,-13413,1,-2,0,0,37239,286,27,79,0,0,0,0,0,0,0,0,-32315,0,0,0,3804,0,28232,0
19092,422,-8190,1158,-53,43,15,-13413,0,1,-1,0,37229,296,27,79,0,0,0,0,0,0,0,0,-32315,0,0,0,3804,0,28252,0
19102,424,-8192,1148,-54,47,20,-13412,0,1,0,0,37231,301,27,79,0,0,0,0,0,0,0,0,-32315,0,0,0,3805,0,28272,0
19112,446,-8208,1150,-57,39,17,-13411,7,5,0,0,37234,292,27,79,0,0,0,0,0,0,0,0,-32315,0,0,0,3804,0,28292,0
19122,438,-8212,1174,-49,40,15,-13413,-6,-1,0,0,37231,288,27,79,0,0,0,0,0,0,0,0,-32315,0,0,0,3804,0,28312,0
19132,440,-8216,1168,-51,37,18,-13413,-4,0,0,0,37230,290,27,79,0,0,0,0,0,0,0,0,-32315,0,0,0,3803,0,28332,0
19142,452,-8180,1164,-54,41,16,-13412,7,1,0,0,37230,292,27,79,0,0,0,0,0,0,0,0,-32316,0,0,0,3805,0,28352,0
19152,444,-8218,1150,-55,35,19,-13412,-2,-1,0,0,37230,295,27,79,0,0,0,0,0,0,0,0,-32315,0,0,0,3806,0,28372,0
19162,428,-8200,1174,-53,44,14,-13412,-1,-4,-2,0,37234,290,27,79,0,0,0,0,0,0,0,0,-32315,0,0,0,3805,0,28392,0
19172,442,-8186,1154,-53,40,16,-13411,3,1,0,0,37232,291,27,79,0,0,0,0,0,0,0,0,-32315,0,0,0,3804,0,28412,0
19182,444,-8212,1166,-52,40,13,-13412,-5,1,0,0,37231,289,27,79,0,0,0,0,0,0,0,0,-32315,0,0,0,3804,0,28432,0
19192,428,-8178,1148,-50,39,14,-13412,-1,0,0,0,37233,288,27,79,0,0,0,0,0,0,0,0,-32315,0,0,0,3804,0,28452,0
19202,432,-8160,1126,-50,37,13,-13413,-2,-3,0,0,37234,288,27,79,0,0,0,0,0,0,0,0,-32315,0,0,0,3804,0,28472,0
19212,432,-8216,1148,-48,38,13,-13412,2,0,0,0,37235,289,27,79,0,0,0,0,0,0,0,0,-32315,0,0,0,3804,0,28492,0
19222,414,-8196,1176,-52,35,17,-13412,4,-1,1,0,37234,289,27,79,0,0,0,0,0,0,0,0,-32316,0,0,0,3806,0,28512,0
19232,424,-8186,1182,-43,37,13,-13412,7,4,0,0,37231,289,27,79,0,0,0,0,0,0,0,0,-32315,0,0,0,3803,0,28532,0
19242,456,-8200,1172,-46,37,12,-13413,-1,1,0,0,37233,291,27,79,0,0,0,0,0,0,0,0,-32315,0,0,0,3804,0,28552,0
19252,434,-8188,1170,-52,38,9,-13413,-3,0,0,0,37234,293,27,79,0,0,0,0,0,0,0,0,-32315,0,0,0,3805,0,28572,0
19262,438,-8186,1204,-50,42,9,-13413,-2,0,0,0,37233,287,27,79,0,0,0,0,0,0,0,0,-32315,0,0,0,3805,0,28592,0
19272,466,-8196,1176,-49,44,10,-13413,-7,0,1,0,37240,282,27,79,0,0,0,0,0,0,0,0,-32316,0,0,0,3804,0,28612,0
19282,458,-8192,1170,-54,40,13,-13413,4,0,1,0,37240,290,27,79,0,0,0,0,0,0,0,0,-32315,0,0,0,3805,0,28632,0
19292,476,-8182,1150,-55,33,18,-13411,4,4,0,0,37238,292,27,79,0,0,0,0,0,0,0,0,-32315,0,0,0,3804,0,28652,0
19302,446,-8172,1186,-48,45,21,-13411,8,-4,0,0,37224,294,27,79,0,0,0,0,0,0,0,0,-32316,0,0,0,3804,0,28672,0
19312,442,-8210,1166,-53,43,16,-13411,3,1,0,0,37225,295,27,79,0,0,0,0,0,0,0,0,-32315,0,0,0,3804,0,28692,0
19322,418,-8182,1166,-53,42,21,-13413,-3,-1,0,0,37226,293,27,79,0,0,0,0,0,0,0,0,-32316,0,0,0,3804,0,28712,0
19332,414,-8222,1124,-52,39,13,-13410,5,-5,-1,0,37227,295,27,79,0,0,0,0,0,0,0,0,-32315,0,0,0,3805,0,28732,0
19342,412,-8194,1142,-50,42,21,-13413,-8,3,0,0,37226,295,27,79,0,0,0,0,0,0,0,0,-32315,0,0,0,3804,0,28752,0
19352,422,-8168,1188,-47,40,18,-13412,0,0,0,0,37225,295,27,79,0,0,0,0,0,0,0,0,-32315,0,0,0,3805,0,28772,0
19362,440,-8216,1144,-54,35,17,-13412,4,-3,0,0,37228,292,27,79,0,0,0,0,0,0,0,0,-32316,0,0,0,3805,0,28792,0
19372,470,-8192,1184,-49,39,19,-13412,1,-1,0,0,37227,292,27,79,0,0,0,0,0,0,0,0,-32315,0,0,0,3804,0,28812,0
19382,444,-8188,1154,-54,42,12,-13411,0,1,0,0,37228,287,27,79,0,0,0,0,0,0,0,0,-32315,0,0,0,3804,0,28832,0
19392,424,-8188,1166,-53,39,18,-13413,3,0,-2,0,37229,288,27,79,0,0,0,0,0,0,0,0,-32315,0,0,0,3805,0,28852,0
19402,440,-8160,1176,-49,44,20,-13413,0,2,0,0,37231,289,27,79,0,0,0,0,0,0,0,0,-32315,0,0,0,3805,0,28872,0
19412,466,-8182,1162,-49,35,14,-13412,6,3,-1,0,37226,287,27,79,0,0,0,0,0,0,0,0,-32315,0,0,0,3806,0,28892,0
19422,416,-8156,1154,-49,39,15,-13412,-4,1,0,0,37223,292,27,79,0,0,0,0,0,0,0,0,-32315,0,0,0,3804,0,28912,0
19432,414,-8182,1174,-50,40,19,-13412,3,-1,0,0,37225,292,27,79,0,0,0,0,0,0,0,0,-32315,0,0,0,3804,0,28932,0
19442,418,-8182,1172,-51,44,17,-13412,2,-1,-1,0,37227,294,27,79,0,0,0,0,0,0,0,0,-32316,0,0,0,3805,0,28952,0
19452,420,-8186,1158,-53,39,16,-13412,0,1,0,0,37230,291,27,79,0,0,0,0,0,0,0,0,-32315,0,0,0,3805,0,28972,0
19462,440,-8194,1132,-49,39,10,-13413,-7,2,2,0,37227,288,27,79,0,0,0,0,0,0,0,0,-32315,0,0,0,3804,0,28992,0
19472,442,-8204,1126,-49,36,15,-13412,1,-3,0,0,37227,293,27,79,0,0,0,0,0,0,0,0,-32315,0,0,0,3804,0,29012,0
19482,426,-8170,1168,-45,42,15,-13413,-1,-1,0,0,37228,286,27,79,0,0,0,0,0,0,0,0,-32315,0,0,0,3805,0,29032,0
19492,436,-8196,1190,-48,40,13,-13412,3,0,0,0,37233,289,27,79,0,0,0,0,0,0,0,0,-32315,0,0,0,3804,0,29052,0
19502,448,-8194,1198,-51,36,14,-13411,4,1,0,0,37233,285,27,79,0,0,0,0,0,0,0,0,-32315,0,0,0,3804,0,29072,0
19512,462,-8176,1174,-52,42,16,-13413,0,-1,0,0,37233,286,27,79,0,0,0,0,0,0,0,0,-32315,0,0,0,3804,0,29092,0
19522,456,-8188,1152,-52,38,18,-13413,-6,0,1,0,37229,282,27,79,0,0,0,0,0,0,0,0,-32315,0,0,0,3804,0,29112,0
19532,446,-8188,1170,-54,42,25,-13412,5,1,0,0,37233,277,27,79,0,0,0,0,0,0,0,0,-32315,0,0,0,3804,0,29132,0
19542,424,-8192,1174,-49,40,14,-13412,0,2,0,0,37232,279,27,79,0,0,0,0,0,0,0,0,-32315,0,0,0,3805,0,29152,0
19552,468,-8166,1166,-53,46,16,-13413,0,-3,-1,0,37228,282,27,79,0,0,0,0,0,0,0,0,-32315,0,0,0,3804,0,29172,0
19562,448,-8194,1168,-52,46,20,-13413,-3,1,0,0,37229,279,27,79,0,0,0,0,0,0,0,0,-32316,0,0,0,3805,0,29193,0
19572,430,-8166,1140,-50,43,19,-13411,5,6,0,0,37233,279,27,79,0,0,0,0,0,0,0,0,-32316,0,0,0,3805,0,29213,0
19582,402,-8174,1160,-52,38,17,-13412,1,3,0,0,37237,287,27,79,0,0,0,0,0,0,0,0,-32316,0,0,0,3804,0,29233,0
19592,432,-8180,1184,-60,43,19,-13412,-3,-1,-2,0,37237,296,27,79,0,0,0,0,0,0,0,0,-32315,0,0,0,3805,0,29253,0
19602,456,-8162,1180,-55,41,18,-13411,5,2,0,0,37234,297,27,79,0,0,0,0,0,0,0,0,-32315,0,0,0,3804,0,29273,0
19612,468,-8192,1160,-49,40,19,-13412,2,-1,0,0,37237,296,27,79,0,0,0,0,0,0,0,0,-32315,0,0,0,3805,0,29293,0
19622,456,-8190,1190,-56,45,21,-13413,-6,-5,0,0,37237,294,27,79,0,0,0,0,0,0,0,0,-32315,0,0,0,3804,0,29313,0
19632,410,-8186,1180,-58,45,21,-13413,-4,-2,-1,0,37237,293,27,79,0,0,0,0,0,0,0,0,-32315,0,0,0,3805,0,29333,0
19642,446,-8208,1148,-59,41,20,-13413,-8,0,0,0,37232,294,27,79,0,0,0,0,0,0,0,0,-32316,0,0,0,3805,0,29353,0
19652,430,-8208,1132,-56,39,17,-13412,2,-5,-1,0,37233,292,27,79,0,0,0,0,0,0,0,0,-32316,0,0,0,3804,0,29373,0
19662,448,-8184,1146,-54,37,19,-13412,0,-3,-1,0,37249,289,27,79,0,0,0,0,0,0,0,0,-32316,0,0,0,3804,0,29393,0
19672,392,-8210,1162,-52,42,15,-13412,0,-2,0,0,37254,293,27,79,0,0,0,0,0,0,0,0,-32316,0,0,0,3804,0,29413,0
19682,432,-8186,1174,-52,39,16,-13411,5,3,0,0,37250,291,27,79,0,0,0,0,0,0,0,0,-32315,0,0,0,3804,0,29433,0
19692,434,-8192,1156,-51,37,12,-13410,6,2,-2,0,37242,286,27,79,0,0,0,0,0,0,0,0,-32315,0,0,0,3804,0,29453,0
19702,456,-8190,1150,-47,39,13,-13412,-4,2,0,0,37244,281,27,79,0,0,0,0,0,0,0,0,-32315,0,0,0,3804,0,29473,0
19712,440,-8192,1174,-52,36,9,-13410,5,3,2,0,37248,278,27,79,0,0,0,0,0,0,0,0,-32315,0,0,0,3806,0,29493,0
19722,464,-8178,1160,-46,45,13,-13412,-3,0,0,0,37245,282,27,79,0,0,0,0,0,0,0,0,-32315,0,0,0,3805,0,29513,0
19732,414,-8166,1158,-55,37,12,-13412,-1,0,2,0,37236,290,27,79,0,0,0,0,0,0,0,0,-32315,0,0,0,3804,0,29533,0
19742,442,-8190,1156,-49,33,13,-13412,-5,0,0,0,37239,290,27,79,0,0,0,0,0,0,0,0,-32316,0,0,0,3804,0,29553,0
19752,458,-8172,1138,-47,34,9,-13411,-3,1,0,0,37243,285,27,79,0,0,0,0,0,0,0,0,-32315,0,0,0,3804,0,29573,0
19762,442,-8202,1160,-40,34,12,-13411,-3,0,1,0,37241,279,27,79,0,0,0,0,0,0,0,0,-32316,0,0,0,3804,0,29593,0
19772,430,-8176,1180,-47,38,15,-13412,-4,-2,0,0,37239,281,27,79,0,0,0,0,0,0,0,0,-32316,0,0,0,3805,0,29613,0
19782,430,-8178,1144,-44,34,15,-13411,6,4,0,0,37239,282,27,79,0,0,0,0,0,0,0,0,-32315,0,0,0,3804,0,29633,0
19792,452,-8182,1188,-49,41,9,-13412,-4,2,-1,0,37242,288,27,79,0,0,0,0,0,0,0,0,-32315,0,0,0,3804,0,29653,0
19802,442,-8206,1192,-46,42,11,-13413,-3,-1,1,0,37248,294,27,79,0,0,0,0,0,0,0,0,-32316,0,0,0,3804,0,29673,0
19812,444,-8184,1178,-53,41,10,-13413,-5,4,0,0,37245,299,27,79,0,0,0,0,0,0,0,0,-32315,0,0,0,3804,0,29693,0
19822,462,-8216,1188,-48,40,9,-13411,1,4,1,0,37245,289,27,79,0,0,0,0,0,0,0,0,-32316,0,0,0,3804,0,29713,0
19832,484,-8174,1180,-55,43,20,-13413,-6,-3,-1,0,37243,284,27,79,0,0,0,0,0,0,0,0,-32316,0,0,0,3805,0,29733,0
19842,464,-8202,1186,-46,40,16,-13412,2,2,1,0,37244,275,27,79,0,0,0,0,0,0,0,0,-32315,0,0,0,3804,0,29753,0
19852,476,-8210,1180,-54,42,19,-13412,-1,1,0,0,37240,273,27,79,0,0,0,0,0,0,0,0,-32315,0,0,0,3805,0,29773,0
19862,448,-8172,1142,-53,45,19,-13412,-3,-2,-1,0,37237,270,27,79,0,0,0,0,0,0,0,0,-32316,0,0,0,3805,0,29793,0
19872,416,-8180,1140,-49,39,15,-13412,-1,-4,0,0,37242,266,27,79,0,0,0,0,0,0,0,0,-32316,0,0,0,3804,0,29813,0
19882,412,-8198,1126,-48,41,16,-13412,-1,3,0,0,37246,271,27,79,0,0,0,0,0,0,0,0,-32315,0,0,0,3804,0,29833,0
19892,426,-8176,1164,-45,36,11,-13412,3,2,0,0,37244,277,27,79,0,0,0,0,0,0,0,0,-32315,0,0,0,3804,0,29853,0
19902,430,-8168,1160,-52,40,15,-13412,1,5,-1,0,37242,288,27,79,0,0,0,0,0,0,0,0,-32315,0,0,0,3804,0,29873,0
19912,472,-8188,1152,-47,34,18,-13411,3,0,-3,0,37241,297,27,79,0,0,0,0,0,0,0,0,-32315,0,0,0,3804,0,29894,0
19922,444,-8182,1150,-46,35,17,-13412,1,3,-2,0,37243,298,27,79,0,0,0,0,0,0,0,0,-32315,0,0,0,3805,0,29914,0
19932,420,-8188,1178,-48,42,13,-13412,2,2,-1,0,37242,291,27,79,0,0,0,0,0,0,0,0,-32315,0,0,0,3804,0,29934,0
19942,448,-8158,1186,-45,38,14,-13411,3,0,0,0,37237,292,27,79,0,0,0,0,0,0,0,0,-32316,0,0,0,3804,0,29954,0
19952,452,-8190,1150,-46,44,16,-13412,-5,2,-1,0,37230,303,27,79,0,0,0,0,0,0,0,0,-32316,0,0,0,3805,0,29974,0
19962,468,-8218,1196,-52,40,12,-13414,-5,-3,0,0,37230,304,27,79,0,0,0,0,0,0,0,0,-32316,0,0,0,3804,0,29994,0
19972,440,-8168,1186,-53,42,19,-13412,0,1,2,0,37229,308,27,79,0,0,0,0,0,0,0,0,-32315,0,0,0,3804,0,30014,0
19982,438,-8198,1144,-54,41,15,-13411,1,4,3,0,37223,304,27,79,0,0,0,0,0,0,0,0,-32316,0,0,0,3804,0,30034,0
19992,460,-8186,1154,-49,39,16,-13412,2,3,0,0,37218,299,27,79,0,0,0,0,0,0,0,0,-32315,0,0,0,3804,0,30054,0
20002,428,-8182,1156,-48,41,19,-13412,7,-1,0,0,37212,301,27,79,0,0,0,0,0,0,0,0,-32315,0,0,0,3804,0,30074,0
20012,426,-8192,1188,-52,41,15,-13414,-2,-5,-1,0,37207,311,27,79,0,0,0,0,0,0,0,0,-32316,0,0,0,3804,0,30095,0
20022,430,-8156,1162,-53,45,21,-13410,9,5,0,0,37199,317,27,79,0,0,0,0,0,0,0,0,-32315,0,0,0,3804,0,30115,0
20032,448,-8222,1136,-52,42,16,-13413,-5,-2,1,0,37201,320,27,79,0,0,0,0,0,0,0,0,-32315,0,0,0,3804,0,30135,0
20042,438,-8198,1148,-54,41,17,-13413,-3,-3,0,0,37197,323,27,79,0,0,0,0,0,0,0,0,-32315,0,0,0,3804,0,30155,0
20052,432,-8170,1142,-45,44,15,-13412,0,-3,-1,0,37197,323,27,79,0,0,0,0,0,0,0,0,-32315,0,0,0,3806,0,30175,0
20062,440,-8194,1158,-47,39,19,-13413,-5,-4,0,0,37197,321,27,79,0,0,0,0,0,0,0,0,-32316,0,0,0,3804,0,30195,0
20072,452,-8190,1190,-52,42,24,-13412,-2,-2,0,0,37201,326,27,79,0,0,0,0,0,0,0,0,-32315,0,0,0,3804,0,30215,0
20082,458,-8188,1180,-56,43,19,-13411,1,4,0,0,37200,324,27,79,0,0,0,0,0,0,0,0,-32315,0,0,0,3804,0,30235,0
20092,432,-8158,1180,-53,43,20,-13411,4,2,-2,0,37198,331,27,79,0,0,0,0,0,0,0,0,-32315,0,0,0,3804,0,30255,0
20102,418,-8204,1190,-57,41,20,-13413,0,-3,-2,0,37195,334,27,79,0,0,0,0,0,0,0,0,-32315,0,0,0,3804,0,30275,0
20112,420,-8186,1162,-55,47,19,-13411,7,5,0,0,37199,332,27,79,0,0,0,0,0,0,0,0,-32315,0,0,0,3805,0,30295,0
20122,438,-8184,1136,-54,42,20,-13413,-7,0,0,0,37210,336,27,79,0,0,0,0,0,0,0,0,-32316,0,0,0,3804,0,30315,0
20132,436,-8222,1148,-54,40,16,-13413,-8,-5,-1,0,37208,333,27,79,0,0,0,0,0,0,0,0,-32315,0,0,0,3805,0,30335,0
20142,426,-8186,1138,-52,38,18,-13412,0,-4,1,0,37204,336,27,79,0,0,0,0,0,0,0,0,-32316,0,0,0,3805,0,30355,0
20152,416,-8180,1148,-55,37,15,-13411,0,5,0,0,37197,321,27,79,0,0,0,0,0,0,0,0,-32315,0,0,0,3804,0,30375,0
20162,416,-8192,1180,-50,43,16,-13412,-6,0,0,0,37198,315,27,79,0,0,0,0,0,0,0,0,-32316,0,0,0,3804,0,30395,0
20172,436,-8220,1182,-53,41,8,-13413,-8,-2,0,0,37200,323,27,79,0,0,0,0,0,0,0,0,-32315,0,0,0,3803,0,30415,0
20182,456,-8182,1186,-51,42,19,-13412,0,1,0,0,37196,330,27,79,0,0,0,0,0,0,0,0,-32315,0,0,0,3805,0,30435,0
20192,482,-8178,1152,-52,40,11,-13413,-5,-2,-1,0,37192,329,27,79,0,0,0,0,0,0,0,0,-32315,0,0,0,3803,0,30455,0
20202,456,-8200,1140,-52,39,15,-13412,-4,1,0,0,37196,325,27,79,0,0,0,0,0,0,0,0,-32315,0,0,0,3804,0,30475,0
20212,410,-8152,1154,-43,45,17,-13411,3,-1,0,0,37201,326,27,79,0,0,0,0,0,0,0,0,-32315,0,0,0,3804,0,30495,0
20222,410,-8190,1158,-47,45,13,-13410,8,4,3,0,37208,344,27,79,0,0,0,0,0,0,0,0,-32316,0,0,0,3805,0,30515,0
20232,436,-8190,1164,-50,39,11,-13412,0,0,1,0,37201,337,27,79,0,0,0,0,0,0,0,0,-32315,0,0,0,3805,0,30535,0
20242,416,-8182,1160,-49,38,11,-13413,-6,-4,0,0,37198,329,27,79,0,0,0,0,0,0,0,0,-32316,0,0,0,3804,0,30555,0
20252,462,-8228,1190,-44,35,5,-13412,5,-2,0,0,37197,331,27,79,0,0,0,0,0,0,0,0,-32316,0,0,0,3804,0,30575,0
20262,466,-8202,1196,-43,38,12,-13412,-6,-3,0,0,37200,343,27,79,0,0,0,0,0,0,0,0,-32316,0,0,0,3804,0,30595,0
20272,470,-8204,1176,-55,38,13,-13412,-7,-2,1,0,37197,349,27,79,0,0,0,0,0,0,0,0,-32316,0,0,0,3804,0,30615,0
20282,464,-8194,1166,-50,39,11,-13412,-4,1,-1,0,37192,337,27,79,0,0,0,0,0,0,0,0,-32315,0,0,0,3805,0,30635,0
20292,470,-8194,1168,-54,42,19,-13412,3,2,-1,0,37193,338,27,79,0,0,0,0,0,0,0,0,-32315,0,0,0,3804,0,30655,0
20302,458,-8206,1182,-50,37,20,-13410,1,-1,-1,0,37197,338,27,79,0,0,0,0,0,0,0,0,-32316,0,0,0,3804,0,30675,0
20312,442,-8188,1172,-49,42,20,-13411,7,0,0,0,37196,334,27,79,0,0,0,0,0,0,0,0,-32315,0,0,0,3804,0,30695,0
20322,430,-8178,1166,-57,38,23,-13413,-6,-3,-1,0,37200,324,27,79,0,0,0,0,0,0,0,0,-32315,0,0,0,3805,0,30715,0
20332,426,-8178,1148,-47,41,21,-13410,5,3,0,0,37200,328,27,79,0,0,0,0,0,0,0,0,-32315,0,0,0,3804,0,30735,0
20342,422,-8196,1142,-46,40,16,-13413,3,3,1,0,37203,332,27,79,0,0,0,0,0,0,0,0,-32315,0,0,0,3804,0,30755,0
20352,428,-8182,1156,-47,34,16,-13411,0,2,0,0,37200,335,27,79,0,0,0,0,0,0,0,0,-32315,0,0,0,3804,0,30775,0
20362,430,-8184,1134,-42,40,18,-13412,0,-1,0,0,37194,336,27,79,0,0,0,0,0,0,0,0,-32315,0,0,0,3805,0,30795,0
20372,414,-8170,1148,-43,37,9,-13412,-3,1,0,0,37192,330,27,79,0,0,0,0,0,0,0,0,-32315,0,0,0,3804,0,30815,0
20382,462,-8202,1158,-49,32,10,-13411,1,0,0,0,37194,332,27,79,0,0,0,0,0,0,0,0,-32315,0,0,0,3804,0,30835,0
20392,428,-8186,1156,-41,34,5,-13412,1,-1,0,0,37197,333,27,79,0,0,0,0,0,0,0,0,-32316,0,0,0,3805,0,30855,0
20402,414,-8176,1130,-44,40,4,-13412,-1,2,0,0,37195,337,27,79,0,0,0,0,0,0,0,0,-32315,0,0,0,3803,0,30875,0
20412,406,-8186,1132,-37,27,1,-13412,2,3,2,0,37191,329,27,79,0,0,0,0,0,0,0,0,-32316,0,0,0,3803,0,30895,0
20422,328,-8198,1126,-37,30,-8,-13413,-4,2,1,0,37198,342,27,79,0,0,0,0,0,0,0,0,-32316,0,0,0,3803,0,30915,0
20432,420,-8194,1114,-30,26,-10,-13414,-3,-3,1,0,37199,347,27,79,0,0,0,0,0,0,0,0,-32315,0,0,0,3803,0,30935,0
20442,436,-8202,1122,-26,31,-17,-13414,-1,0,4,0,37197,347,27,79,0,0,0,0,0,0,0,0,-32315,0,0,0,3805,0,30955,0
20452,470,-8210,1160,-16,-13,-8,-13413,-1,3,4,0,37190,335,27,79,0,0,0,0,0,0,0,0,-32315,0,0,0,3805,0,30975,0
20462,496,-8180,1142,-11,-44,-10,-13414,1,7,4,0,37187,321,27,79,0,0,0,0,0,0,0,0,-32315,0,0,0,3805,0,30996,0
20472,432,-8192,1162,-5,-48,-6,-13416,-2,0,4,0,37194,322,27,79,0,0,0,0,0,0,0,0,-32315,0,0,0,3805,0,31016,0
20482,404,-8210,1180,-8,-33,-9,-13414,1,1,0,0,37196,327,27,79,0,0,0,0,0,0,0,0,-32315,0,0,0,3807,0,31035,0
20492,436,-8174,1216,-23,20,-14,-13416,0,0,5,0,37196,332,27,79,0,0,0,0,0,0,0,0,-32316,0,0,0,3807,0,31055,0
20502,488,-8190,1242,-33,35,-15,-13416,1,3,6,0,37195,333,27,79,0,0,0,0,0,0,0,0,-32316,0,0,0,3808,0,31075,0
20512,584,-8218,1264,-39,38,-6,-13417,-6,1,6,0,37200,334,27,79,0,0,0,0,0,0,0,0,-32315,0,0,0,3807,0,31096,0
20522,632,-8170,1270,-38,17,8,-13417,1,1,2,0,37203,337,27,79,0,0,0,0,0,0,0,0,-32315,0,0,0,3806,0,31116,0
20532,524,-8180,1272,-49,27,24,-13418,-3,0,0,0,37201,327,27,79,0,0,0,0,0,0,0,0,-32315,0,0,0,3807,0,31136,0
20542,458,-8200,1284,-59,36,30,-13416,-2,3,0,0,37198,331,27,79,0,0,0,0,0,0,0,0,-32315,0,0,0,3808,0,31156,0
20552,536,-8170,1242,-70,50,31,-13416,4,2,-1,0,37201,335,27,79,0,0,0,0,0,0,0,0,-32315,0,0,0,3809,0,31176,0
20562,588,-8194,1178,-77,48,40,-13417,-6,0,-2,0,37203,335,27,79,0,0,0,0,0,0,0,0,-32315,0,0,0,3807,0,31196,0
20572,534,-8192,1166,-70,47,52,-13416,-1,1,-2,0,37202,331,27,79,0,0,0,0,0,0,0,0,-32315,0,0,0,3808,0,31216,0
20582,446,-8174,1188,-70,50,56,-13417,-10,-4,-4,0,37201,324,27,79,0,0,0,0,0,0,0,0,-32315,0,0,0,3808,0,31236,0
20592,388,-8218,1202,-76,54,46,-13414,5,2,-2,0,37203,325,27,79,0,0,0,0,0,0,0,0,-32316,0,0,0,3808,0,31256,0
20602,386,-8158,1172,-74,57,46,-13415,-2,0,-3,0,37204,322,27,79,0,0,0,0,0,0,0,0,-32315,0,0,0,3806,0,31276,0
20612,436,-8160,1132,-71,55,46,-13414,12,-1,-3,0,37206,316,27,79,0,0,0,0,0,0,0,0,-32315,0,0,0,3808,0,31296,0
20622,430,-8186,1140,-63,51,37,-13414,0,2,-2,0,37204,327,27,79,0,0,0,0,0,0,0,0,-32315,0,0,0,3807,0,31316,0
20632,402,-8152,1146,-69,51,41,-13411,8,3,-5,0,37204,323,27,79,0,0,0,0,0,0,0,0,-32315,0,0,0,3808,0,31336,0
20642,406,-8190,1164,-72,60,35,-13412,-7,1,-1,0,37212,330,27,79,0,0,0,0,0,0,0,0,-32315,0,0,0,3808,0,31356,0
20652,446,-8186,1160,-72,63,33,-13410,5,-1,-5,0,37215,326,27,79,0,0,0,0,0,0,0,0,-32315,0,0,0,3809,0,31376,0
20662,454,-8182,1160,-72,61,35,-13410,5,-4,-10,0,37214,324,27,79,0,0,0,0,0,0,0,0,-32315,0,0,0,3808,0,31396,0
20672,432,-8172,1196,-71,66,39,-13407,8,2,-13,0,37207,317,27,79,0,0,0,0,0,0,0,0,-32315,0,0,0,3809,0,31416,0
20682,450,-8196,1166,-71,68,42,-13404,4,1,-20,0,37208,324,27,79,0,0,0,0,0,0,0,0,-32315,0,0,0,3807,0,31436,0
20692,434,-8186,1148,-67,56,46,-13399,6,6,-28,0,37212,327,27,79,0,0,0,0,0,0,0,0,-32316,0,0,0,3809,0,31456,0
20702,472,-8172,1124,-64,52,56,-13390,28,10,-45,0,37212,333,27,79,0,0,0,0,0,0,0,0,-32315,0,0,0,3808,0,31476,0
20712,488,-8166,1086,-63,9,71,-13377,33,17,-63,0,37212,328,27,79,0,0,0,0,0,0,0,0,-32315,0,0,0,3809,0,31496,0
20722,512,-8174,1066,-46,-23,61,-13368,0,-1,-43,0,37212,320,27,79,0,0,0,0,0,0,0,0,-32315,0,0,0,3810,0,31516,0
20732,274,-8190,1124,-42,-1,46,-13363,5,-25,-13,0,37213,313,27,79,0,0,0,0,0,0,0,0,-32315,0,0,0,3811,0,31536,0
20742,130,-8176,1170,-47,39,21,-13361,1,-15,-5,0,37212,326,27,79,0,0,0,0,0,0,0,0,-32315,0,0,0,3812,0,31556,0
20752,314,-8210,1146,-42,52,-6,-13360,8,-3,-1,0,37210,323,27,79,0,0,0,0,0,0,0,0,-32315,0,0,0,3814,0,31576,0
20762,408,-8190,1108,-33,40,-7,-13361,0,-5,1,0,37211,318,27,79,0,0,0,0,0,0,0,0,-32316,0,0,0,3812,0,31596,0
20772,462,-8186,1142,-36,25,-2,-13361,-4,-1,3,0,37216,319,27,79,0,0,0,0,0,0,0,0,-32315,0,0,0,3813,0,31616,0
20782,404,-8206,1192,-34,24,-5,-13361,-2,-1,2,0,37216,320,27,79,0,0,0,0,0,0,0,0,-32315,0,0,0,3812,0,31636,0
20792,422,-8164,1180,-40,29,-14,-13360,10,2,2,0,37214,326,27,79,0,0,0,0,0,0,0,0,-32315,0,0,0,3812,0,31656,0
