state_time,accelx,accely,accelz,gyrox,gyroy,gyroz,mot_ang,mot_vel,mot_acc,mot_cur,mot_volt,batt_volt,batt_curr,temperature,status_mn,status_ex,status_re,genvar_0,genvar_1,genvar_2,genvar_3,genvar_4,genvar_5,genvar_6,genvar_7,genvar_8,genvar_9,ank_ang,ank_vel,sys_time,event flags
16044,60,-8220,438,-23,11,139,12343,9,3,2,0,37005,104,23,144,0,0,0,0,0,0,0,0,-32297,0,0,0,4202,0,3222,0
16054,100,-8252,502,-15,0,151,12343,0,4,4,0,37006,109,24,144,0,0,0,0,0,0,0,0,-32297,0,0,0,4203,0,16044,0
16064,40,-8252,594,-18,-36,174,12343,3,-7,3,0,37000,107,24,144,0,0,0,0,0,0,0,0,-32297,0,0,0,4205,0,16044,0
16074,-72,-8214,622,-17,-54,182,12343,4,1,6,0,36996,110,23,144,0,0,0,0,0,0,0,0,-32297,0,0,0,4207,0,16044,0
16084,-98,-8244,642,-24,-49,174,12341,-4,-6,6,0,36994,111,23,144,0,0,0,0,0,0,0,0,-32297,0,0,0,4211,0,16044,0
16094,-104,-8252,596,-29,-23,167,12343,3,3,2,0,36998,100,23,144,0,0,0,0,0,0,0,0,-32297,0,0,0,4213,0,16044,0
16104,-246,-8236,584,-35,1,137,12341,-3,0,3,0,37000,95,24,144,0,0,0,0,0,0,0,0,-32297,0,0,0,4214,0,16044,0
16114,-280,-8254,574,-32,22,114,12342,-5,-4,5,0,36999,98,24,144,0,0,0,0,0,0,0,0,-32297,0,0,0,4216,0,16044,0
16124,-160,-8244,598,-34,23,87,12343,-1,-1,3,0,36997,107,23,144,0,0,0,0,0,0,0,0,-32297,0,0,0,4218,0,16044,0
16134,-186,-8218,606,-44,17,87,12343,7,-1,5,0,36996,108,23,144,0,0,0,0,0,0,0,0,-32297,0,0,0,4219,0,16044,0
16144,-150,-8266,616,-53,15,73,12343,3,-1,0,0,36999,98,24,144,0,0,0,0,0,0,0,0,-32297,0,0,0,4220,0,16044,0
16154,-200,-8244,598,-57,15,61,12343,2,-3,3,0,36999,92,24,144,0,0,0,0,0,0,0,0,-32297,0,0,0,4220,0,16044,0
16164,-188,-8234,524,-56,19,48,12344,0,0,3,0,36998,107,24,144,0,0,0,0,0,0,0,0,-32296,0,0,0,4221,0,16048,0
16174,-160,-8240,512,-47,22,46,12343,0,-1,4,0,36994,113,24,144,0,0,0,0,0,0,0,0,-32297,0,0,0,4222,0,16058,0
16184,-96,-8230,546,-51,29,39,12342,-8,3,4,0,36995,113,24,144,0,0,0,0,0,0,0,0,-32297,0,0,0,4224,0,16068,0
16194,-74,-8236,562,-44,24,41,12343,6,3,2,0,36995,105,23,144,0,0,0,0,0,0,0,0,-32297,0,0,0,4225,0,16078,0
16204,-50,-8228,598,-52,16,46,12344,3,5,4,0,36994,103,23,144,0,0,0,0,0,0,0,0,-32297,0,0,0,4223,0,16088,0
16214,-46,-8226,604,-54,12,51,12341,-11,0,3,0,36992,102,24,144,0,0,0,0,0,0,0,0,-32297,0,0,0,4225,0,16098,0
16224,-60,-8180,532,-48,7,61,12342,-5,-4,5,0,36992,105,23,144,0,0,0,0,0,0,0,0,-32297,0,0,0,4225,0,16108,0
16234,-110,-8222,548,-54,1,64,12342,-1,-6,5,0,36995,111,24,144,0,0,0,0,0,0,0,0,-32297,0,0,0,4225,0,16118,0
16244,-98,-8202,546,-45,10,63,12343,1,0,5,0,36995,115,24,144,0,0,0,0,0,0,0,0,-32297,0,0,0,4227,0,16134,0
16254,-122,-8226,552,-43,7,70,12342,-3,5,5,0,36997,109,24,144,0,0,0,0,0,0,0,0,-32297,0,0,0,4229,0,16154,0
16264,-116,-8242,570,-43,8,56,12342,-2,-2,4,0,36994,101,24,144,0,0,0,0,0,0,0,0,-32297,0,0,0,4229,0,16174,0
16274,-188,-8218,566,-44,9,50,12341,-13,7,3,0,36996,105,24,144,0,0,0,0,0,0,0,0,-32297,0,0,0,4229,0,16192,0
16284,-200,-8218,580,-48,9,42,12343,8,-6,5,0,36994,100,24,144,0,0,0,0,0,0,0,0,-32297,0,0,0,4230,0,16204,0
16294,-180,-8264,576,-43,15,35,12344,10,1,2,0,36993,103,24,144,0,0,0,0,0,0,0,0,-32297,0,0,0,4230,0,16214,0
16304,-172,-8226,576,-51,22,21,12341,1,3,3,0,36994,102,24,144,0,0,0,0,0,0,0,0,-32296,0,0,0,4230,0,16224,0
16314,-174,-8228,584,-47,25,20,12343,-1,-7,3,0,36993,112,24,144,0,0,0,0,0,0,0,0,-32297,0,0,0,4231,0,16234,0
16324,-166,-8240,558,-56,20,20,12343,-7,-1,3,0,36992,124,24,144,0,0,0,0,0,0,0,0,-32296,0,0,0,4230,0,16251,0
16334,-144,-8252,590,-52,16,15,12341,-7,5,5,0,36989,117,24,144,0,0,0,0,0,0,0,0,-32297,0,0,0,4231,0,16265,0
16344,-118,-8212,576,-56,15,12,12343,-9,2,3,0,36988,109,24,144,0,0,0,0,0,0,0,0,-32296,0,0,0,4232,0,16275,0
16354,-132,-8230,578,-56,13,10,12341,-12,2,6,0,36995,99,24,144,0,0,0,0,0,0,0,0,-32297,0,0,0,4232,0,16287,0
16364,-166,-8244,570,-55,13,6,12341,0,3,3,0,36997,102,24,144,0,0,0,0,0,0,0,0,-32297,0,0,0,4232,0,16297,0
16374,-172,-8230,566,-56,13,2,12345,17,2,4,0,36995,97,23,144,0,0,0,0,0,0,0,0,-32297,0,0,0,4233,0,16307,0
16384,-140,-8212,572,-60,16,-2,12343,4,3,4,0,36989,105,23,144,0,0,0,0,0,0,0,0,-32297,0,0,0,4232,0,16317,0
16394,-122,-8246,540,-53,15,4,12342,-12,1,3,0,36988,104,23,144,0,0,0,0,0,0,0,0,-32297,0,0,0,4231,0,16327,0
16404,-76,-8208,558,-57,15,9,12343,0,5,4,0,36988,96,24,144,0,0,0,0,0,0,0,0,-32297,0,0,0,4230,0,16338,0
16414,-98,-8220,560,-54,13,9,12343,1,3,4,0,36988,91,24,144,0,0,0,0,0,0,0,0,-32297,0,0,0,4230,0,16351,0
16424,-124,-8256,558,-57,14,13,12341,-3,6,4,0,36988,99,24,144,0,0,0,0,0,0,0,0,-32297,0,0,0,4232,0,16361,0
16434,-94,-8244,534,-54,18,22,12343,1,5,5,0,36989,104,24,144,0,0,0,0,0,0,0,0,-32297,0,0,0,4230,0,16371,0
16444,-66,-8250,544,-55,21,25,12341,-12,1,2,0,36987,112,24,144,0,0,0,0,0,0,0,0,-32297,0,0,0,4232,0,16382,0
16454,-44,-8222,546,-53,14,27,12342,0,3,3,0,36988,112,24,144,0,0,0,0,0,0,0,0,-32297,0,0,0,4231,0,16394,0
16464,-114,-8222,568,-53,12,36,12344,7,-2,4,0,36993,131,24,144,0,0,0,0,0,0,0,0,-32297,0,0,0,4232,0,16404,0
16474,-126,-8216,574,-51,1,39,12341,-12,3,3,0,36994,136,24,144,0,0,0,0,0,0,0,0,-32297,0,0,0,4233,0,16414,0
16484,-188,-8214,572,-53,12,30,12342,-3,0,4,0,36992,124,24,144,0,0,0,0,0,0,0,0,-32297,0,0,0,4233,0,16426,0
16494,-198,-8202,592,-55,12,25,12342,6,0,4,0,36986,103,23,144,0,0,0,0,0,0,0,0,-32297,0,0,0,4233,0,16436,0
16504,-184,-8264,602,-61,21,17,12343,-7,-3,4,0,36990,108,23,144,0,0,0,0,0,0,0,0,-32297,0,0,0,4233,0,16446,0
16514,-186,-8238,620,-58,14,8,12342,0,-2,4,0,36992,108,24,144,0,0,0,0,0,0,0,0,-32296,0,0,0,4234,0,16456,0
16524,-160,-8254,588,-67,15,16,12343,7,1,4,0,36992,107,23,144,0,0,0,0,0,0,0,0,-32297,0,0,0,4233,0,16469,0
16534,-174,-8236,574,-65,13,6,12342,-2,4,5,0,36988,104,23,144,0,0,0,0,0,0,0,0,-32297,0,0,0,4233,0,16479,0
16544,-148,-8210,530,-63,8,2,12343,11,-1,4,0,36987,101,23,144,0,0,0,0,0,0,0,0,-32297,0,0,0,4233,0,16489,0
16554,-156,-8222,506,-66,12,4,12341,-16,-4,2,0,36987,103,24,144,0,0,0,0,0,0,0,0,-32297,0,0,0,4233,0,16499,0
16564,-148,-8228,548,-62,18,-2,12342,-7,5,3,0,36995,106,23,144,0,0,0,0,0,0,0,0,-32297,0,0,0,4233,0,16512,0
16574,-162,-8226,570,-59,18,4,12341,-4,2,3,0,36999,104,23,144,0,0,0,0,0,0,0,0,-32297,0,0,0,4233,0,16522,0
16584,-138,-8240,582,-64,15,-6,12342,-9,3,5,0,36996,110,24,144,0,0,0,0,0,0,0,0,-32297,0,0,0,4232,0,16532,0
16594,-112,-8214,582,-69,14,-9,12342,-5,1,5,0,36995,112,24,144,0,0,0,0,0,0,0,0,-32297,0,0,0,4234,0,16542,0
16604,-124,-8258,576,-72,7,-9,12342,-4,3,2,0,36991,108,24,144,0,0,0,0,0,0,0,0,-32297,0,0,0,4232,0,16556,0
16614,-138,-8232,558,-74,11,-8,12344,-1,-6,4,0,36995,116,24,144,0,0,0,0,0,0,0,0,-32296,0,0,0,4233,0,16566,0
16624,-126,-8230,526,-68,12,-14,12343,0,0,3,0,36994,115,24,144,0,0,0,0,0,0,0,0,-32297,0,0,0,4232,0,16576,0
16634,-124,-8254,548,-69,13,-12,12342,-3,1,3,0,36990,113,24,144,0,0,0,0,0,0,0,0,-32297,0,0,0,4232,0,16586,0
16644,-110,-8220,550,-70,13,-14,12342,-7,-2,4,0,36990,111,24,144,0,0,0,0,0,0,0,0,-32297,0,0,0,4232,0,16599,0
16654,-116,-8242,554,-68,11,-8,12342,-3,-3,5,0,36991,104,24,144,0,0,0,0,0,0,0,0,-32296,0,0,0,4232,0,16609,0
16664,-108,-8244,562,-73,8,-8,12343,-5,1,3,0,36992,97,24,144,0,0,0,0,0,0,0,0,-32297,0,0,0,4232,0,16619,0
16674,-150,-8228,568,-78,6,-12,12342,-6,-3,4,0,36996,96,23,144,0,0,0,0,0,0,0,0,-32297,0,0,0,4232,0,16629,0
16684,-130,-8224,528,-74,11,-6,12342,7,-2,5,0,36996,106,23,144,0,0,0,0,0,0,0,0,-32297,0,0,0,4230,0,16643,0
16694,-114,-8246,496,-69,9,-3,12343,-5,-5,5,0,37002,112,23,144,0,0,0,0,0,0,0,0,-32297,0,0,0,4231,0,16653,0
16704,-94,-8218,484,-59,12,-7,12342,3,-2,4,0,36998,104,24,144,0,0,0,0,0,0,0,0,-32297,0,0,0,4231,0,16663,0
16714,-136,-8234,506,-61,7,-4,12341,-3,0,3,0,36996,97,24,144,0,0,0,0,0,0,0,0,-32297,0,0,0,4231,0,16673,0
16724,-158,-8250,520,-56,12,-7,12343,5,-2,3,0,36994,110,24,144,0,0,0,0,0,0,0,0,-32296,0,0,0,4231,0,16687,0
16734,-130,-8252,532,-57,8,-5,12340,-12,-6,5,0,36992,114,24,144,0,0,0,0,0,0,0,0,-32297,0,0,0,4230,0,16697,0
16744,-104,-8230,558,-56,16,-3,12343,5,-2,5,0,36992,108,23,144,0,0,0,0,0,0,0,0,-32297,0,0,0,4231,0,16707,0
16754,-98,-8226,544,-52,18,-5,12342,1,0,4,0,36993,107,24,144,0,0,0,0,0,0,0,0,-32296,0,0,0,4231,0,16717,0
16764,-58,-8266,568,-51,19,5,12343,1,0,5,0,36994,120,24,144,0,0,0,0,0,0,0,0,-32297,0,0,0,4230,0,16730,0
16774,-60,-8236,566,-46,7,9,12342,-7,-1,1,0,36999,125,24,144,0,0,0,0,0,0,0,0,-32297,0,0,0,4230,0,16741,0
16784,-92,-8254,572,-52,9,19,12340,-10,-7,4,0,37001,121,24,144,0,0,0,0,0,0,0,0,-32297,0,0,0,4230,0,16751,0
16794,-104,-8250,552,-57,10,21,12342,3,-1,5,0,37001,115,24,144,0,0,0,0,0,0,0,0,-32297,0,0,0,4230,0,16761,0
16804,-160,-8224,522,-57,12,22,12344,-4,-1,4,0,36996,110,24,144,0,0,0,0,0,0,0,0,-32297,0,0,0,4230,0,16774,0
16814,-112,-8234,524,-48,15,18,12344,12,8,4,0,36996,111,23,144,0,0,0,0,0,0,0,0,-32297,0,0,0,4231,0,16784,0
16824,-122,-8220,478,-46,20,19,12343,4,5,4,0,36998,113,23,144,0,0,0,0,0,0,0,0,-32297,0,0,0,4232,0,16794,0
16834,-96,-8224,506,-45,16,17,12342,1,-7,3,0,36999,110,24,144,0,0,0,0,0,0,0,0,-32296,0,0,0,4231,0,16804,0
16844,-86,-8230,534,-43,14,27,12343,0,5,5,0,36998,110,24,144,0,0,0,0,0,0,0,0,-32297,0,0,0,4231,0,16817,0
16854,-120,-8238,560,-45,15,30,12342,0,2,3,0,36996,105,24,144,0,0,0,0,0,0,0,0,-32297,0,0,0,4232,0,16827,0
16864,-118,-8226,576,-46,12,26,12342,-9,-1,3,0,36997,111,24,144,0,0,0,0,0,0,0,0,-32297,0,0,0,4232,0,16837,0
16874,-112,-8202,556,-48,24,30,12343,9,0,3,0,37000,107,24,144,0,0,0,0,0,0,0,0,-32297,0,0,0,4232,0,16847,0
16884,-54,-8212,528,-47,24,42,12343,0,4,3,0,37004,115,24,144,0,0,0,0,0,0,0,0,-32297,0,0,0,4233,0,16859,0
16894,18,-8248,548,-47,21,53,12342,-4,1,5,0,37002,111,24,144,0,0,0,0,0,0,0,0,-32296,0,0,0,4233,0,16869,0
16904,18,-8262,618,-54,7,69,12342,-11,4,2,0,37006,115,24,144,0,0,0,0,0,0,0,0,-32297,0,0,0,4234,0,16879,0
16914,-90,-8226,634,-55,-13,84,12343,8,2,4,0,37008,107,24,144,0,0,0,0,0,0,0,0,-32297,0,0,0,4234,0,16889,0
16924,-184,-8238,634,-72,-31,94,12342,1,5,4,0,37005,108,24,144,0,0,0,0,0,0,0,0,-32297,0,0,0,4235,0,16902,0
16934,-266,-8218,518,-71,-27,89,12342,-3,0,2,0,37000,101,24,144,0,0,0,0,0,0,0,0,-32296,0,0,0,4237,0,16912,0
16944,-366,-8224,480,-71,-9,58,12342,-5,0,5,0,36999,105,24,144,0,0,0,0,0,0,0,0,-32297,0,0,0,4240,0,16922,0
16954,-346,-8230,424,-58,4,33,12342,-2,2,3,0,37000,110,24,144,0,0,0,0,0,0,0,0,-32297,0,0,0,4240,0,16934,0
16964,-324,-8196,416,-50,18,4,12343,3,1,3,0,37001,105,24,144,0,0,0,0,0,0,0,0,-32297,0,0,0,4240,0,16945,0
16974,-248,-8246,458,-37,24,-9,12343,7,-4,2,0,37001,106,24,144,0,0,0,0,0,0,0,0,-32297,0,0,0,4240,0,16955,0
16984,-224,-8254,508,-37,17,-24,12341,-6,0,4,0,37008,108,23,144,0,0,0,0,0,0,0,0,-32297,0,0,0,4239,0,16965,0
16994,-204,-8210,576,-33,17,-30,12342,-6,-1,5,0,37007,105,23,144,0,0,0,0,0,0,0,0,-32297,0,0,0,4239,0,16976,0
17004,-194,-8254,596,-36,22,-48,12341,2,2,4,0,37004,100,24,144,0,0,0,0,0,0,0,0,-32297,0,0,0,4238,0,16988,0
17014,-152,-8250,618,-44,27,-51,12342,-6,-4,2,0,37002,99,24,144,0,0,0,0,0,0,0,0,-32297,0,0,0,4237,0,16998,0
17024,-96,-8264,622,-50,24,-40,12341,-5,-1,5,0,36998,109,24,144,0,0,0,0,0,0,0,0,-32298,0,0,0,4236,0,17009,0
17034,-74,-8244,600,-54,25,-34,12342,-3,1,5,0,37000,111,24,144,0,0,0,0,0,0,0,0,-32297,0,0,0,4236,0,17021,0
17044,-60,-8244,582,-54,10,-22,12343,-3,0,4,0,36998,106,24,144,0,0,0,0,0,0,0,0,-32297,0,0,0,4235,0,17032,0
17054,-122,-8246,558,-56,-4,-16,12342,2,-5,4,0,36998,104,24,144,0,0,0,0,0,0,0,0,-32297,0,0,0,4234,0,17042,0
17064,-194,-8236,514,-52,5,-19,12342,-14,-3,4,0,36999,106,24,144,0,0,0,0,0,0,0,0,-32297,0,0,0,4235,0,17052,0
17074,-162,-8242,514,-48,11,-30,12341,-17,-5,5,0,36997,108,24,144,0,0,0,0,0,0,0,0,-32297,0,0,0,4234,0,17065,0
17084,-174,-8220,492,-46,24,-36,12342,-6,-2,3,0,36996,103,24,144,0,0,0,0,0,0,0,0,-32297,0,0,0,4234,0,17075,0
17094,-134,-8230,498,-41,20,-36,12342,-4,-3,4,0,37000,105,24,144,0,0,0,0,0,0,0,0,-32297,0,0,0,4233,0,17085,0
17104,-144,-8256,552,-38,21,-39,12343,1,4,2,0,37000,109,24,144,0,0,0,0,0,0,0,0,-32297,0,0,0,4233,0,17095,0
17114,-142,-8230,558,-44,21,-47,12342,-12,-5,3,0,37001,115,24,144,0,0,0,0,0,0,0,0,-32296,0,0,0,4233,0,17107,0
17124,-118,-8272,566,-41,25,-41,12343,5,2,4,0,36995,120,24,144,0,0,0,0,0,0,0,0,-32296,0,0,0,4230,0,17117,0
17134,-100,-8276,582,-46,23,-37,12342,-8,-4,5,0,36995,117,24,144,0,0,0,0,0,0,0,0,-32297,0,0,0,4230,0,17127,0
17144,-64,-8224,566,-49,22,-25,12344,11,1,4,0,36997,115,24,144,0,0,0,0,0,0,0,0,-32297,0,0,0,4230,0,17137,0
17154,-74,-8234,586,-48,20,-25,12343,5,-1,5,0,37008,107,24,144,0,0,0,0,0,0,0,0,-32297,0,0,0,4230,0,17150,0
17164,-96,-8222,558,-49,10,-24,12342,0,5,4,0,37006,101,24,144,0,0,0,0,0,0,0,0,-32297,0,0,0,4229,0,17160,0
17174,-112,-8228,564,-53,5,-16,12343,5,0,5,0,37004,103,24,144,0,0,0,0,0,0,0,0,-32297,0,0,0,4229,0,17170,0
17184,-118,-8252,520,-47,11,-23,12343,0,-1,3,0,36992,102,24,144,0,0,0,0,0,0,0,0,-32296,0,0,0,4228,0,17183,0
17194,-128,-8222,520,-43,18,-24,12343,0,-2,4,0,36999,101,24,144,0,0,0,0,0,0,0,0,-32297,0,0,0,4228,0,17195,0
17204,-102,-8204,564,-52,17,-23,12342,-3,5,3,0,37002,104,24,144,0,0,0,0,0,0,0,0,-32297,0,0,0,4226,0,17205,0
17214,-82,-8232,562,-47,17,-23,12343,3,7,4,0,37001,105,24,144,0,0,0,0,0,0,0,0,-32297,0,0,0,4227,0,17215,0
17224,-88,-8238,574,-52,16,-19,12342,5,3,6,0,36993,111,24,144,0,0,0,0,0,0,0,0,-32297,0,0,0,4226,0,17228,0
17234,-80,-8230,564,-54,16,-14,12341,-3,-2,3,0,36990,115,24,144,0,0,0,0,0,0,0,0,-32297,0,0,0,4225,0,17239,0
17244,-80,-8240,536,-54,19,-6,12341,0,1,4,0,36991,112,24,144,0,0,0,0,0,0,0,0,-32297,0,0,0,4226,0,17249,0
17254,-68,-8236,550,-49,11,-7,12343,0,-4,2,0,36993,112,24,144,0,0,0,0,0,0,0,0,-32297,0,0,0,4226,0,17259,0
17264,-94,-8246,564,-48,12,0,12343,-5,-6,3,0,36990,112,24,144,0,0,0,0,0,0,0,0,-32297,0,0,0,4225,0,17272,0
17274,-84,-8240,578,-50,12,1,12343,0,-3,4,0,36989,112,24,144,0,0,0,0,0,0,0,0,-32297,0,0,0,4226,0,17283,0
17284,-118,-8224,554,-53,8,-2,12344,8,-2,3,0,36990,119,24,144,0,0,0,0,0,0,0,0,-32297,0,0,0,4225,0,17293,0
17294,-122,-8246,560,-53,11,-8,12342,3,2,8,0,36998,103,24,144,0,0,0,0,0,0,0,0,-32297,0,0,0,4225,0,17303,0
17304,-120,-8206,570,-61,16,-15,12343,4,-2,3,0,36999,95,24,144,0,0,0,0,0,0,0,0,-32297,0,0,0,4225,0,17316,0
17314,-80,-8246,584,-59,16,-13,12342,-7,4,3,0,37000,99,24,144,0,0,0,0,0,0,0,0,-32297,0,0,0,4225,0,17326,0
17324,-104,-8220,548,-57,13,-8,12344,3,-6,5,0,36992,110,24,144,0,0,0,0,0,0,0,0,-32297,0,0,0,4225,0,17336,0
17334,-82,-8200,526,-61,11,-13,12342,-4,3,2,0,36990,101,24,144,0,0,0,0,0,0,0,0,-32297,0,0,0,4226,0,17346,0
17344,-114,-8252,548,-59,13,-16,12342,-7,0,5,0,36986,99,24,144,0,0,0,0,0,0,0,0,-32297,0,0,0,4225,0,17360,0
17354,-106,-8242,506,-56,12,-11,12342,-5,4,4,0,36987,100,24,144,0,0,0,0,0,0,0,0,-32297,0,0,0,4224,0,17369,0
17364,-96,-8208,532,-58,11,-17,12341,-9,3,4,0,36987,105,24,144,0,0,0,0,0,0,0,0,-32297,0,0,0,4223,0,17380,0
17374,-108,-8282,534,-54,13,-12,12344,11,-1,5,0,36987,102,24,144,0,0,0,0,0,0,0,0,-32297,0,0,0,4222,0,17390,0
17384,-86,-8234,570,-57,6,-4,12342,-5,4,5,0,36988,107,24,144,0,0,0,0,0,0,0,0,-32297,0,0,0,4222,0,17403,0
17394,-94,-8244,566,-50,10,-9,12343,0,-1,4,0,36988,117,24,144,0,0,0,0,0,0,0,0,-32297,0,0,0,4222,0,17413,0
17404,-114,-8260,572,-55,13,-15,12342,3,3,3,0,36993,114,23,144,0,0,0,0,0,0,0,0,-32297,0,0,0,4222,0,17423,0
17414,-122,-8244,572,-64,8,-22,12340,-12,-5,1,0,36993,114,23,144,0,0,0,0,0,0,0,0,-32297,0,0,0,4221,0,17433,0
17424,-114,-8242,524,-63,9,-27,12342,-6,-3,2,0,36993,114,24,144,0,0,0,0,0,0,0,0,-32297,0,0,0,4220,0,17446,0
17434,-108,-8256,544,-62,11,-32,12343,1,-1,2,0,36986,116,24,144,0,0,0,0,0,0,0,0,-32296,0,0,0,4221,0,17456,0
17444,-122,-8250,518,-59,11,-30,12343,2,-3,3,0,36984,112,24,144,0,0,0,0,0,0,0,0,-32297,0,0,0,4220,0,17466,0
17454,-94,-8208,490,-60,13,-32,12342,1,0,3,0,36984,105,24,144,0,0,0,0,0,0,0,0,-32297,0,0,0,4219,0,17480,0
17464,-58,-8254,538,-60,16,-39,12343,7,1,4,0,36984,102,24,144,0,0,0,0,0,0,0,0,-32297,0,0,0,4219,0,17490,0
17474,-90,-8198,572,-56,15,-34,12342,0,-8,5,0,36984,105,24,144,0,0,0,0,0,0,0,0,-32297,0,0,0,4219,0,17500,0
17484,-84,-8256,594,-62,16,-32,12342,-6,-1,6,0,36983,103,24,144,0,0,0,0,0,0,0,0,-32296,0,0,0,4219,0,17510,0
17494,-80,-8238,596,-65,14,-26,12342,0,3,5,0,36984,102,24,144,0,0,0,0,0,0,0,0,-32297,0,0,0,4217,0,17524,0
17504,-94,-8246,544,-67,15,-30,12341,0,7,5,0,36990,104,24,144,0,0,0,0,0,0,0,0,-32297,0,0,0,4217,0,17534,0
17514,-72,-8240,520,-65,12,-29,12341,-3,1,4,0,36996,119,24,144,0,0,0,0,0,0,0,0,-32297,0,0,0,4217,0,17544,0
17524,-116,-8246,520,-68,9,-29,12343,-1,-4,7,0,36995,124,24,144,0,0,0,0,0,0,0,0,-32297,0,0,0,4216,0,17554,0
17534,-90,-8268,550,-65,15,-35,12343,7,2,5,0,36991,128,24,144,0,0,0,0,0,0,0,0,-32297,0,0,0,4215,0,17566,0
17544,-82,-8206,550,-68,20,-36,12343,-5,-2,5,0,36987,110,24,144,0,0,0,0,0,0,0,0,-32297,0,0,0,4215,0,17576,0
17554,-46,-8224,540,-69,18,-37,12342,0,4,3,0,36987,99,24,144,0,0,0,0,0,0,0,0,-32297,0,0,0,4215,0,17586,0
17564,0,-8212,538,-68,21,-32,12343,-1,2,3,0,36988,103,24,144,0,0,0,0,0,0,0,0,-32297,0,0,0,4213,0,17596,0
17574,-44,-8248,536,-62,18,-23,12341,-2,1,5,0,36989,104,24,144,0,0,0,0,0,0,0,0,-32297,0,0,0,4213,0,17610,0
17584,-26,-8250,536,-70,11,-14,12343,4,-2,5,0,36989,109,24,144,0,0,0,0,0,0,0,0,-32297,0,0,0,4212,0,17620,0
17594,-42,-8264,574,-64,12,-12,12342,5,0,4,0,36987,103,24,144,0,0,0,0,0,0,0,0,-32297,0,0,0,4212,0,17630,0
17604,-34,-8224,556,-65,15,-9,12341,4,6,4,0,36987,106,24,144,0,0,0,0,0,0,0,0,-32297,0,0,0,4213,0,17640,0
17614,-62,-8248,534,-71,6,-7,12342,6,-4,3,0,36994,107,24,144,0,0,0,0,0,0,0,0,-32297,0,0,0,4213,0,17654,0
17624,-86,-8230,546,-76,12,-8,12342,1,-5,4,0,36996,110,24,144,0,0,0,0,0,0,0,0,-32297,0,0,0,4212,0,17665,0
17634,-94,-8222,512,-71,10,-5,12343,1,1,5,0,36993,104,24,144,0,0,0,0,0,0,0,0,-32297,0,0,0,4212,0,17675,0
17644,-88,-8230,514,-70,15,-17,12343,5,5,5,0,36988,102,24,144,0,0,0,0,0,0,0,0,-32297,0,0,0,4212,0,17684,0
17654,-88,-8226,482,-63,16,-15,12342,5,-4,2,0,36990,107,24,144,0,0,0,0,0,0,0,0,-32297,0,0,0,4211,0,17697,0
17664,-62,-8234,556,-66,18,-17,12343,-1,-1,2,0,36991,103,24,144,0,0,0,0,0,0,0,0,-32296,0,0,0,4211,0,17707,0
17674,-82,-8232,546,-70,19,-26,12343,0,-3,2,0,36990,103,24,144,0,0,0,0,0,0,0,0,-32297,0,0,0,4210,0,17718,0
17684,-38,-8214,564,-68,15,-22,12342,0,-1,4,0,36989,98,24,144,0,0,0,0,0,0,0,0,-32297,0,0,0,4211,0,17730,0
17694,-48,-8256,550,-71,22,-23,12342,6,2,6,0,36993,100,24,144,0,0,0,0,0,0,0,0,-32297,0,0,0,4210,0,17741,0
17704,-32,-8228,552,-75,15,-11,12342,-3,3,4,0,36996,95,24,144,0,0,0,0,0,0,0,0,-32297,0,0,0,4210,0,17751,0
17714,-70,-8256,530,-70,11,-6,12341,0,-1,4,0,36997,106,24,144,0,0,0,0,0,0,0,0,-32297,0,0,0,4209,0,17761,0
17724,-44,-8228,526,-72,18,-7,12344,4,4,5,0,36996,112,24,144,0,0,0,0,0,0,0,0,-32296,0,0,0,4209,0,17776,0
17734,-48,-8208,538,-72,21,-7,12342,1,4,3,0,36993,119,24,144,0,0,0,0,0,0,0,0,-32297,0,0,0,4210,0,17786,0
17744,-10,-8254,470,-65,14,-7,12342,0,-2,5,0,36991,109,24,144,0,0,0,0,0,0,0,0,-32297,0,0,0,4208,0,17796,0
17754,-12,-8230,460,-61,24,-4,12343,3,7,2,0,36993,100,24,144,0,0,0,0,0,0,0,0,-32296,0,0,0,4207,0,17806,0
17764,0,-8192,466,-57,15,8,12343,1,7,5,0,36993,95,24,144,0,0,0,0,0,0,0,0,-32296,0,0,0,4208,0,17819,0
17774,-16,-8246,522,-53,14,8,12342,4,-1,3,0,36993,101,24,144,0,0,0,0,0,0,0,0,-32297,0,0,0,4207,0,17830,0
17784,-20,-8226,552,-57,16,12,12344,6,4,3,0,36993,105,24,144,0,0,0,0,0,0,0,0,-32297,0,0,0,4207,0,17840,0
17794,-30,-8242,560,-53,19,15,12343,4,-3,5,0,36994,108,24,144,0,0,0,0,0,0,0,0,-32297,0,0,0,4209,0,17850,0
17804,-42,-8260,546,-57,18,10,12343,0,0,2,0,36995,99,24,144,0,0,0,0,0,0,0,0,-32296,0,0,0,4207,0,17862,0
17814,-46,-8236,522,-59,17,16,12343,-3,-7,4,0,36993,101,24,144,0,0,0,0,0,0,0,0,-32297,0,0,0,4208,0,17872,0
17824,-72,-8234,508,-59,17,20,12344,11,5,5,0,36999,100,24,144,0,0,0,0,0,0,0,0,-32297,0,0,0,4209,0,17882,0
17834,-60,-8244,494,-60,18,14,12343,0,2,4,0,37001,107,24,144,0,0,0,0,0,0,0,0,-32297,0,0,0,4207,0,17895,0
17844,-72,-8220,520,-54,14,17,12342,2,-1,4,0,37004,108,24,144,0,0,0,0,0,0,0,0,-32297,0,0,0,4209,0,17906,0
17854,-56,-8236,560,-56,16,11,12342,0,0,2,0,36998,98,24,144,0,0,0,0,0,0,0,0,-32297,0,0,0,4208,0,17916,0
17864,-64,-8196,520,-52,21,8,12343,5,-3,3,0,36996,97,24,144,0,0,0,0,0,0,0,0,-32297,0,0,0,4208,0,17926,0
17874,-64,-8226,530,-54,18,10,12342,0,6,5,0,36998,101,24,144,0,0,0,0,0,0,0,0,-32297,0,0,0,4210,0,17940,0
17884,-54,-8236,490,-55,18,8,12342,4,4,3,0,36996,96,24,144,0,0,0,0,0,0,0,0,-32297,0,0,0,4207,0,17950,0
17894,-46,-8242,522,-52,16,14,12344,4,6,4,0,36996,103,24,144,0,0,0,0,0,0,0,0,-32297,0,0,0,4208,0,17960,0
17904,-30,-8244,534,-53,20,11,12342,-9,-1,3,0,36999,100,24,144,0,0,0,0,0,0,0,0,-32297,0,0,0,4209,0,17970,0
17914,-72,-8228,526,-60,18,12,12344,8,2,4,0,37004,109,24,144,0,0,0,0,0,0,0,0,-32297,0,0,0,4207,0,17983,0
17924,-42,-8254,542,-57,16,13,12343,1,1,2,0,37009,115,24,144,0,0,0,0,0,0,0,0,-32297,0,0,0,4209,0,17993,0
17934,-44,-8260,514,-56,13,18,12342,-2,0,4,0,37005,115,24,144,0,0,0,0,0,0,0,0,-32297,0,0,0,4210,0,18003,0
17944,-56,-8214,534,-57,16,19,12341,4,-4,4,0,37001,101,24,144,0,0,0,0,0,0,0,0,-32297,0,0,0,4210,0,18013,0
17954,-78,-8206,502,-56,16,14,12342,-1,3,2,0,36998,106,24,144,0,0,0,0,0,0,0,0,-32297,0,0,0,4210,0,18026,0
17964,-82,-8220,494,-48,13,13,12343,4,-1,5,0,36998,101,24,144,0,0,0,0,0,0,0,0,-32297,0,0,0,4210,0,18036,0
17974,-68,-8232,492,-52,14,9,12342,-3,-4,5,0,36998,100,24,144,0,0,0,0,0,0,0,0,-32297,0,0,0,4210,0,18046,0
17984,-64,-8252,486,-48,16,14,12343,0,0,3,0,36998,103,24,144,0,0,0,0,0,0,0,0,-32297,0,0,0,4210,0,18056,0
17994,-70,-8254,508,-49,18,13,12342,-4,-6,6,0,36997,101,24,144,0,0,0,0,0,0,0,0,-32297,0,0,0,4210,0,18070,0
18004,-42,-8208,546,-50,19,11,12343,7,1,3,0,36997,99,24,144,0,0,0,0,0,0,0,0,-32297,0,0,0,4210,0,18080,0
18014,-46,-8254,532,-48,19,12,12344,6,-2,3,0,36999,102,24,144,0,0,0,0,0,0,0,0,-32297,0,0,0,4210,0,18090,0
18024,-48,-8234,498,-51,15,16,12344,18,5,6,0,37001,100,24,144,0,0,0,0,0,0,0,0,-32296,0,0,0,4210,0,18100,0
18034,-38,-8220,502,-51,7,21,12342,-8,0,2,0,37003,101,24,144,0,0,0,0,0,0,0,0,-32296,0,0,0,4210,0,18112,0
18044,-60,-8266,496,-53,9,16,12342,-3,4,4,0,37001,109,24,144,0,0,0,0,0,0,0,0,-32297,0,0,0,4210,0,18122,0
18054,-36,-8250,498,-42,18,16,12343,-1,-1,3,0,37002,113,24,144,0,0,0,0,0,0,0,0,-32297,0,0,0,4211,0,18132,0
18064,-58,-8250,532,-47,14,23,12345,6,1,2,0,36998,122,24,144,0,0,0,0,0,0,0,0,-32296,0,0,0,4210,0,18145,0
18074,-44,-8222,532,-47,11,14,12342,3,1,5,0,36996,116,24,144,0,0,0,0,0,0,0,0,-32297,0,0,0,4211,0,18155,0
18084,-52,-8234,510,-49,20,22,12343,10,7,4,0,36994,112,24,144,0,0,0,0,0,0,0,0,-32296,0,0,0,4210,0,18165,0
18094,-66,-8236,510,-45,14,24,12341,-17,-3,3,0,36993,102,24,144,0,0,0,0,0,0,0,0,-32297,0,0,0,4210,0,18175,0
18104,-76,-8224,512,-45,16,19,12344,-3,2,4,0,36997,99,24,144,0,0,0,0,0,0,0,0,-32296,0,0,0,4211,0,18188,0
18114,-68,-8214,494,-44,17,23,12342,-7,-2,3,0,36999,97,24,144,0,0,0,0,0,0,0,0,-32297,0,0,0,4211,0,18198,0
18124,-82,-8242,508,-45,22,16,12343,5,3,5,0,36996,99,24,144,0,0,0,0,0,0,0,0,-32297,0,0,0,4211,0,18208,0
18134,-84,-8226,524,-39,18,18,12342,3,-3,3,0,36993,113,24,144,0,0,0,0,0,0,0,0,-32297,0,0,0,4211,0,18218,0
18144,-88,-8248,528,-43,14,12,12342,-4,1,4,0,36998,109,24,144,0,0,0,0,0,0,0,0,-32297,0,0,0,4211,0,18231,0
18154,-86,-8258,552,-41,18,8,12342,0,2,3,0,36998,102,24,144,0,0,0,0,0,0,0,0,-32297,0,0,0,4212,0,18241,0
18164,-72,-8232,534,-45,10,7,12342,0,2,2,0,36999,99,24,144,0,0,0,0,0,0,0,0,-32297,0,0,0,4212,0,18251,0
18174,-66,-8266,514,-44,15,5,12342,3,2,6,0,36992,113,24,144,0,0,0,0,0,0,0,0,-32297,0,0,0,4211,0,18262,0
18184,-56,-8224,538,-44,14,8,12344,0,3,3,0,36990,116,24,144,0,0,0,0,0,0,0,0,-32297,0,0,0,4212,0,18274,0
18194,-70,-8254,530,-45,15,8,12343,-2,-3,3,0,36991,112,24,144,0,0,0,0,0,0,0,0,-32297,0,0,0,4211,0,18284,0
18204,-70,-8230,514,-45,16,10,12342,5,-7,4,0,36994,107,24,144,0,0,0,0,0,0,0,0,-32297,0,0,0,4212,0,18294,0
18214,-48,-8234,506,-42,17,7,12343,1,6,3,0,36996,113,24,144,0,0,0,0,0,0,0,0,-32297,0,0,0,4212,0,18306,0
18224,-36,-8220,520,-40,14,16,12343,1,-7,7,0,36992,115,24,144,0,0,0,0,0,0,0,0,-32297,0,0,0,4211,0,18320,0
18234,-30,-8250,524,-43,14,22,12342,-2,0,3,0,36990,118,24,144,0,0,0,0,0,0,0,0,-32296,0,0,0,4212,0,18330,0
18244,-52,-8230,532,-45,10,24,12342,3,4,8,0,36995,107,24,144,0,0,0,0,0,0,0,0,-32297,0,0,0,4212,0,18340,0
18254,-60,-8220,544,-48,14,23,12342,-2,-7,4,0,36996,99,24,144,0,0,0,0,0,0,0,0,-32297,0,0,0,4212,0,18352,0
18264,-82,-8246,540,-45,13,25,12344,9,5,3,0,36996,102,24,144,0,0,0,0,0,0,0,0,-32297,0,0,0,4212,0,18362,0
18274,-74,-8240,532,-44,14,25,12341,-7,-1,3,0,36989,101,24,144,0,0,0,0,0,0,0,0,-32297,0,0,0,4213,0,18372,0
18284,-94,-8226,546,-49,12,15,12343,5,2,1,0,36988,103,24,144,0,0,0,0,0,0,0,0,-32297,0,0,0,4213,0,18382,0
18294,-100,-8250,522,-43,8,10,12343,-3,2,4,0,36990,97,24,144,0,0,0,0,0,0,0,0,-32297,0,0,0,4213,0,18392,0
18304,-86,-8244,556,-47,15,6,12344,7,2,4,0,36992,99,24,144,0,0,0,0,0,0,0,0,-32297,0,0,0,4213,0,18402,0
18314,-126,-8222,492,-48,10,0,12342,1,0,2,0,36993,99,24,144,0,0,0,0,0,0,0,0,-32297,0,0,0,4213,0,18412,0
18324,-110,-8238,526,-48,15,-4,12342,0,0,5,0,36991,106,24,144,0,0,0,0,0,0,0,0,-32297,0,0,0,4213,0,18422,0
18334,-108,-8228,524,-46,13,-7,12344,9,-3,4,0,36989,112,24,144,0,0,0,0,0,0,0,0,-32297,0,0,0,4213,0,18432,0
18344,-94,-8216,538,-46,15,-14,12342,2,2,5,0,36989,114,24,144,0,0,0,0,0,0,0,0,-32297,0,0,0,4213,0,18442,0
18354,-88,-8260,534,-48,16,-11,12341,-8,0,4,0,36994,115,24,144,0,0,0,0,0,0,0,0,-32297,0,0,0,4213,0,18452,0
18364,-52,-8232,540,-51,14,-13,12341,-9,-3,2,0,36995,108,24,144,0,0,0,0,0,0,0,0,-32297,0,0,0,4213,0,18462,0
18374,-50,-8198,530,-50,18,-17,12342,6,1,5,0,36992,110,24,144,0,0,0,0,0,0,0,0,-32297,0,0,0,4212,0,18472,0
18384,-60,-8280,526,-53,17,-16,12342,-5,-2,3,0,36985,99,24,144,0,0,0,0,0,0,0,0,-32297,0,0,0,4211,0,18482,0
18394,-42,-8236,534,-49,15,-11,12343,2,1,3,0,36985,96,24,144,0,0,0,0,0,0,0,0,-32297,0,0,0,4212,0,18492,0
18404,-46,-8216,490,-53,13,-8,12342,-9,4,4,0,36986,101,24,144,0,0,0,0,0,0,0,0,-32296,0,0,0,4211,0,18502,0
18414,-24,-8238,548,-55,11,-3,12342,4,0,4,0,36985,98,24,144,0,0,0,0,0,0,0,0,-32296,0,0,0,4211,0,18512,0
18424,-26,-8236,516,-56,13,3,12343,2,0,7,0,36987,106,24,144,0,0,0,0,0,0,0,0,-32297,0,0,0,4211,0,18522,0
18434,-14,-8222,522,-49,18,5,12343,2,-1,3,0,36999,111,24,144,0,0,0,0,0,0,0,0,-32297,0,0,0,4210,0,18532,0
18444,-28,-8262,536,-45,14,14,12342,0,2,5,0,37011,116,24,144,0,0,0,0,0,0,0,0,-32297,0,0,0,4212,0,18542,0
18454,-66,-8252,552,-50,12,9,12342,6,1,6,0,37015,107,24,144,0,0,0,0,0,0,0,0,-32297,0,0,0,4211,0,18552,0
18464,-64,-8218,554,-52,12,9,12341,-6,0,1,0,37003,101,24,144,0,0,0,0,0,0,0,0,-32297,0,0,0,4210,0,18562,0
18474,-62,-8224,534,-54,14,14,12340,-8,1,5,0,36993,102,24,144,0,0,0,0,0,0,0,0,-32297,0,0,0,4211,0,18572,0
18484,-80,-8232,534,-60,11,5,12342,2,-6,3,0,36992,106,24,144,0,0,0,0,0,0,0,0,-32297,0,0,0,4211,0,18582,0
18494,-68,-8256,522,-49,18,2,12341,-12,3,4,0,36986,100,24,144,0,0,0,0,0,0,0,0,-32297,0,0,0,4210,0,18592,0
18504,-64,-8250,530,-52,12,3,12342,-2,1,6,0,36988,98,24,144,0,0,0,0,0,0,0,0,-32297,0,0,0,4211,0,18602,0
18514,-82,-8242,506,-52,14,1,12343,-4,-2,3,0,36990,96,24,144,0,0,0,0,0,0,0,0,-32297,0,0,0,4210,0,18612,0
18524,-80,-8240,530,-47,16,5,12342,7,7,5,0,36990,101,24,144,0,0,0,0,0,0,0,0,-32297,0,0,0,4210,0,18622,0
18534,-66,-8248,544,-55,18,1,12343,2,6,5,0,36990,104,24,144,0,0,0,0,0,0,0,0,-32297,0,0,0,4211,0,18632,0
18544,-54,-8222,566,-55,15,3,12342,10,7,5,0,36986,114,24,144,0,0,0,0,0,0,0,0,-32297,0,0,0,4210,0,18642,0
18554,-38,-8256,554,-52,18,-1,12344,0,2,4,0,36983,118,24,144,0,0,0,0,0,0,0,0,-32297,0,0,0,4211,0,18652,0
18564,-36,-8234,550,-57,11,3,12344,2,0,6,0,36983,126,24,144,0,0,0,0,0,0,0,0,-32297,0,0,0,4210,0,18662,0
18574,-36,-8238,538,-62,14,0,12343,3,-1,5,0,36984,120,24,144,0,0,0,0,0,0,0,0,-32297,0,0,0,4210,0,18672,0
18584,-68,-8228,530,-59,16,8,12343,-1,-4,3,0,36985,107,24,144,0,0,0,0,0,0,0,0,-32297,0,0,0,4210,0,18682,0
18594,-60,-8224,500,-55,19,7,12343,1,-5,4,0,36986,102,24,144,0,0,0,0,0,0,0,0,-32297,0,0,0,4210,0,18693,0
18604,-44,-8256,526,-55,11,10,12343,2,-2,7,0,36986,96,24,144,0,0,0,0,0,0,0,0,-32297,0,0,0,4211,0,18703,0
18614,-50,-8254,522,-59,15,8,12342,-6,-4,2,0,36987,96,24,144,0,0,0,0,0,0,0,0,-32297,0,0,0,4211,0,18713,0
18624,-72,-8218,520,-57,16,12,12342,2,-2,6,0,36988,96,24,144,0,0,0,0,0,0,0,0,-32297,0,0,0,4211,0,18723,0
18634,-64,-8230,532,-52,13,11,12342,-3,-5,3,0,36987,99,24,144,0,0,0,0,0,0,0,0,-32297,0,0,0,4210,0,18733,0
18644,-82,-8256,518,-55,17,4,12343,0,3,5,0,36986,99,24,144,0,0,0,0,0,0,0,0,-32297,0,0,0,4210,0,18743,0
18654,-50,-8232,500,-53,15,6,12343,2,2,6,0,36990,104,24,144,0,0,0,0,0,0,0,0,-32297,0,0,0,4211,0,18753,0
18664,-68,-8230,530,-57,15,4,12342,-3,-1,3,0,36993,105,24,144,0,0,0,0,0,0,0,0,-32297,0,0,0,4210,0,18763,0
18674,-58,-8226,522,-46,16,6,12343,14,-2,3,0,36997,111,24,144,0,0,0,0,0,0,0,0,-32297,0,0,0,4210,0,18773,0
18684,-40,-8244,518,-49,17,9,12343,6,7,6,0,36993,109,24,144,0,0,0,0,0,0,0,0,-32297,0,0,0,4212,0,18783,0
18694,-60,-8234,516,-53,17,7,12343,6,5,3,0,36992,104,24,144,0,0,0,0,0,0,0,0,-32297,0,0,0,4211,0,18793,0
18704,-58,-8238,540,-55,11,5,12341,-9,2,3,0,36990,104,24,144,0,0,0,0,0,0,0,0,-32297,0,0,0,4211,0,18803,0
18714,-14,-8222,514,-59,18,6,12343,4,-1,3,0,36993,100,24,144,0,0,0,0,0,0,0,0,-32297,0,0,0,4210,0,18813,0
18724,-38,-8244,528,-51,17,5,12342,1,-2,5,0,36993,103,24,144,0,0,0,0,0,0,0,0,-32296,0,0,0,4211,0,18823,0
18734,-60,-8234,514,-51,18,10,12342,1,2,2,0,36991,113,24,144,0,0,0,0,0,0,0,0,-32297,0,0,0,4211,0,18833,0
18744,-36,-8256,528,-50,18,10,12343,2,8,4,0,36990,112,24,144,0,0,0,0,0,0,0,0,-32297,0,0,0,4211,0,18843,0
18754,-30,-8246,530,-49,19,13,12342,-2,3,4,0,36990,104,24,144,0,0,0,0,0,0,0,0,-32297,0,0,0,4210,0,18853,0
18764,-52,-8248,560,-51,13,9,12343,2,1,3,0,36990,105,24,144,0,0,0,0,0,0,0,0,-32297,0,0,0,4211,0,18863,0
18774,-62,-8232,532,-51,15,15,12342,-5,2,4,0,36995,104,24,144,0,0,0,0,0,0,0,0,-32297,0,0,0,4210,0,18873,0
18784,-56,-8288,518,-54,13,17,12341,-2,-4,5,0,36999,102,24,144,0,0,0,0,0,0,0,0,-32297,0,0,0,4211,0,18883,0
18794,-52,-8244,526,-53,21,11,12343,-4,1,5,0,37002,100,24,144,0,0,0,0,0,0,0,0,-32297,0,0,0,4211,0,18893,0
18804,-58,-8232,518,-54,16,15,12342,-2,-8,4,0,37004,99,24,144,0,0,0,0,0,0,0,0,-32297,0,0,0,4211,0,18903,0
18814,-80,-8268,496,-53,15,8,12344,3,0,3,0,36995,99,24,144,0,0,0,0,0,0,0,0,-32296,0,0,0,4211,0,18913,0
18824,-76,-8244,534,-52,11,3,12343,-6,-6,5,0,36993,99,24,144,0,0,0,0,0,0,0,0,-32297,0,0,0,4212,0,18923,0
18834,-72,-8240,518,-49,10,1,12344,6,-1,5,0,36995,107,24,144,0,0,0,0,0,0,0,0,-32297,0,0,0,4210,0,18933,0
18844,-52,-8272,506,-52,14,4,12343,4,5,4,0,36996,118,24,144,0,0,0,0,0,0,0,0,-32297,0,0,0,4211,0,18943,0
18854,-58,-8260,528,-49,13,6,12343,1,1,6,0,36996,118,24,144,0,0,0,0,0,0,0,0,-32297,0,0,0,4211,0,18953,0
18864,-68,-8250,526,-52,9,2,12342,8,-2,3,0,36997,118,24,144,0,0,0,0,0,0,0,0,-32297,0,0,0,4210,0,18963,0
18874,-72,-8244,526,-53,14,2,12343,2,-5,5,0,36997,116,24,144,0,0,0,0,0,0,0,0,-32297,0,0,0,4210,0,18973,0
18884,-68,-8250,498,-51,17,5,12342,-5,-1,6,0,37000,117,24,144,0,0,0,0,0,0,0,0,-32297,0,0,0,4211,0,18983,0
18894,-64,-8242,522,-51,19,6,12342,0,-4,4,0,36998,113,24,144,0,0,0,0,0,0,0,0,-32297,0,0,0,4210,0,18993,0
18904,-28,-8220,524,-50,11,5,12343,-6,-7,4,0,36998,108,24,144,0,0,0,0,0,0,0,0,-32297,0,0,0,4211,0,19003,0
18914,-22,-8240,530,-52,13,7,12343,5,5,3,0,37001,98,24,144,0,0,0,0,0,0,0,0,-32297,0,0,0,4211,0,19013,0
18924,-48,-8222,502,-50,16,4,12342,-3,4,5,0,37002,107,24,144,0,0,0,0,0,0,0,0,-32297,0,0,0,4211,0,19025,0
18934,-48,-8240,534,-47,18,3,12341,-9,3,4,0,37001,106,24,144,0,0,0,0,0,0,0,0,-32297,0,0,0,4211,0,19035,0
18944,-62,-8236,530,-51,18,9,12342,-8,2,3,0,36996,107,24,144,0,0,0,0,0,0,0,0,-32297,0,0,0,4210,0,19045,0
18954,-58,-8256,508,-51,13,8,12342,5,4,6,0,36999,100,24,144,0,0,0,0,0,0,0,0,-32297,0,0,0,4211,0,19055,0
18964,-62,-8222,546,-56,12,10,12344,6,1,2,0,36999,111,24,144,0,0,0,0,0,0,0,0,-32297,0,0,0,4211,0,19065,0
18974,-70,-8258,532,-54,11,9,12342,-14,-2,3,0,36999,113,24,144,0,0,0,0,0,0,0,0,-32297,0,0,0,4211,0,19076,0
18984,-94,-8210,540,-47,14,12,12341,-7,-1,6,0,37003,115,24,144,0,0,0,0,0,0,0,0,-32297,0,0,0,4212,0,19086,0
18994,-90,-8232,510,-49,14,8,12344,2,4,2,0,37005,112,24,144,0,0,0,0,0,0,0,0,-32297,0,0,0,4211,0,19096,0
19004,-74,-8250,536,-55,13,2,12342,-1,1,4,0,37005,102,24,144,0,0,0,0,0,0,0,0,-32297,0,0,0,4211,0,19106,0
19014,-72,-8240,518,-45,17,9,12342,2,-1,2,0,37005,107,24,144,0,0,0,0,0,0,0,0,-32297,0,0,0,4212,0,19115,0
19024,-70,-8224,506,-47,14,2,12342,-1,2,5,0,36997,110,24,144,0,0,0,0,0,0,0,0,-32297,0,0,0,4211,0,19126,0
19034,-52,-8226,506,-49,14,6,12342,-8,-1,3,0,36996,110,24,144,0,0,0,0,0,0,0,0,-32297,0,0,0,4212,0,19136,0
19044,-28,-8200,528,-47,12,4,12342,0,3,3,0,36995,103,24,144,0,0,0,0,0,0,0,0,-32297,0,0,0,4211,0,19146,0
19054,-30,-8254,510,-47,19,6,12341,-8,0,4,0,36994,103,24,144,0,0,0,0,0,0,0,0,-32296,0,0,0,4211,0,19156,0
19064,-34,-8236,534,-49,19,10,12342,-7,4,4,0,36994,107,24,144,0,0,0,0,0,0,0,0,-32297,0,0,0,4211,0,19166,0
19074,-40,-8254,524,-46,10,13,12342,-1,3,5,0,36995,116,24,144,0,0,0,0,0,0,0,0,-32297,0,0,0,4211,0,19176,0
19084,-54,-8222,538,-47,18,8,12343,0,-6,7,0,36993,113,24,144,0,0,0,0,0,0,0,0,-32297,0,0,0,4211,0,19186,0
19094,-66,-8244,534,-48,17,8,12342,2,3,1,0,36997,110,24,144,0,0,0,0,0,0,0,0,-32297,0,0,0,4211,0,19196,0
19104,-72,-8244,516,-50,16,13,12342,2,-2,4,0,36998,116,24,144,0,0,0,0,0,0,0,0,-32297,0,0,0,4211,0,19206,0
19114,-50,-8236,542,-48,11,12,12343,0,3,4,0,37002,113,24,144,0,0,0,0,0,0,0,0,-32297,0,0,0,4212,0,19216,0
19124,-70,-8230,524,-50,12,9,12342,10,6,5,0,36998,113,24,144,0,0,0,0,0,0,0,0,-32297,0,0,0,4212,0,19226,0
19134,-86,-8236,524,-51,19,8,12344,5,-4,4,0,36995,112,24,144,0,0,0,0,0,0,0,0,-32296,0,0,0,4212,0,19236,0
19144,-54,-8238,534,-44,19,5,12342,-2,0,4,0,36991,115,24,144,0,0,0,0,0,0,0,0,-32297,0,0,0,4212,0,19246,0
19154,-32,-8230,558,-50,16,3,12342,-11,-3,6,0,36990,109,24,144,0,0,0,0,0,0,0,0,-32297,0,0,0,4211,0,19256,0
19164,-66,-8258,510,-49,18,2,12344,1,-4,3,0,36991,103,24,144,0,0,0,0,0,0,0,0,-32297,0,0,0,4212,0,19266,0
19174,-50,-8232,548,-47,15,3,12342,-5,-6,4,0,36992,106,24,144,0,0,0,0,0,0,0,0,-32296,0,0,0,4211,0,19276,0
19184,-68,-8252,528,-48,17,8,12343,-8,-1,4,0,36987,115,24,144,0,0,0,0,0,0,0,0,-32297,0,0,0,4212,0,19286,0
19194,-52,-8236,518,-56,12,3,12342,1,-1,2,0,36993,104,24,144,0,0,0,0,0,0,0,0,-32297,0,0,0,4211,0,19296,0
19204,-44,-8208,526,-47,14,11,12342,6,-3,4,0,36996,101,24,144,0,0,0,0,0,0,0,0,-32297,0,0,0,4211,0,19306,0
19214,-58,-8234,508,-50,22,3,12344,10,-3,5,0,37000,99,24,144,0,0,0,0,0,0,0,0,-32297,0,0,0,4211,0,19316,0
19224,-70,-8258,546,-46,15,6,12342,3,-2,5,0,36999,106,24,144,0,0,0,0,0,0,0,0,-32297,0,0,0,4211,0,19326,0
19234,-48,-8238,552,-49,16,14,12344,3,-4,5,0,36987,108,24,144,0,0,0,0,0,0,0,0,-32297,0,0,0,4212,0,19336,0
19244,-60,-8236,548,-56,16,6,12340,-11,2,3,0,36987,103,24,144,0,0,0,0,0,0,0,0,-32297,0,0,0,4212,0,19346,0
19254,-58,-8248,556,-52,16,9,12342,-6,0,5,0,36989,102,24,144,0,0,0,0,0,0,0,0,-32297,0,0,0,4212,0,19356,0
19264,-52,-8248,532,-55,18,4,12343,-3,0,3,0,36989,106,24,144,0,0,0,0,0,0,0,0,-32297,0,0,0,4210,0,19366,0
19274,-28,-8242,536,-53,13,8,12343,8,2,4,0,36986,105,24,144,0,0,0,0,0,0,0,0,-32297,0,0,0,4212,0,19376,0
19284,-24,-8250,518,-49,15,11,12341,-12,1,6,0,36985,106,24,144,0,0,0,0,0,0,0,0,-32297,0,0,0,4212,0,19386,0
19294,-38,-8228,492,-48,11,9,12343,7,3,3,0,36989,108,24,144,0,0,0,0,0,0,0,0,-32297,0,0,0,4212,0,19396,0
19304,-92,-8220,514,-50,18,3,12342,0,-8,6,0,36991,103,24,144,0,0,0,0,0,0,0,0,-32297,0,0,0,4212,0,19406,0
19314,-54,-8232,526,-51,11,7,12344,5,0,4,0,36991,104,24,144,0,0,0,0,0,0,0,0,-32296,0,0,0,4210,0,19416,0
19324,-56,-8246,536,-47,16,1,12343,6,1,4,0,36992,102,24,144,0,0,0,0,0,0,0,0,-32297,0,0,0,4210,0,19426,0
19334,-76,-8242,526,-49,12,7,12342,-5,0,4,0,36989,104,24,144,0,0,0,0,0,0,0,0,-32297,0,0,0,4211,0,19436,0
19344,-58,-8246,532,-52,14,5,12342,-1,2,4,0,36987,103,24,144,0,0,0,0,0,0,0,0,-32297,0,0,0,4211,0,19446,0
19354,-66,-8248,528,-51,11,2,12344,6,0,3,0,36985,107,24,144,0,0,0,0,0,0,0,0,-32297,0,0,0,4210,0,19456,0
19364,-62,-8256,546,-51,10,2,12343,5,3,3,0,36985,117,24,144,0,0,0,0,0,0,0,0,-32297,0,0,0,4211,0,19466,0
19374,-64,-8224,570,-57,16,3,12343,5,2,5,0,36986,125,24,144,0,0,0,0,0,0,0,0,-32297,0,0,0,4211,0,19476,0
19384,-36,-8232,532,-48,15,4,12341,0,0,5,0,36984,119,24,144,0,0,0,0,0,0,0,0,-32297,0,0,0,4211,0,19486,0
19394,-54,-8238,508,-48,19,4,12342,0,-3,4,0,36984,106,24,144,0,0,0,0,0,0,0,0,-32297,0,0,0,4211,0,19496,0
19404,-70,-8248,538,-50,15,6,12342,2,3,5,0,36983,97,24,144,0,0,0,0,0,0,0,0,-32297,0,0,0,4211,0,19506,0
19414,-86,-8248,536,-52,11,8,12342,-3,2,4,0,36987,86,24,144,0,0,0,0,0,0,0,0,-32296,0,0,0,4210,0,19516,0
19424,-48,-8244,502,-52,14,6,12343,-1,-6,2,0,36986,82,24,144,0,0,0,0,0,0,0,0,-32296,0,0,0,4210,0,19527,0
19434,-54,-8230,550,-48,15,7,12343,-1,-2,2,0,36986,87,24,144,0,0,0,0,0,0,0,0,-32297,0,0,0,4211,0,19537,0
19444,-32,-8236,554,-47,12,6,12342,-5,-1,3,0,36984,105,24,144,0,0,0,0,0,0,0,0,-32297,0,0,0,4212,0,19547,0
19454,-58,-8240,546,-52,14,7,12343,0,-2,4,0,36983,103,24,144,0,0,0,0,0,0,0,0,-32297,0,0,0,4210,0,19557,0
19464,-60,-8256,558,-53,16,10,12342,1,0,4,0,36984,107,24,144,0,0,0,0,0,0,0,0,-32297,0,0,0,4211,0,19567,0
19474,-72,-8234,548,-57,9,5,12343,1,4,3,0,36984,107,24,144,0,0,0,0,0,0,0,0,-32297,0,0,0,4211,0,19577,0
19484,-68,-8254,496,-53,9,10,12343,0,-1,5,0,36983,110,24,144,0,0,0,0,0,0,0,0,-32297,0,0,0,4211,0,19587,0
19494,-58,-8260,528,-52,17,8,12342,-4,1,3,0,36984,111,24,144,0,0,0,0,0,0,0,0,-32297,0,0,0,4211,0,19597,0
19504,-66,-8224,514,-58,15,10,12342,-5,2,3,0,36985,100,24,144,0,0,0,0,0,0,0,0,-32297,0,0,0,4211,0,19607,0
19514,-58,-8250,518,-53,10,11,12343,1,0,5,0,36993,106,24,144,0,0,0,0,0,0,0,0,-32297,0,0,0,4211,0,19617,0
19524,-58,-8222,530,-52,12,11,12342,6,1,4,0,36996,109,24,144,0,0,0,0,0,0,0,0,-32297,0,0,0,4211,0,19627,0
19534,-26,-8232,538,-50,15,5,12342,-1,0,4,0,36995,109,24,144,0,0,0,0,0,0,0,0,-32297,0,0,0,4211,0,19637,0
19544,-62,-8226,518,-53,13,10,12342,0,-1,2,0,36993,112,24,144,0,0,0,0,0,0,0,0,-32296,0,0,0,4211,0,19647,0
19554,-46,-8232,550,-57,13,11,12341,-12,-7,4,0,36984,107,24,144,0,0,0,0,0,0,0,0,-32297,0,0,0,4212,0,19657,0
19564,-80,-8236,550,-57,16,7,12342,-3,-2,4,0,36985,102,24,144,0,0,0,0,0,0,0,0,-32297,0,0,0,4211,0,19667,0
19574,-62,-8246,534,-51,14,8,12344,11,2,5,0,36985,95,24,144,0,0,0,0,0,0,0,0,-32297,0,0,0,4211,0,19677,0
19584,-80,-8244,520,-58,18,9,12344,5,0,4,0,36986,102,24,144,0,0,0,0,0,0,0,0,-32297,0,0,0,4211,0,19687,0
19594,-74,-8220,516,-57,15,5,12344,11,3,4,0,36987,107,24,144,0,0,0,0,0,0,0,0,-32297,0,0,0,4212,0,19697,0
19604,-70,-8232,510,-57,21,8,12342,-2,4,4,0,36984,102,24,144,0,0,0,0,0,0,0,0,-32297,0,0,0,4212,0,19707,0
19614,-78,-8266,526,-49,14,9,12343,0,-1,4,0,36985,97,24,144,0,0,0,0,0,0,0,0,-32297,0,0,0,4212,0,19717,0
19624,-70,-8240,520,-56,14,2,12342,-1,0,1,0,36991,107,24,144,0,0,0,0,0,0,0,0,-32297,0,0,0,4212,0,19727,0
19634,-72,-8224,544,-53,13,5,12343,10,-1,3,0,36994,110,24,144,0,0,0,0,0,0,0,0,-32297,0,0,0,4212,0,19737,0
19644,-58,-8270,538,-52,15,7,12342,-3,3,6,0,36990,111,24,144,0,0,0,0,0,0,0,0,-32296,0,0,0,4212,0,19747,0
19654,-46,-8236,520,-53,12,7,12342,-1,4,4,0,36991,104,24,144,0,0,0,0,0,0,0,0,-32297,0,0,0,4211,0,19757,0
19664,-16,-8228,512,-54,15,5,12342,3,-1,5,0,36988,113,24,144,0,0,0,0,0,0,0,0,-32296,0,0,0,4211,0,19767,0
19674,-30,-8254,506,-53,8,10,12342,0,1,3,0,36992,116,24,144,0,0,0,0,0,0,0,0,-32297,0,0,0,4212,0,19777,0
19684,-68,-8218,490,-56,18,6,12342,-4,-1,5,0,36990,116,24,144,0,0,0,0,0,0,0,0,-32296,0,0,0,4211,0,19787,0
19694,-60,-8252,512,-57,16,6,12343,-8,0,5,0,36987,107,24,144,0,0,0,0,0,0,0,0,-32297,0,0,0,4212,0,19797,0
19704,-70,-8226,516,-45,15,6,12343,6,-2,2,0,36991,103,24,144,0,0,0,0,0,0,0,0,-32297,0,0,0,4212,0,19807,0
19714,-66,-8236,532,-52,19,7,12343,5,2,3,0,37006,106,24,144,0,0,0,0,0,0,0,0,-32296,0,0,0,4211,0,19817,0
19724,-36,-8236,522,-51,13,12,12343,0,4,2,0,37006,102,24,144,0,0,0,0,0,0,0,0,-32297,0,0,0,4212,0,19827,0
19734,-90,-8270,546,-51,16,7,12342,-3,-1,1,0,37010,99,24,144,0,0,0,0,0,0,0,0,-32296,0,0,0,4212,0,19837,0
19744,-66,-8280,536,-53,13,6,12343,5,-3,3,0,36998,92,24,144,0,0,0,0,0,0,0,0,-32297,0,0,0,4211,0,19847,0
19754,-66,-8224,538,-54,15,5,12344,7,1,3,0,36997,95,24,144,0,0,0,0,0,0,0,0,-32297,0,0,0,4212,0,19857,0
19764,-58,-8246,518,-55,13,12,12343,2,5,5,0,36996,107,24,144,0,0,0,0,0,0,0,0,-32297,0,0,0,4212,0,19867,0
19774,-64,-8270,518,-52,14,9,12342,-2,-1,3,0,36991,113,24,144,0,0,0,0,0,0,0,0,-32297,0,0,0,4212,0,19877,0
19784,-70,-8238,508,-51,13,9,12342,0,-8,3,0,36991,114,24,144,0,0,0,0,0,0,0,0,-32297,0,0,0,4211,0,19887,0
19794,-68,-8272,498,-45,11,6,12344,3,-6,5,0,36992,113,24,144,0,0,0,0,0,0,0,0,-32297,0,0,0,4211,0,19897,0
19804,-96,-8242,514,-43,14,3,12341,-13,-6,2,0,36994,119,24,144,0,0,0,0,0,0,0,0,-32297,0,0,0,4211,0,19907,0
19814,-98,-8222,546,-48,16,1,12342,-3,3,3,0,36994,120,24,144,0,0,0,0,0,0,0,0,-32296,0,0,0,4210,0,19917,0
19824,-40,-8262,526,-49,16,3,12343,2,1,3,0,36991,121,24,144,0,0,0,0,0,0,0,0,-32297,0,0,0,4211,0,19927,0
19834,-84,-8238,552,-50,15,0,12342,0,1,3,0,36989,110,24,144,0,0,0,0,0,0,0,0,-32297,0,0,0,4211,0,19937,0
19844,-66,-8218,520,-52,11,7,12342,3,3,6,0,36996,102,24,144,0,0,0,0,0,0,0,0,-32297,0,0,0,4211,0,19947,0
19854,-58,-8238,528,-54,11,5,12343,5,2,4,0,36998,110,24,144,0,0,0,0,0,0,0,0,-32297,0,0,0,4211,0,19957,0
19864,-80,-8234,492,-53,15,5,12342,1,-4,4,0,36998,99,24,144,0,0,0,0,0,0,0,0,-32297,0,0,0,4211,0,19967,0
19874,-70,-8206,486,-50,13,4,12342,0,-5,4,0,36993,107,24,144,0,0,0,0,0,0,0,0,-32296,0,0,0,4211,0,19977,0
19884,-72,-8238,504,-45,13,3,12341,-2,4,5,0,36997,106,24,144,0,0,0,0,0,0,0,0,-32297,0,0,0,4210,0,19987,0
19894,-88,-8226,498,-45,13,1,12342,0,5,4,0,36997,105,24,144,0,0,0,0,0,0,0,0,-32297,0,0,0,4211,0,19997,0
19904,-82,-8254,522,-39,15,-9,12342,-11,-3,3,0,36996,99,24,144,0,0,0,0,0,0,0,0,-32297,0,0,0,4211,0,20007,0
19914,-60,-8238,540,-45,12,-7,12342,1,-3,5,0,36995,98,24,144,0,0,0,0,0,0,0,0,-32297,0,0,0,4211,0,20017,0
19924,-48,-8216,556,-49,19,0,12343,7,-1,5,0,36998,107,24,144,0,0,0,0,0,0,0,0,-32297,0,0,0,4211,0,20027,0
19934,-90,-8236,550,-50,8,0,12341,-2,6,3,0,37002,115,24,144,0,0,0,0,0,0,0,0,-32297,0,0,0,4210,0,20037,0
19944,-34,-8252,542,-55,20,-1,12343,7,2,6,0,37005,109,24,144,0,0,0,0,0,0,0,0,-32297,0,0,0,4210,0,20047,0
19954,-54,-8244,522,-56,12,0,12343,-2,1,2,0,37005,110,24,144,0,0,0,0,0,0,0,0,-32296,0,0,0,4210,0,20057,0
19964,-28,-8240,538,-52,15,-1,12342,-14,0,3,0,37004,110,24,144,0,0,0,0,0,0,0,0,-32296,0,0,0,4210,0,20067,0
19974,-52,-8216,498,-51,14,-1,12341,-8,5,3,0,37005,113,24,144,0,0,0,0,0,0,0,0,-32296,0,0,0,4210,0,20077,0
19984,-66,-8244,492,-54,18,3,12343,1,-1,4,0,36995,111,24,144,0,0,0,0,0,0,0,0,-32297,0,0,0,4210,0,20087,0
19994,-36,-8238,510,-51,15,3,12342,-5,1,6,0,36995,107,24,144,0,0,0,0,0,0,0,0,-32296,0,0,0,4210,0,20097,0
20004,-20,-8220,528,-50,14,5,12343,-1,-4,4,0,36996,106,24,144,0,0,0,0,0,0,0,0,-32297,0,0,0,4210,0,20107,0
20014,-38,-8260,528,-51,22,9,12343,3,2,4,0,36997,112,24,144,0,0,0,0,0,0,0,0,-32296,0,0,0,4210,0,20117,0
20024,-38,-8246,540,-55,14,13,12343,9,2,4,0,36994,114,24,144,0,0,0,0,0,0,0,0,-32297,0,0,0,4210,0,20128,0
20034,-28,-8222,508,-55,17,5,12344,4,2,3,0,36995,110,24,144,0,0,0,0,0,0,0,0,-32297,0,0,0,4210,0,20138,0
20044,-40,-8242,526,-51,18,17,12342,-8,-3,5,0,36995,113,24,144,0,0,0,0,0,0,0,0,-32296,0,0,0,4210,0,20148,0
20054,-50,-8200,536,-56,10,12,12344,0,5,7,0,37000,117,24,144,0,0,0,0,0,0,0,0,-32296,0,0,0,4210,0,20159,0
20064,-50,-8252,534,-51,14,15,12343,4,-1,4,0,36999,113,24,144,0,0,0,0,0,0,0,0,-32297,0,0,0,4210,0,20178,0
20074,-70,-8242,536,-54,12,12,12342,1,2,4,0,36999,112,24,144,0,0,0,0,0,0,0,0,-32297,0,0,0,4210,0,20199,0
20084,-70,-8218,532,-52,16,16,12341,-10,-2,3,0,36994,109,24,144,0,0,0,0,0,0,0,0,-32296,0,0,0,4210,0,20219,0
20094,-82,-8226,534,-49,14,10,12341,-1,5,6,0,36990,111,24,144,0,0,0,0,0,0,0,0,-32297,0,0,0,4209,0,20239,0
20104,-84,-8236,554,-51,21,10,12343,1,-3,3,0,36992,108,24,144,0,0,0,0,0,0,0,0,-32297,0,0,0,4211,0,20259,0
20114,-54,-8240,498,-49,17,8,12342,-6,2,4,0,36997,104,24,144,0,0,0,0,0,0,0,0,-32296,0,0,0,4210,0,20279,0
20124,-74,-8240,524,-50,14,3,12342,0,3,5,0,36999,99,24,144,0,0,0,0,0,0,0,0,-32296,0,0,0,4211,0,20300,0
20134,-56,-8220,518,-52,17,5,12343,0,-2,3,0,36997,102,24,144,0,0,0,0,0,0,0,0,-32297,0,0,0,4211,0,20322,0
20144,-58,-8246,536,-53,14,8,12344,0,-1,5,0,36993,108,24,144,0,0,0,0,0,0,0,0,-32296,0,0,0,4211,0,20342,0
20154,-52,-8222,548,-52,14,11,12343,5,2,2,0,36996,116,24,144,0,0,0,0,0,0,0,0,-32296,0,0,0,4211,0,20362,0
20164,-50,-8226,538,-56,12,7,12343,6,1,2,0,36997,114,24,144,0,0,0,0,0,0,0,0,-32297,0,0,0,4210,0,20382,0
20174,-66,-8250,534,-56,16,10,12344,3,2,4,0,36997,116,24,144,0,0,0,0,0,0,0,0,-32297,0,0,0,4210,0,20403,0
20184,-54,-8218,512,-50,20,10,12343,2,0,4,0,36996,112,24,144,0,0,0,0,0,0,0,0,-32297,0,0,0,4210,0,20424,0
20194,-50,-8222,504,-58,9,6,12342,-5,-5,4,0,36986,110,24,144,0,0,0,0,0,0,0,0,-32296,0,0,0,4210,0,20444,0
20204,-64,-8238,526,-52,16,15,12344,0,-1,5,0,36988,98,24,144,0,0,0,0,0,0,0,0,-32297,0,0,0,4210,0,20464,0
20214,-64,-8238,508,-50,15,11,12343,-5,2,3,0,36988,103,24,144,0,0,0,0,0,0,0,0,-32297,0,0,0,4211,0,20484,0
20224,-92,-8264,510,-54,15,8,12341,-8,-6,4,0,36990,99,24,144,0,0,0,0,0,0,0,0,-32297,0,0,0,4211,0,20504,0
20234,-42,-8244,536,-49,15,13,12343,10,2,3,0,36988,101,24,144,0,0,0,0,0,0,0,0,-32297,0,0,0,4210,0,20524,0
20244,-38,-8208,534,-54,17,13,12343,16,5,2,0,36986,100,24,144,0,0,0,0,0,0,0,0,-32297,0,0,0,4210,0,20544,0
20254,-64,-8256,574,-53,21,13,12341,-1,1,3,0,36987,104,24,144,0,0,0,0,0,0,0,0,-32297,0,0,0,4211,0,20564,0
20264,-54,-8230,508,-56,15,15,12343,1,-1,7,0,36991,106,24,144,0,0,0,0,0,0,0,0,-32297,0,0,0,4211,0,20584,0
20274,-42,-8246,502,-55,12,19,12341,-3,2,4,0,36991,105,24,144,0,0,0,0,0,0,0,0,-32297,0,0,0,4211,0,20604,0
20284,-78,-8246,506,-54,10,16,12343,-7,-1,3,0,36989,109,24,144,0,0,0,0,0,0,0,0,-32296,0,0,0,4211,0,20624,0
20294,-72,-8240,496,-52,13,9,12342,0,0,3,0,36986,114,24,144,0,0,0,0,0,0,0,0,-32297,0,0,0,4211,0,20644,0
20304,-68,-8236,510,-49,17,10,12342,1,4,3,0,36988,118,24,144,0,0,0,0,0,0,0,0,-32297,0,0,0,4211,0,20664,0
20314,-74,-8240,516,-47,20,9,12343,8,0,4,0,36989,110,24,144,0,0,0,0,0,0,0,0,-32296,0,0,0,4211,0,20684,0
20324,-74,-8228,518,-46,15,3,12341,-14,2,6,0,36990,110,24,144,0,0,0,0,0,0,0,0,-32296,0,0,0,4212,0,20704,0
20334,-62,-8240,554,-46,16,6,12341,-9,-3,2,0,36987,113,24,144,0,0,0,0,0,0,0,0,-32296,0,0,0,4211,0,20724,0
20344,-36,-8218,530,-52,16,8,12343,2,-3,4,0,36985,114,24,144,0,0,0,0,0,0,0,0,-32297,0,0,0,4211,0,20744,0
20354,-58,-8258,534,-54,15,11,12341,-6,6,4,0,36986,113,24,144,0,0,0,0,0,0,0,0,-32296,0,0,0,4212,0,20764,0
20364,-56,-8232,538,-49,20,10,12344,4,-4,2,0,36988,107,24,144,0,0,0,0,0,0,0,0,-32297,0,0,0,4212,0,20785,0
20374,-42,-8224,514,-49,12,11,12344,13,0,5,0,36988,111,24,144,0,0,0,0,0,0,0,0,-32296,0,0,0,4212,0,20805,0
20384,-60,-8252,538,-50,13,11,12343,-3,-1,4,0,36987,108,24,144,0,0,0,0,0,0,0,0,-32297,0,0,0,4212,0,20825,0
20394,-60,-8228,494,-46,15,7,12342,0,-6,2,0,36984,108,24,144,0,0,0,0,0,0,0,0,-32296,0,0,0,4212,0,20845,0
20404,-78,-8254,526,-48,16,7,12341,-4,6,5,0,36987,100,24,144,0,0,0,0,0,0,0,0,-32296,0,0,0,4212,0,20865,0
20414,-70,-8258,548,-49,14,8,12343,9,1,4,0,36988,110,24,144,0,0,0,0,0,0,0,0,-32297,0,0,0,4212,0,20885,0
20424,-56,-8218,564,-54,15,9,12343,9,-1,5,0,36984,109,24,144,0,0,0,0,0,0,0,0,-32297,0,0,0,4212,0,20905,0
20434,-58,-8250,542,-54,15,7,12342,7,4,2,0,36981,120,24,144,0,0,0,0,0,0,0,0,-32297,0,0,0,4212,0,20925,0
20444,-82,-8248,538,-57,16,7,12343,1,-4,3,0,36981,111,24,144,0,0,0,0,0,0,0,0,-32297,0,0,0,4211,0,20945,0
20454,-64,-8230,532,-57,14,10,12343,-2,-4,5,0,36983,108,24,144,0,0,0,0,0,0,0,0,-32296,0,0,0,4211,0,20965,0
20464,-38,-8242,512,-58,17,7,12342,0,-5,3,0,36981,111,24,144,0,0,0,0,0,0,0,0,-32297,0,0,0,4210,0,20985,0
20474,-42,-8254,548,-54,18,15,12341,-4,-2,8,0,36983,109,24,144,0,0,0,0,0,0,0,0,-32297,0,0,0,4212,0,21005,0
20484,-42,-8234,496,-49,14,12,12342,-8,0,5,0,36984,106,24,144,0,0,0,0,0,0,0,0,-32297,0,0,0,4211,0,21025,0
20494,-50,-8234,528,-54,13,16,12342,17,1,4,0,36984,96,24,144,0,0,0,0,0,0,0,0,-32297,0,0,0,4212,0,21045,0
20504,-58,-8226,546,-52,13,10,12342,-2,6,3,0,36982,100,24,144,0,0,0,0,0,0,0,0,-32297,0,0,0,4212,0,21065,0
20514,-60,-8238,508,-51,14,18,12342,-3,6,3,0,36982,101,24,144,0,0,0,0,0,0,0,0,-32297,0,0,0,4212,0,21085,0
20524,-64,-8234,516,-53,16,12,12341,-3,5,3,0,36986,99,24,144,0,0,0,0,0,0,0,0,-32297,0,0,0,4212,0,21105,0
20534,-58,-8222,530,-54,17,12,12344,9,-2,3,0,36986,98,24,144,0,0,0,0,0,0,0,0,-32296,0,0,0,4212,0,21125,0
20544,-44,-8252,512,-61,17,9,12343,8,2,5,0,36987,102,24,144,0,0,0,0,0,0,0,0,-32297,0,0,0,4212,0,21145,0
20554,-86,-8234,528,-56,15,19,12342,3,1,3,0,36984,107,24,144,0,0,0,0,0,0,0,0,-32297,0,0,0,4212,0,21165,0
20564,-74,-8256,528,-58,13,13,12341,-2,2,3,0,36984,111,24,144,0,0,0,0,0,0,0,0,-32297,0,0,0,4212,0,21185,0
20574,-78,-8256,528,-52,16,12,12343,0,-2,4,0,36993,113,24,144,0,0,0,0,0,0,0,0,-32296,0,0,0,4212,0,21205,0
20584,-94,-8232,526,-52,17,9,12343,-1,-2,4,0,36994,116,24,144,0,0,0,0,0,0,0,0,-32296,0,0,0,4212,0,21225,0
20594,-94,-8236,528,-58,17,8,12343,1,-3,4,0,36994,123,24,144,0,0,0,0,0,0,0,0,-32296,0,0,0,4212,0,21245,0
20604,-82,-8240,512,-53,10,8,12343,4,3,3,0,36990,112,24,144,0,0,0,0,0,0,0,0,-32297,0,0,0,4213,0,21265,0
20614,-76,-8224,526,-58,14,3,12343,4,4,3,0,36984,108,24,144,0,0,0,0,0,0,0,0,-32297,0,0,0,4212,0,21285,0
20624,-84,-8228,520,-56,18,-1,12343,-5,3,4,0,36987,103,24,144,0,0,0,0,0,0,0,0,-32297,0,0,0,4213,0,21305,0
20634,-70,-8224,500,-52,11,1,12342,-3,1,3,408,36990,106,24,144,0,0,0,0,0,0,0,0,-32297,0,0,0,4213,0,21326,0
20644,-36,-8230,440,-60,31,-11,12443,315,169,858,1056,36985,103,24,144,0,0,0,0,0,0,0,0,-32296,0,0,0,4211,0,21345,0
20654,-140,-8228,502,-53,36,-11,12699,674,498,948,1992,36978,101,24,144,0,0,0,0,0,0,0,0,-32297,0,0,0,4212,0,21365,0
20664,48,-8254,518,-60,27,-15,13109,993,591,1008,2712,36968,112,24,144,0,0,0,0,0,0,0,0,-32296,0,0,0,4211,0,21385,0
20674,94,-8272,564,-61,26,-2,13660,1303,563,1026,3440,36957,133,24,144,0,0,0,0,0,0,0,0,-32296,0,0,0,4211,0,21405,0
20684,-160,-8242,480,-65,29,5,14344,1591,523,985,4200,36949,177,24,144,0,0,0,0,0,0,0,0,-32297,0,0,0,4211,0,21425,0
20694,-54,-8226,448,-63,29,1,15069,1844,502,1008,4840,36937,202,24,144,0,0,0,0,0,0,0,0,-32297,0,0,0,4211,0,21445,0
20704,-114,-8246,442,-76,5,2,16009,2155,517,1040,5408,36924,222,24,144,0,0,0,0,0,0,0,0,-32297,0,0,0,4211,0,21466,0
20714,-38,-8272,502,-73,-3,2,17053,2345,461,1004,5824,36909,226,24,144,0,0,0,0,0,0,0,0,-32297,0,0,0,4211,0,21485,0
20724,-98,-8214,440,-64,-21,9,18144,2427,274,937,6216,36901,238,24,144,0,0,0,0,0,0,0,0,-32296,0,0,0,4211,0,21505,0
20734,-34,-8230,322,-44,14,8,19288,2583,188,967,6736,36891,264,24,144,0,0,0,0,0,0,0,0,-32296,0,0,0,4211,0,21525,0
20744,-130,-8240,582,-67,7,3,20565,2913,387,1041,7408,36880,288,24,144,0,0,0,0,0,0,0,0,-32297,0,0,0,4210,0,21545,0
20754,-92,-8248,452,-26,15,0,21977,3159,522,1005,7992,36869,305,24,144,0,0,0,0,0,0,0,0,-32296,0,0,0,4211,0,21565,0
20764,220,-8150,656,-60,4,0,23487,3429,432,1004,8640,36857,326,24,144,0,0,0,0,0,0,0,0,-32296,0,0,0,4211,0,21585,0
20774,-56,-8190,562,-30,9,-2,25171,3806,550,1069,9240,36841,339,24,144,0,0,0,0,0,0,0,0,-32296,0,0,0,4210,0,21605,0
20784,-296,-8144,772,-46,6,64,26901,3797,402,887,9664,36834,349,24,144,0,0,0,0,0,0,0,0,-32297,0,0,0,4211,0,21625,0
20794,17562,-3938,2784,-114,-1369,4146,28580,3477,-73,1302,7576,36817,379,24,144,0,0,0,0,0,0,0,0,-32297,0,0,0,4276,13,21645,0
20804,9470,-8488,2102,-282,-2158,2554,29522,1309,-1791,1173,1304,36823,362,24,144,0,0,0,0,0,0,0,0,-32296,0,0,0,4364,6,21665,0
20814,-10758,-9672,-1850,-303,-941,491,29340,-997,-3447,560,-1384,36855,286,24,144,0,0,0,0,0,0,0,0,-32296,0,0,0,4365,-2,21685,0
20824,-17212,-7132,-3802,119,2048,-1842,28656,-1571,-2889,738,-1608,36909,161,24,144,0,0,0,0,0,0,0,0,-32296,0,0,0,4317,-5,21705,0
20834,-4614,-7674,-720,237,1985,-2134,28111,-994,-656,1009,-248,36958,57,24,144,0,0,0,0,0,0,0,0,-32297,0,0,0,4271,-3,21725,0
20844,8814,-6246,476,556,-274,-995,27943,-125,1027,1333,296,36976,34,24,144,0,0,0,0,0,0,0,0,-32296,0,0,0,4243,-1,21745,0
20854,12372,-8572,2670,173,-486,-67,27966,59,1131,1004,320,36976,54,24,144,0,0,0,0,0,0,0,0,-32296,0,0,0,4243,0,21765,0
20864,1716,-8190,3318,-215,-1183,845,27980,38,316,979,408,36972,85,24,144,0,0,0,0,0,0,0,0,-32296,0,0,0,4246,0,21785,0
20874,-892,-8006,4074,-417,-98,817,28066,255,107,928,904,36966,99,24,144,0,0,0,0,0,0,0,0,-32296,0,0,0,4257,1,21805,0
20884,-6686,-7812,-1578,-274,-7,88,28233,379,312,1001,1072,36967,99,24,144,0,0,0,0,0,0,0,0,-32297,0,0,0,4269,1,21825,0
20894,46,-8510,-760,-51,276,-182,28349,160,71,1134,296,36970,104,24,144,0,0,0,0,0,0,0,0,-32297,0,0,0,4279,0,21845,0
20904,2604,-8224,-66,41,89,-162,28285,-228,-467,1011,72,36973,83,24,144,0,0,0,0,0,0,0,0,-32297,0,0,0,4275,0,21865,0
20914,466,-8362,674,32,-66,0,28183,-197,-435,990,152,36978,76,24,144,0,0,0,0,0,0,0,0,-32297,0,0,0,4267,0,21885,0
20924,-1598,-8162,752,-49,-60,124,28170,41,120,965,384,36985,73,24,144,0,0,0,0,0,0,0,0,-32297,0,0,0,4265,0,21906,0
20934,-484,-8618,1186,-88,8,95,28217,99,299,1004,376,36987,93,24,144,0,0,0,0,0,0,0,0,-32297,0,0,0,4269,0,21926,0
20944,-2,-8270,750,-115,38,-33,28225,-9,33,1024,248,36984,110,24,144,0,0,0,0,0,0,0,0,-32297,0,0,0,4269,0,21945,0
20954,-560,-8284,210,-124,57,-40,28213,-17,-115,998,272,36982,114,24,144,0,0,0,0,0,0,0,0,-32297,0,0,0,4268,0,21965,0
20964,-140,-8226,-96,-68,12,-28,28215,7,-11,999,280,36984,113,24,144,0,0,0,0,0,0,0,0,-32297,0,0,0,4269,0,21985,0
20974,-206,-8164,-268,-5,-12,-42,28212,-8,21,999,288,36985,109,24,144,0,0,0,0,0,0,0,0,-32297,0,0,0,4269,0,22006,0
20984,-368,-8228,406,48,-18,-52,28212,-1,-3,1000,280,36987,109,24,144,0,0,0,0,0,0,0,0,-32297,0,0,0,4268,0,22026,0
20994,-374,-8274,1140,32,-10,-78,28209,-10,-2,998,280,36999,110,24,144,0,0,0,0,0,0,0,0,-32297,0,0,0,4267,0,22046,0
21004,0,-8196,1444,-77,24,-84,28204,-8,-8,1003,264,37012,114,24,144,0,0,0,0,0,0,0,0,-32297,0,0,0,4268,0,22066,0
21014,206,-8266,1178,-140,15,-68,28199,-7,-1,990,264,37016,105,24,144,0,0,0,0,0,0,0,0,-32297,0,0,0,4266,0,22086,0
21024,122,-8312,346,-164,5,-12,28195,2,7,997,288,37001,97,24,144,0,0,0,0,0,0,0,0,-32297,0,0,0,4267,0,22106,0
21034,-94,-8204,-194,-128,6,2,28195,3,10,1001,280,36989,90,24,144,0,0,0,0,0,0,0,0,-32298,0,0,0,4266,0,22126,0
21044,-134,-8152,-330,-29,22,-2,28195,-3,3,997,280,36983,88,24,144,0,0,0,0,0,0,0,0,-32296,0,0,0,4267,0,22146,0
21054,18,-8266,74,15,23,13,28196,6,-2,1000,272,36982,91,24,144,0,0,0,0,0,0,0,0,-32297,0,0,0,4267,0,22166,0
21064,68,-8200,806,18,9,30,28195,-2,1,1000,272,36981,90,24,144,0,0,0,0,0,0,0,0,-32296,0,0,0,4267,0,22186,0
21074,-10,-8208,1024,-9,13,35,28196,6,-1,997,296,36982,99,24,144,0,0,0,0,0,0,0,0,-32297,0,0,0,4267,0,22206,0
21084,-288,-8266,886,-58,15,54,28196,-7,-2,1002,280,36984,98,24,144,0,0,0,0,0,0,0,0,-32296,0,0,0,4267,0,22226,0
21094,-374,-8306,600,-82,28,38,28196,-1,8,1002,288,36986,98,24,144,0,0,0,0,0,0,0,0,-32297,0,0,0,4267,0,22246,0
21104,-266,-8192,232,-52,38,3,28199,7,-1,1001,272,36986,93,24,144,0,0,0,0,0,0,0,0,-32297,0,0,0,4267,0,22266,0
21114,-258,-8260,176,-27,26,10,28196,-1,2,998,272,36988,99,24,144,0,0,0,0,0,0,0,0,-32297,0,0,0,4266,0,22286,0
21124,-186,-8226,462,-6,11,12,28198,2,-1,1000,288,36987,100,24,144,0,0,0,0,0,0,0,0,-32297,0,0,0,4267,0,22306,0
21134,-166,-8164,700,-12,9,2,28198,6,-1,1003,288,36986,107,24,144,0,0,0,0,0,0,0,0,-32296,0,0,0,4267,0,22326,0
21144,-104,-8270,780,-54,11,4,28197,0,2,1001,264,36981,92,24,144,0,0,0,0,0,0,0,0,-32296,0,0,0,4267,0,22346,0
21154,-198,-8272,746,-63,10,15,28199,2,-3,997,296,36979,91,24,144,0,0,0,0,0,0,0,0,-32297,0,0,0,4267,0,22367,0
21164,-190,-8198,486,-78,14,-1,28197,0,1,1000,264,36979,95,24,144,0,0,0,0,0,0,0,0,-32297,0,0,0,4267,0,22386,0
21174,-136,-8270,328,-60,14,0,28197,-1,0,999,288,36981,98,24,144,0,0,0,0,0,0,0,0,-32297,0,0,0,4266,0,22406,0
21184,-100,-8246,354,-47,11,10,28197,-7,0,1001,288,36981,93,24,144,0,0,0,0,0,0,0,0,-32297,0,0,0,4267,0,22426,0
21194,-160,-8202,422,-35,22,4,28197,-3,-1,998,280,36983,82,24,144,0,0,0,0,0,0,0,0,-32297,0,0,0,4266,0,22446,0
21204,-70,-8216,572,-22,20,6,28197,1,-1,995,288,36985,86,24,144,0,0,0,0,0,0,0,0,-32297,0,0,0,4267,0,22466,0
21214,-162,-8250,688,-36,17,22,28198,3,-5,1000,272,36988,93,24,144,0,0,0,0,0,0,0,0,-32297,0,0,0,4267,0,22486,0
21224,-130,-8216,638,-45,13,23,28197,4,3,1000,288,36990,93,24,144,0,0,0,0,0,0,0,0,-32297,0,0,0,4267,0,22506,0
21234,-188,-8194,508,-56,17,21,28197,-7,-3,995,280,36981,91,24,144,0,0,0,0,0,0,0,0,-32297,0,0,0,4267,0,22526,0
21244,-206,-8260,514,-47,10,29,28199,2,-3,1002,288,36978,96,24,144,0,0,0,0,0,0,0,0,-32297,0,0,0,4267,0,22546,0
21254,-216,-8208,508,-46,18,19,28199,2,0,995,288,36977,96,24,144,0,0,0,0,0,0,0,0,-32296,0,0,0,4267,0,22567,0
21264,-198,-8246,502,-41,15,8,28199,0,-2,1001,272,36980,97,24,144,0,0,0,0,0,0,0,0,-32297,0,0,0,4266,0,22586,0
21274,-216,-8276,556,-47,6,7,28199,3,0,996,280,36981,97,24,144,0,0,0,0,0,0,0,0,-32297,0,0,0,4267,0,22607,0
21284,-164,-8236,560,-51,12,6,28199,3,-4,1005,264,36977,97,24,144,0,0,0,0,0,0,0,0,-32297,0,0,0,4267,0,22627,0
21294,-190,-8246,472,-47,10,-4,28200,11,6,1002,272,36976,99,24,144,0,0,0,0,0,0,0,0,-32297,0,0,0,4268,0,22647,0
21304,-166,-8244,476,-56,19,-1,28198,-6,1,996,280,36980,109,24,144,0,0,0,0,0,0,0,0,-32297,0,0,0,4267,0,22667,0
21314,-180,-8238,520,-45,18,5,28199,3,1,1000,272,36986,106,24,144,0,0,0,0,0,0,0,0,-32297,0,0,0,4267,0,22687,0
21324,-82,-8220,512,-47,19,5,28199,0,-2,1003,288,36984,103,24,144,0,0,0,0,0,0,0,0,-32297,0,0,0,4267,0,22707,0
21334,-112,-8236,550,-50,14,1,28199,-1,-1,997,272,36982,99,24,144,0,0,0,0,0,0,0,0,-32297,0,0,0,4267,0,22727,0
21344,-142,-8238,642,-53,12,6,28199,5,0,998,280,36979,94,24,144,0,0,0,0,0,0,0,0,-32297,0,0,0,4267,0,22747,0
21354,-144,-8216,592,-59,15,7,28199,-5,1,995,264,36978,92,24,144,0,0,0,0,0,0,0,0,-32297,0,0,0,4267,0,22767,0
21364,-150,-8232,522,-51,16,5,28198,-3,0,997,272,36979,90,24,144,0,0,0,0,0,0,0,0,-32297,0,0,0,4267,0,22787,0
21374,-168,-8266,518,-57,15,6,28199,0,2,993,272,36977,101,24,144,0,0,0,0,0,0,0,0,-32297,0,0,0,4267,0,22807,0
21384,-158,-8214,522,-46,12,4,28199,0,-4,999,280,36977,106,24,144,0,0,0,0,0,0,0,0,-32297,0,0,0,4267,0,22827,0
21394,-192,-8262,514,-53,15,-2,28199,2,3,994,280,36975,104,24,144,0,0,0,0,0,0,0,0,-32297,0,0,0,4267,0,22847,0
21404,-150,-8252,538,-50,11,4,28199,4,4,994,256,36976,99,24,144,0,0,0,0,0,0,0,0,-32297,0,0,0,4267,0,22867,0
21414,-224,-8206,546,-40,10,5,28200,8,4,1000,272,36981,100,24,144,0,0,0,0,0,0,0,0,-32297,0,0,0,4267,0,22887,0
21424,-206,-8284,504,-52,17,0,28198,-1,1,998,280,36981,104,24,144,0,0,0,0,0,0,0,0,-32297,0,0,0,4267,0,22907,0
21434,-170,-8240,518,-45,10,6,28199,5,4,996,280,36980,102,24,144,0,0,0,0,0,0,0,0,-32297,0,0,0,4265,0,22927,0
21444,-172,-8208,532,-58,12,8,28199,1,-5,1000,272,36974,104,24,144,0,0,0,0,0,0,0,0,-32297,0,0,0,4266,0,22947,0
21454,-144,-8240,534,-51,11,-1,28198,-4,0,996,296,36973,99,24,144,0,0,0,0,0,0,0,0,-32297,0,0,0,4266,0,22967,0
21464,-148,-8248,526,-58,19,11,28199,2,0,998,272,36974,105,24,144,0,0,0,0,0,0,0,0,-32297,0,0,0,4267,0,22987,0
21474,-176,-8240,538,-62,15,10,28199,0,0,995,264,36974,96,24,144,0,0,0,0,0,0,0,0,-32297,0,0,0,4267,0,23008,0
21484,-184,-8260,532,-61,12,7,28199,2,-1,998,280,36975,92,24,144,0,0,0,0,0,0,0,0,-32297,0,0,0,4267,0,23028,0
21494,-150,-8242,530,-61,13,4,28198,-2,-2,1000,272,36975,94,24,144,0,0,0,0,0,0,0,0,-32297,0,0,0,4266,0,23048,0
21504,-204,-8228,516,-48,13,6,28198,-8,-5,995,280,36976,100,24,144,0,0,0,0,0,0,0,0,-32297,0,0,0,4267,0,23068,0
21514,-166,-8228,504,-54,15,3,28198,2,2,997,280,36985,93,24,144,0,0,0,0,0,0,0,0,-32296,0,0,0,4267,0,23088,0
21524,-146,-8226,522,-49,12,4,28199,4,-3,998,264,36987,96,24,144,0,0,0,0,0,0,0,0,-32297,0,0,0,4266,0,23108,0
21534,-142,-8228,546,-50,14,8,28200,4,-2,1000,264,36985,95,24,144,0,0,0,0,0,0,0,0,-32297,0,0,0,4267,0,23128,0
21544,-136,-8228,526,-50,13,3,28198,-2,-1,1005,296,36977,90,24,144,0,0,0,0,0,0,0,0,-32297,0,0,0,4266,0,23148,0
21554,-136,-8250,544,-47,12,0,28198,0,-1,1003,272,36978,89,24,144,0,0,0,0,0,0,0,0,-32296,0,0,0,4267,0,23168,0
21564,-134,-8254,530,-57,13,7,28197,-9,1,999,272,36978,89,24,144,0,0,0,0,0,0,0,0,-32297,0,0,0,4267,0,23188,0
21574,-146,-8230,544,-57,17,6,28198,-1,-3,1000,280,36976,93,24,144,0,0,0,0,0,0,0,0,-32297,0,0,0,4266,0,23208,0
21584,-126,-8230,520,-56,16,2,28198,5,2,1000,288,36976,98,24,144,0,0,0,0,0,0,0,0,-32297,0,0,0,4267,0,23228,0
21594,-124,-8250,536,-53,14,8,28198,0,-1,994,280,36977,107,24,144,0,0,0,0,0,0,0,0,-32297,0,0,0,4266,0,23248,0
21604,-166,-8236,524,-60,13,6,28198,-2,1,995,272,36980,107,24,144,0,0,0,0,0,0,0,0,-32297,0,0,0,4267,0,23268,0
21614,-222,-8228,542,-57,15,8,28199,5,-1,996,272,36981,108,24,144,0,0,0,0,0,0,0,0,-32296,0,0,0,4267,0,23288,0
21624,-118,-8234,510,-53,17,14,28198,-3,0,996,288,36980,116,24,144,0,0,0,0,0,0,0,0,-32297,0,0,0,4267,0,23308,0
21634,-128,-8238,518,-59,15,7,28198,-6,-3,998,280,36981,110,24,144,0,0,0,0,0,0,0,0,-32297,0,0,0,4267,0,23328,0
21644,-146,-8234,528,-53,11,11,28199,0,0,998,288,36980,102,24,144,0,0,0,0,0,0,0,0,-32297,0,0,0,4266,0,23348,0
21654,-140,-8240,534,-59,20,8,28199,4,6,995,272,36976,90,24,144,0,0,0,0,0,0,0,0,-32297,0,0,0,4266,0,23368,0
21664,-116,-8216,546,-51,13,7,28198,1,3,1000,272,36975,93,24,144,0,0,0,0,0,0,0,0,-32297,0,0,0,4266,0,23388,0
21674,-124,-8240,530,-48,12,8,28199,-1,0,999,280,36976,97,24,144,0,0,0,0,0,0,0,0,-32296,0,0,0,4267,0,23408,0
21684,-118,-8264,548,-43,15,5,28199,4,0,1005,288,36978,99,24,144,0,0,0,0,0,0,0,0,-32297,0,0,0,4265,0,23428,0
21694,-200,-8204,528,-48,10,18,28198,-6,-3,997,280,36978,96,24,144,0,0,0,0,0,0,0,0,-32297,0,0,0,4267,0,23448,0
21704,-144,-8252,510,-50,19,5,28199,-4,-1,997,288,36978,85,24,144,0,0,0,0,0,0,0,0,-32297,0,0,0,4267,0,23468,0
21714,-214,-8198,544,-44,11,11,28200,5,-2,1001,272,36984,96,24,144,0,0,0,0,0,0,0,0,-32297,0,0,0,4267,0,23488,0
21724,-160,-8234,532,-60,16,11,28198,0,3,995,264,36990,94,24,144,0,0,0,0,0,0,0,0,-32297,0,0,0,4267,0,23508,0
21734,-126,-8228,532,-53,14,4,28198,0,-4,1001,272,36988,96,24,144,0,0,0,0,0,0,0,0,-32297,0,0,0,4267,0,23528,0
21744,-148,-8232,530,-62,21,5,28199,0,-1,999,272,36986,94,24,144,0,0,0,0,0,0,0,0,-32297,0,0,0,4266,0,23548,0
21754,-134,-8218,504,-56,18,7,28198,-1,-1,997,288,36978,102,24,144,0,0,0,0,0,0,0,0,-32297,0,0,0,4267,0,23568,0
21764,-152,-8228,524,-58,10,7,28198,-7,2,1001,264,36980,102,24,144,0,0,0,0,0,0,0,0,-32297,0,0,0,4266,0,23588,0
21774,-156,-8252,510,-60,19,7,28199,3,-1,996,272,36983,107,24,144,0,0,0,0,0,0,0,0,-32297,0,0,0,4267,0,23608,0
21784,-116,-8232,530,-54,15,12,28200,6,3,998,288,36981,99,24,144,0,0,0,0,0,0,0,0,-32297,0,0,0,4267,0,23628,0
21794,-130,-8238,518,-53,14,10,28198,-1,-1,994,280,36979,101,24,144,0,0,0,0,0,0,0,0,-32297,0,0,0,4267,0,23648,0
21804,-140,-8224,522,-43,15,11,28199,-5,1,1000,280,36984,95,24,144,0,0,0,0,0,0,0,0,-32296,0,0,0,4267,0,23668,0
21814,-174,-8242,522,-51,16,15,28197,-5,0,998,264,36987,91,24,144,0,0,0,0,0,0,0,0,-32297,0,0,0,4267,0,23688,0
21824,-150,-8236,508,-44,12,8,28198,-2,-2,994,280,36991,93,24,144,0,0,0,0,0,0,0,0,-32296,0,0,0,4267,0,23708,0
21834,-132,-8208,500,-42,13,6,28198,0,3,995,272,36987,87,24,144,0,0,0,0,0,0,0,0,-32296,0,0,0,4267,0,23728,0
21844,-160,-8234,528,-46,16,11,28198,4,-1,998,280,36988,89,24,144,0,0,0,0,0,0,0,0,-32297,0,0,0,4267,0,23748,0
21854,-128,-8242,508,-42,15,8,28199,0,-7,994,288,36987,86,24,144,0,0,0,0,0,0,0,0,-32296,0,0,0,4265,0,23768,0
21864,-110,-8200,524,-52,12,4,28198,-7,2,997,264,36987,91,24,144,0,0,0,0,0,0,0,0,-32297,0,0,0,4267,0,23788,0
21874,-164,-8240,520,-47,12,8,28199,-1,0,998,272,36986,90,24,144,0,0,0,0,0,0,0,0,-32297,0,0,0,4266,0,23808,0
21884,-142,-8244,526,-59,19,12,28200,-3,-3,1004,272,36984,98,24,144,0,0,0,0,0,0,0,0,-32297,0,0,0,4266,0,23828,0
21894,-190,-8214,528,-55,12,8,28199,3,3,1002,280,36986,102,24,144,0,0,0,0,0,0,0,0,-32296,0,0,0,4267,0,23848,0
21904,-148,-8208,520,-56,18,9,28199,1,1,995,264,36987,104,24,144,0,0,0,0,0,0,0,0,-32297,0,0,0,4267,0,23868,0
21914,-164,-8242,548,-55,18,9,28199,0,-8,1000,272,36990,109,24,144,0,0,0,0,0,0,0,0,-32297,0,0,0,4267,0,23888,0
21924,-186,-8250,546,-52,18,10,28199,0,2,1002,280,36998,106,24,144,0,0,0,0,0,0,0,0,-32297,0,0,0,4267,0,23908,0
21934,-132,-8248,524,-55,15,9,28199,0,3,999,272,36999,99,24,144,0,0,0,0,0,0,0,0,-32297,0,0,0,4266,0,23928,0
21944,-114,-8238,538,-51,14,10,28198,1,2,1001,288,36997,101,24,144,0,0,0,0,0,0,0,0,-32297,0,0,0,4265,0,23948,0
21954,-148,-8216,538,-57,20,11,28199,2,0,997,296,36991,96,24,144,0,0,0,0,0,0,0,0,-32297,0,0,0,4267,0,23968,0
21964,-156,-8222,522,-42,16,7,28198,-7,-2,1000,280,36984,102,24,144,0,0,0,0,0,0,0,0,-32297,0,0,0,4267,0,23988,0
21974,-116,-8234,530,-38,15,7,28200,2,-1,998,280,36987,99,24,144,0,0,0,0,0,0,0,0,-32296,0,0,0,4267,0,24008,0
21984,-160,-8242,534,-46,17,8,28199,-2,0,1001,288,36985,99,24,144,0,0,0,0,0,0,0,0,-32296,0,0,0,4266,0,24028,0
21994,-114,-8202,546,-44,19,8,28200,-2,-3,997,272,36986,91,24,144,0,0,0,0,0,0,0,0,-32297,0,0,0,4266,0,24048,0
22004,-126,-8258,512,-44,12,9,28200,0,-1,999,280,36986,94,24,144,0,0,0,0,0,0,0,0,-32297,0,0,0,4267,0,24068,0
22014,-182,-8238,504,-43,14,11,28198,-12,-3,998,264,36986,98,24,144,0,0,0,0,0,0,0,0,-32297,0,0,0,4267,0,24088,0
22024,-144,-8234,538,-56,23,10,28201,2,5,999,288,36986,101,24,144,0,0,0,0,0,0,0,0,-32297,0,0,0,4266,0,24109,0
22034,-134,-8248,518,-52,18,13,28201,2,-2,1000,264,36992,104,24,144,0,0,0,0,0,0,0,0,-32298,0,0,0,4267,0,24129,0
22044,-148,-8238,550,-55,19,16,28199,-2,-2,996,296,36993,109,24,144,0,0,0,0,0,0,0,0,-32297,0,0,0,4266,0,24149,0
22054,-136,-8230,552,-55,25,9,28200,-3,-4,995,272,36992,103,24,144,0,0,0,0,0,0,0,0,-32297,0,0,0,4266,0,24169,0
22064,-214,-8248,536,-57,16,13,28200,3,-2,999,264,36986,95,24,144,0,0,0,0,0,0,0,0,-32296,0,0,0,4266,0,24188,0
22074,-162,-8230,528,-54,18,10,28199,-3,4,996,280,36986,89,24,144,0,0,0,0,0,0,0,0,-32296,0,0,0,4266,0,24209,0
22084,-210,-8222,520,-48,15,3,28201,0,-4,996,280,36984,100,24,144,0,0,0,0,0,0,0,0,-32297,0,0,0,4267,0,24229,0
22094,-214,-8246,544,-53,15,4,28199,-6,0,999,272,36982,97,24,144,0,0,0,0,0,0,0,0,-32297,0,0,0,4266,0,24249,0
22104,-128,-8224,524,-45,12,4,28199,-6,3,1000,272,36982,88,24,144,0,0,0,0,0,0,0,0,-32297,0,0,0,4267,0,24269,0
22114,-112,-8224,504,-46,17,7,28199,-5,-1,998,264,36984,83,24,144,0,0,0,0,0,0,0,0,-32297,0,0,0,4267,0,24289,0
22124,-128,-8230,504,-52,11,8,28200,-2,3,1005,256,36987,99,24,144,0,0,0,0,0,0,0,0,-32297,0,0,0,4267,0,24309,0
22134,-150,-8256,528,-39,11,8,28199,0,2,998,280,36986,104,24,144,0,0,0,0,0,0,0,0,-32297,0,0,0,4267,0,24329,0
22144,-134,-8212,512,-51,16,10,28200,-10,-2,998,280,36987,100,24,144,0,0,0,0,0,0,0,0,-32297,0,0,0,4267,0,24349,0
22154,-138,-8218,500,-45,13,8,28200,-2,-1,999,280,36984,96,24,144,0,0,0,0,0,0,0,0,-32297,0,0,0,4267,0,24369,0
22164,-64,-8232,504,-55,15,10,28200,1,-1,1002,264,36984,98,24,144,0,0,0,0,0,0,0,0,-32297,0,0,0,4266,0,24389,0
22174,-216,-8206,516,-49,18,10,28201,4,2,1000,272,36980,104,24,144,0,0,0,0,0,0,0,0,-32297,0,0,0,4266,0,24409,0
22184,-160,-8212,520,-49,17,14,28200,-7,1,998,264,36981,103,24,144,0,0,0,0,0,0,0,0,-32297,0,0,0,4267,0,24429,0
22194,-186,-8238,538,-50,17,7,28202,5,-3,998,256,36981,100,24,144,0,0,0,0,0,0,0,0,-32297,0,0,0,4267,0,24449,0
22204,-186,-8238,548,-49,12,11,28199,-5,-1,996,280,36980,97,24,144,0,0,0,0,0,0,0,0,-32296,0,0,0,4267,0,24469,0
22214,-136,-8220,532,-59,19,10,28200,3,0,1002,264,36980,99,24,144,0,0,0,0,0,0,0,0,-32297,0,0,0,4267,0,24489,0
22224,-196,-8252,524,-47,11,8,28199,-6,0,998,288,36980,100,24,144,0,0,0,0,0,0,0,0,-32297,0,0,0,4267,0,24509,0
22234,-140,-8242,524,-55,11,6,28200,0,0,997,280,36978,102,24,144,0,0,0,0,0,0,0,0,-32297,0,0,0,4267,0,24529,0
22244,-86,-8242,518,-41,14,2,28201,-4,-3,1005,264,36981,99,24,144,0,0,0,0,0,0,0,0,-32297,0,0,0,4267,0,24549,0
22254,-166,-8246,522,-47,14,4,28201,2,6,997,256,36980,103,24,144,0,0,0,0,0,0,0,0,-32297,0,0,0,4267,0,24569,0
22264,-148,-8232,536,-42,12,6,28200,-8,-3,993,272,36985,107,24,144,0,0,0,0,0,0,0,0,-32297,0,0,0,4267,0,24589,0
22274,-140,-8222,528,-38,14,4,28201,10,2,1000,256,36993,112,24,144,0,0,0,0,0,0,0,0,-32297,0,0,0,4267,0,24609,0
22284,-140,-8244,540,-51,11,7,28199,-1,-1,999,280,36992,105,24,144,0,0,0,0,0,0,0,0,-32297,0,0,0,4267,0,24629,0
22294,-120,-8232,522,-40,9,4,28200,0,-1,1003,272,36988,93,24,144,0,0,0,0,0,0,0,0,-32297,0,0,0,4267,0,24649,0
22304,-146,-8192,532,-54,13,5,28201,3,-1,997,272,36974,92,24,144,0,0,0,0,0,0,0,0,-32297,0,0,0,4267,0,24669,0
22314,-174,-8240,532,-45,18,1,28200,1,2,999,264,36977,96,24,144,0,0,0,0,0,0,0,0,-32297,0,0,0,4266,0,24689,0
22324,-158,-8242,566,-53,16,8,28200,-7,1,1002,264,36980,93,24,144,0,0,0,0,0,0,0,0,-32297,0,0,0,4267,0,24709,0
22334,-178,-8192,544,-59,17,8,28200,1,1,999,264,36981,97,24,144,0,0,0,0,0,0,0,0,-32297,0,0,0,4267,0,24729,0
22344,-130,-8222,530,-56,13,1,28202,9,-6,996,272,36979,105,24,144,0,0,0,0,0,0,0,0,-32297,0,0,0,4267,0,24749,0
22354,-188,-8256,514,-59,13,6,28202,4,-1,998,280,36983,105,24,144,0,0,0,0,0,0,0,0,-32297,0,0,0,4266,0,24769,0
22364,-178,-8204,516,-48,10,9,28200,2,-1,1002,264,36983,97,24,144,0,0,0,0,0,0,0,0,-32296,0,0,0,4267,0,24790,0
22374,-162,-8248,538,-60,16,3,28200,5,1,996,280,36984,94,24,144,0,0,0,0,0,0,0,0,-32297,0,0,0,4267,0,24810,0
22384,-108,-8246,528,-46,12,6,28201,1,-1,1001,264,36976,101,24,144,0,0,0,0,0,0,0,0,-32297,0,0,0,4267,0,24830,0
22394,-190,-8198,528,-49,10,4,28200,5,2,999,272,36975,109,24,144,0,0,0,0,0,0,0,0,-32297,0,0,0,4267,0,24850,0
22404,-212,-8256,540,-44,6,4,28200,0,-1,998,280,36975,109,24,144,0,0,0,0,0,0,0,0,-32297,0,0,0,4266,0,24870,0
22414,-116,-8220,560,-45,15,1,28200,0,-2,999,272,36976,104,24,144,0,0,0,0,0,0,0,0,-32297,0,0,0,4266,0,24890,0
22424,-156,-8256,528,-50,15,2,28201,3,5,1002,264,36974,100,24,144,0,0,0,0,0,0,0,0,-32297,0,0,0,4267,0,24910,0
22434,-124,-8222,530,-44,18,1,28200,-2,0,1001,264,36972,95,24,144,0,0,0,0,0,0,0,0,-32297,0,0,0,4267,0,24930,0
22444,-106,-8218,524,-55,21,8,28199,-5,2,999,272,36972,97,24,144,0,0,0,0,0,0,0,0,-32296,0,0,0,4267,0,24950,0
22454,-150,-8246,530,-54,16,8,28199,0,4,998,288,36973,101,24,144,0,0,0,0,0,0,0,0,-32297,0,0,0,4267,0,24970,0
22464,-108,-8268,532,-59,15,9,28200,3,-2,997,264,36978,96,24,144,0,0,0,0,0,0,0,0,-32296,0,0,0,4267,0,24990,0
22474,-170,-8228,528,-52,20,15,28200,0,-5,997,280,36975,98,24,144,0,0,0,0,0,0,0,0,-32297,0,0,0,4266,0,25010,0
22484,-200,-8226,516,-55,18,10,28201,8,-5,1007,272,36975,94,24,144,0,0,0,0,0,0,0,0,-32297,0,0,0,4267,0,25030,0
22494,-148,-8230,522,-59,14,11,28200,-3,-1,996,280,36973,98,24,144,0,0,0,0,0,0,0,0,-32296,0,0,0,4267,0,25050,0
22504,-214,-8208,482,-47,12,11,28200,2,-1,1001,256,36974,89,24,144,0,0,0,0,0,0,0,0,-32296,0,0,0,4267,0,25070,0
22514,-194,-8252,490,-55,17,12,28201,0,0,998,272,36977,85,24,144,0,0,0,0,0,0,0,0,-32296,0,0,0,4266,0,25090,0
22524,-162,-8212,496,-43,16,8,28200,4,2,999,272,36980,92,24,144,0,0,0,0,0,0,0,0,-32297,0,0,0,4267,0,25110,0
22534,-102,-8220,536,-43,16,3,28200,1,2,998,280,36979,107,24,144,0,0,0,0,0,0,0,0,-32297,0,0,0,4267,0,25130,0
22544,-148,-8218,530,-45,16,3,28201,-3,-3,997,280,36976,109,24,144,0,0,0,0,0,0,0,0,-32297,0,0,0,4267,0,25150,0
22554,-112,-8202,504,-41,15,9,28199,-6,5,1000,288,36976,112,24,144,0,0,0,0,0,0,0,0,-32297,0,0,0,4267,0,25170,0
22564,-160,-8246,558,-46,15,5,28200,-5,-1,996,264,36983,105,24,144,0,0,0,0,0,0,0,0,-32296,0,0,0,4267,0,25190,0
22574,-110,-8232,522,-45,11,6,28200,0,-3,997,272,36984,103,24,144,0,0,0,0,0,0,0,0,-32297,0,0,0,4267,0,25210,0
22584,-140,-8230,528,-51,14,11,28200,-6,0,1003,272,36982,97,24,144,0,0,0,0,0,0,0,0,-32297,0,0,0,4267,0,25230,0
22594,-172,-8230,548,-48,11,9,28201,3,-4,1001,264,36976,91,24,144,0,0,0,0,0,0,0,0,-32297,0,0,0,4267,0,25250,0
22604,-146,-8244,516,-57,14,8,28199,-1,0,1002,272,36977,91,24,144,0,0,0,0,0,0,0,0,-32297,0,0,0,4266,0,25270,0
22614,-160,-8230,510,-51,15,8,28200,0,-1,997,280,36977,97,24,144,0,0,0,0,0,0,0,0,-32297,0,0,0,4267,0,25290,0
22624,-118,-8198,496,-53,15,0,28200,-2,-1,996,272,36974,94,24,144,0,0,0,0,0,0,0,0,-32296,0,0,0,4267,0,25310,0
22634,-156,-8208,510,-57,18,4,28200,-6,-3,1002,256,36974,98,24,144,0,0,0,0,0,0,0,0,-32297,0,0,0,4267,0,25330,0
22644,-110,-8242,516,-49,17,12,28201,2,3,999,264,36978,92,24,144,0,0,0,0,0,0,0,0,-32297,0,0,0,4267,0,25350,0
22654,-138,-8240,524,-51,21,13,28200,3,-4,998,272,36977,97,24,144,0,0,0,0,0,0,0,0,-32297,0,0,0,4267,0,25370,0
22664,-164,-8204,556,-37,17,9,28200,-5,-2,999,256,36978,94,24,144,0,0,0,0,0,0,0,0,-32297,0,0,0,4268,0,25390,0
22674,-186,-8242,538,-46,14,12,28201,1,-3,1001,264,36978,95,24,144,0,0,0,0,0,0,0,0,-32297,0,0,0,4267,0,25410,0
22684,-236,-8214,540,-47,16,7,28199,-2,3,998,280,36980,90,24,144,0,0,0,0,0,0,0,0,-32296,0,0,0,4268,0,25430,0
22694,-72,-8238,532,-46,14,3,28201,7,0,1005,264,36979,91,24,144,0,0,0,0,0,0,0,0,-32297,0,0,0,4268,0,25450,0
22704,-186,-8220,532,-50,12,3,28199,-7,2,994,264,36979,93,24,144,0,0,0,0,0,0,0,0,-32297,0,0,0,4267,0,25470,0
22714,-150,-8212,528,-44,18,3,28202,7,-3,998,256,36980,95,24,144,0,0,0,0,0,0,0,0,-32296,0,0,0,4267,0,25490,0
22724,-158,-8248,530,-53,12,2,28201,8,2,995,264,36983,101,24,144,0,0,0,0,0,0,0,0,-32296,0,0,0,4267,0,25510,0
22734,-168,-8228,562,-51,15,6,28201,-1,4,999,264,36982,99,24,144,0,0,0,0,0,0,0,0,-32296,0,0,0,4267,0,25530,0
22744,-174,-8222,514,-58,16,5,28200,-2,-1,1002,264,36981,106,24,144,0,0,0,0,0,0,0,0,-32297,0,0,0,4267,0,25550,0
22754,-158,-8240,512,-52,15,4,28200,1,0,997,256,36979,101,24,144,0,0,0,0,0,0,0,0,-32297,0,0,0,4267,0,25570,0
22764,-174,-8228,534,-47,18,8,28202,0,4,998,248,36982,100,24,144,0,0,0,0,0,0,0,0,-32297,0,0,0,4267,0,25590,0
22774,-182,-8246,536,-52,16,11,28200,-2,-5,997,264,36984,93,24,144,0,0,0,0,0,0,0,0,-32296,0,0,0,4268,0,25610,0
22784,-198,-8200,538,-49,16,9,28201,7,-1,999,264,36987,101,24,144,0,0,0,0,0,0,0,0,-32296,0,0,0,4267,0,25630,0
22794,-140,-8230,566,-56,15,9,28201,5,1,998,256,36985,103,24,144,0,0,0,0,0,0,0,0,-32296,0,0,0,4267,0,25650,0
22804,-150,-8254,544,-42,17,10,28201,2,2,994,272,36986,100,24,144,0,0,0,0,0,0,0,0,-32297,0,0,0,4267,0,25670,0
22814,-166,-8214,568,-52,17,9,28201,-4,-2,1001,248,36983,96,24,144,0,0,0,0,0,0,0,0,-32297,0,0,0,4267,0,25690,0
22824,-170,-8190,502,-45,14,10,28200,-5,-1,997,280,36984,103,24,144,0,0,0,0,0,0,0,0,-32297,0,0,0,4267,0,25710,0
22834,-146,-8258,500,-49,15,8,28202,6,1,1001,272,36984,109,24,144,0,0,0,0,0,0,0,0,-32297,0,0,0,4267,0,25730,0
22844,-138,-8216,530,-55,15,7,28201,6,3,1004,264,36982,106,24,144,0,0,0,0,0,0,0,0,-32297,0,0,0,4267,0,25750,0
22854,-174,-8230,528,-40,12,10,28201,6,3,998,256,36984,100,24,144,0,0,0,0,0,0,0,0,-32297,0,0,0,4267,0,25770,0
22864,-116,-8262,510,-47,17,6,28201,3,0,995,264,36985,104,24,144,0,0,0,0,0,0,0,0,-32296,0,0,0,4267,0,25790,0
22874,-108,-8218,526,-41,19,8,28202,4,2,1002,264,36985,101,24,144,0,0,0,0,0,0,0,0,-32297,0,0,0,4267,0,25810,0
22884,-120,-8240,524,-58,16,11,28200,0,-1,998,264,36982,96,24,144,0,0,0,0,0,0,0,0,-32297,0,0,0,4268,0,25830,0
22894,-152,-8240,548,-48,17,8,28201,7,1,996,264,36983,97,24,144,0,0,0,0,0,0,0,0,-32297,0,0,0,4267,0,25850,0
22904,-162,-8262,522,-52,18,11,28201,3,0,995,264,36989,103,24,144,0,0,0,0,0,0,0,0,-32297,0,0,0,4267,0,25870,0
22914,-130,-8230,514,-54,18,10,28201,4,-2,998,256,36992,107,24,144,0,0,0,0,0,0,0,0,-32297,0,0,0,4267,0,25890,0
22924,-136,-8256,522,-48,17,9,28200,-5,-6,997,256,36988,107,24,144,0,0,0,0,0,0,0,0,-32296,0,0,0,4267,0,25910,0
22934,-196,-8264,534,-58,16,10,28201,-4,2,1001,256,36984,101,24,144,0,0,0,0,0,0,0,0,-32297,0,0,0,4267,0,25930,0
22944,-156,-8216,540,-48,15,4,28201,-5,2,1001,264,36984,101,24,144,0,0,0,0,0,0,0,0,-32296,0,0,0,4266,0,25950,0
22954,-208,-8230,530,-57,20,11,28202,2,-2,999,256,36985,101,24,144,0,0,0,0,0,0,0,0,-32296,0,0,0,4267,0,25970,0
22964,-226,-8224,536,-47,17,2,28200,1,-3,999,264,36988,97,24,144,0,0,0,0,0,0,0,0,-32297,0,0,0,4267,0,25990,0
22974,-146,-8246,518,-46,12,4,28201,-9,0,996,264,36987,104,24,144,0,0,0,0,0,0,0,0,-32296,0,0,0,4268,0,26010,0
22984,-162,-8280,514,-49,12,5,28201,-1,3,1000,256,36993,103,24,144,0,0,0,0,0,0,0,0,-32296,0,0,0,4267,0,26030,0
22994,-142,-8254,504,-49,13,8,28201,-2,-4,999,264,36993,100,24,144,0,0,0,0,0,0,0,0,-32296,0,0,0,4268,0,26050,0
23004,-168,-8240,504,-53,13,8,28200,5,2,992,264,36996,97,24,144,0,0,0,0,0,0,0,0,-32297,0,0,0,4267,0,26070,0
23014,-94,-8254,550,-48,13,5,28202,5,3,999,256,36993,99,24,144,0,0,0,0,0,0,0,0,-32297,0,0,0,4267,0,26090,0
23024,-98,-8224,550,-62,20,7,28202,6,1,996,264,36985,99,24,144,0,0,0,0,0,0,0,0,-32297,0,0,0,4267,0,26111,0
23034,-142,-8228,528,-58,10,11,28202,5,-6,996,272,36984,100,24,144,0,0,0,0,0,0,0,0,-32297,0,0,0,4267,0,26131,0
23044,-144,-8248,536,-61,15,17,28201,-4,-3,1000,264,36985,100,24,144,0,0,0,0,0,0,0,0,-32296,0,0,0,4267,0,26151,0
23054,-166,-8198,564,-62,12,7,28202,3,-6,1000,264,36988,105,24,144,0,0,0,0,0,0,0,0,-32297,0,0,0,4268,0,26171,0
23064,-156,-8240,538,-54,18,7,28202,7,-1,996,264,36987,100,24,144,0,0,0,0,0,0,0,0,-32296,0,0,0,4267,0,26190,0
23074,-156,-8206,536,-62,18,9,28201,-3,1,1000,264,36983,102,24,144,0,0,0,0,0,0,0,0,-32297,0,0,0,4268,0,26211,0
23084,-184,-8224,510,-51,9,10,28201,0,2,996,272,36985,100,24,144,0,0,0,0,0,0,0,0,-32296,0,0,0,4268,0,26231,0
23094,-166,-8234,522,-49,11,4,28201,4,0,1004,256,36991,94,24,144,0,0,0,0,0,0,0,0,-32296,0,0,0,4267,0,26251,0
23104,-112,-8238,498,-46,17,8,28202,0,2,997,264,36992,88,24,144,0,0,0,0,0,0,0,0,-32297,0,0,0,4267,0,26271,0
23114,-160,-8254,512,-50,20,8,28202,0,-5,997,256,36989,86,24,144,0,0,0,0,0,0,0,0,-32296,0,0,0,4267,0,26291,0
23124,-154,-8226,534,-45,17,9,28201,0,2,997,256,36983,94,24,144,0,0,0,0,0,0,0,0,-32296,0,0,0,4267,0,26311,0
23134,-248,-8238,540,-45,11,8,28201,2,3,1004,272,36984,94,24,144,0,0,0,0,0,0,0,0,-32297,0,0,0,4267,0,26331,0
23144,-210,-8250,510,-52,16,4,28201,-1,-7,999,264,36981,92,24,144,0,0,0,0,0,0,0,0,-32297,0,0,0,4267,0,26351,0
23154,-154,-8208,536,-49,8,1,28202,1,-1,999,256,36982,95,24,144,0,0,0,0,0,0,0,0,-32296,0,0,0,4267,0,26371,0
23164,-172,-8212,528,-60,20,6,28201,-7,-5,998,264,36981,102,24,144,0,0,0,0,0,0,0,0,-32297,0,0,0,4268,0,26391,0
23174,-148,-8246,534,-60,15,2,28202,1,3,994,272,36981,103,24,144,0,0,0,0,0,0,0,0,-32296,0,0,0,4267,0,26411,0
23184,-134,-8246,524,-59,13,7,28201,0,-2,996,264,36981,107,24,144,0,0,0,0,0,0,0,0,-32297,0,0,0,4268,0,26431,0
23194,-146,-8254,508,-56,22,4,28200,-2,5,997,272,36984,110,24,144,0,0,0,0,0,0,0,0,-32297,0,0,0,4267,0,26451,0
23204,-160,-8226,524,-51,15,6,28201,0,-2,996,248,36982,114,24,144,0,0,0,0,0,0,0,0,-32297,0,0,0,4267,0,26471,0
23214,-162,-8246,522,-58,15,8,28200,-1,-2,1000,264,36980,110,24,144,0,0,0,0,0,0,0,0,-32297,0,0,0,4267,0,26491,0
23224,-154,-8248,534,-47,14,4,28202,-3,-2,1001,264,36981,106,24,144,0,0,0,0,0,0,0,0,-32297,0,0,0,4267,0,26511,0
23234,-150,-8236,530,-55,15,12,28201,0,-2,1000,272,36978,99,24,144,0,0,0,0,0,0,0,0,-32297,0,0,0,4267,0,26531,0
23244,-176,-8240,514,-43,12,5,28201,-4,-3,1003,272,36978,96,24,144,0,0,0,0,0,0,0,0,-32297,0,0,0,4268,0,26551,0
23254,-148,-8246,532,-47,10,6,28202,5,2,999,272,36977,89,24,144,0,0,0,0,0,0,0,0,-32296,0,0,0,4267,0,26572,0
23264,-218,-8234,510,-45,14,5,28202,5,-1,999,248,36976,93,24,144,0,0,0,0,0,0,0,0,-32297,0,0,0,4268,0,26591,0
23274,-118,-8260,526,-42,16,9,28201,-7,2,996,272,36979,96,24,144,0,0,0,0,0,0,0,0,-32297,0,0,0,4267,0,26612,0
23284,-184,-8180,530,-45,11,6,28201,0,-1,996,272,36981,95,24,144,0,0,0,0,0,0,0,0,-32297,0,0,0,4268,0,26631,0
23294,-138,-8242,502,-42,14,9,28200,-3,2,1003,256,36980,99,24,144,0,0,0,0,0,0,0,0,-32297,0,0,0,4267,0,26651,0
23304,-136,-8250,544,-50,15,5,28201,0,7,998,264,36987,94,24,144,0,0,0,0,0,0,0,0,-32297,0,0,0,4267,0,26671,0
23314,-184,-8238,542,-47,16,6,28201,-5,-3,1000,248,36988,96,24,144,0,0,0,0,0,0,0,0,-32296,0,0,0,4267,0,26691,0
23324,-182,-8242,528,-52,22,8,28201,-5,-1,995,272,36988,89,24,144,0,0,0,0,0,0,0,0,-32297,0,0,0,4267,0,26711,0
23334,-136,-8232,530,-55,14,7,28200,-5,-3,999,256,36978,100,24,144,0,0,0,0,0,0,0,0,-32296,0,0,0,4267,0,26731,0
23344,-166,-8222,534,-53,14,7,28202,3,6,998,256,36976,98,24,144,0,0,0,0,0,0,0,0,-32297,0,0,0,4266,0,26751,0
23354,-172,-8222,520,-58,16,11,28202,0,-2,995,264,36975,106,24,144,0,0,0,0,0,0,0,0,-32296,0,0,0,4267,0,26771,0
23364,-204,-8222,524,-45,10,4,28201,2,1,999,248,36976,107,24,144,0,0,0,0,0,0,0,0,-32297,0,0,0,4267,0,26792,0
23374,-182,-8220,514,-53,12,8,28202,1,4,999,256,36976,107,24,144,0,0,0,0,0,0,0,0,-32296,0,0,0,4267,0,26812,0
23384,-202,-8238,526,-44,11,6,28201,0,-5,1005,272,36975,105,24,144,0,0,0,0,0,0,0,0,-32296,0,0,0,4268,0,26832,0
23394,-168,-8224,530,-48,12,0,28201,0,-1,1001,272,36975,104,24,144,0,0,0,0,0,0,0,0,-32297,0,0,0,4268,0,26852,0
23404,-182,-8240,528,-40,7,0,28202,0,-2,998,256,36976,102,24,144,0,0,0,0,0,0,0,0,-32296,0,0,0,4267,0,26872,0
23414,-148,-8238,498,-44,8,2,28200,-1,5,996,264,36976,102,24,144,0,0,0,0,0,0,0,0,-32297,0,0,0,4267,0,26892,0
23424,-126,-8234,496,-49,14,-2,28200,-7,4,999,272,36978,100,24,144,0,0,0,0,0,0,0,0,-32297,0,0,0,4267,0,26912,0
23434,-150,-8238,530,-43,11,-1,28200,0,2,999,264,36972,99,24,144,0,0,0,0,0,0,0,0,-32296,0,0,0,4267,0,26932,0
23444,-196,-8246,564,-55,8,7,28202,0,2,999,264,36971,94,24,144,0,0,0,0,0,0,0,0,-32297,0,0,0,4267,0,26952,0
23454,-164,-8256,580,-40,15,0,28200,0,7,997,272,36971,98,24,144,0,0,0,0,0,0,0,0,-32296,0,0,0,4267,0,26972,0
23464,-152,-8248,532,-55,13,3,28200,-7,-3,996,256,36971,99,24,144,0,0,0,0,0,0,0,0,-32297,0,0,0,4267,0,26992,0
23474,-158,-8238,526,-52,16,2,28200,-4,-2,999,272,36971,100,24,144,0,0,0,0,0,0,0,0,-32297,0,0,0,4267,0,27012,0
23484,-198,-8236,504,-54,12,3,28200,-1,-1,1002,264,36971,103,24,144,0,0,0,0,0,0,0,0,-32297,0,0,0,4268,0,27032,0
23494,-136,-8262,524,-54,14,2,28201,0,3,999,272,36971,104,24,144,0,0,0,0,0,0,0,0,-32297,0,0,0,4267,0,27052,0
23504,-148,-8224,536,-45,16,4,28200,-1,3,998,256,36974,100,24,144,0,0,0,0,0,0,0,0,-32297,0,0,0,4267,0,27072,0
23514,-142,-8230,544,-55,15,0,28201,2,-1,994,264,36981,94,24,144,0,0,0,0,0,0,0,0,-32296,0,0,0,4268,0,27092,0
23524,-186,-8226,542,-46,10,10,28199,-6,-2,999,280,36983,91,24,144,0,0,0,0,0,0,0,0,-32296,0,0,0,4267,0,27112,0
23534,-86,-8220,526,-50,13,7,28200,-1,-2,1002,264,36980,97,24,144,0,0,0,0,0,0,0,0,-32297,0,0,0,4267,0,27132,0
23544,-128,-8232,498,-45,10,3,28200,0,0,994,272,36976,95,24,144,0,0,0,0,0,0,0,0,-32296,0,0,0,4267,0,27152,0
23554,-150,-8230,534,-45,9,11,28201,1,-3,1003,256,36987,88,24,144,0,0,0,0,0,0,0,0,-32297,0,0,0,4266,0,27172,0
23564,-160,-8194,524,-46,14,11,28201,6,3,1000,264,37001,93,24,144,0,0,0,0,0,0,0,0,-32296,0,0,0,4267,0,27192,0
23574,-168,-8286,570,-47,18,10,28199,-5,1,1002,256,37001,101,24,144,0,0,0,0,0,0,0,0,-32296,0,0,0,4268,0,27212,0
23584,-212,-8238,564,-49,8,9,28201,3,1,998,272,36987,102,24,144,0,0,0,0,0,0,0,0,-32296,0,0,0,4268,0,27232,0
23594,-188,-8220,534,-48,12,4,28200,0,-1,1001,280,36978,99,24,144,0,0,0,0,0,0,0,0,-32297,0,0,0,4267,0,27252,0
23604,-194,-8246,556,-62,16,9,28201,-4,-3,1000,248,36978,94,24,144,0,0,0,0,0,0,0,0,-32297,0,0,0,4267,0,27272,0
23614,-162,-8214,528,-58,12,10,28201,2,1,996,272,36977,100,24,144,0,0,0,0,0,0,0,0,-32297,0,0,0,4267,0,27292,0
23624,-166,-8240,538,-54,16,7,28199,-11,1,1000,280,36974,104,24,144,0,0,0,0,0,0,0,0,-32297,0,0,0,4267,0,27312,0
23634,-174,-8226,538,-57,14,6,28201,0,-3,1003,272,36972,110,24,144,0,0,0,0,0,0,0,0,-32296,0,0,0,4267,0,27332,0
23644,-1046,-8268,344,-30,45,-142,28146,-180,-97,240,0,36978,103,24,144,0,0,0,0,0,0,0,0,-32296,0,0,0,4264,0,27352,0
23654,-1480,-8220,338,-31,122,-187,28071,-145,-168,288,0,36983,84,24,144,0,0,0,0,0,0,0,0,-32297,0,0,0,4258,0,27372,0
23664,124,-8252,546,-24,146,-198,28025,-85,27,168,0,36983,82,24,144,0,0,0,0,0,0,0,0,-32297,0,0,0,4254,0,27392,0
23674,408,-8250,662,-28,89,-160,27987,-76,74,162,0,36982,83,24,144,0,0,0,0,0,0,0,0,-32297,0,0,0,4250,0,27413,0
23684,348,-8204,722,-50,-3,-54,27963,-43,36,102,0,36982,93,24,144,0,0,0,0,0,0,0,0,-32297,0,0,0,4249,0,27434,0
23694,-184,-8262,604,-60,-8,-35,27942,-36,34,100,0,36984,94,24,144,0,0,0,0,0,0,0,0,-32296,0,0,0,4246,0,27454,0
23704,-298,-8254,474,-61,27,-30,27933,-13,39,29,0,36981,94,24,144,0,0,0,0,0,0,0,0,-32297,0,0,0,4245,0,27474,0
23714,36,-8238,532,-47,26,-29,27933,-7,43,9,0,36984,99,24,144,0,0,0,0,0,0,0,0,-32296,0,0,0,4246,0,27494,0
23724,130,-8274,590,-56,7,-3,27931,-4,2,18,0,36994,114,24,144,0,0,0,0,0,0,0,0,-32296,0,0,0,4245,0,27514,0
23734,-40,-8236,594,-61,0,14,27930,-5,-1,11,0,36997,108,24,144,0,0,0,0,0,0,0,0,-32296,0,0,0,4246,0,27534,0
23744,-266,-8212,512,-68,5,4,27928,-6,-1,7,0,36993,99,24,144,0,0,0,0,0,0,0,0,-32296,0,0,0,4247,0,27554,0
23754,-256,-8230,490,-56,25,-9,27929,1,5,6,0,36987,100,24,144,0,0,0,0,0,0,0,0,-32296,0,0,0,4245,0,27574,0
23764,-84,-8228,476,-51,21,-17,27928,-1,-4,13,0,36984,101,24,144,0,0,0,0,0,0,0,0,-32297,0,0,0,4247,0,27594,0
23774,-56,-8264,502,-49,17,-10,27927,11,3,19,0,36987,98,24,144,0,0,0,0,0,0,0,0,-32296,0,0,0,4245,0,27614,0
23784,-90,-8258,490,-48,15,-4,27921,-7,2,18,0,36988,99,24,144,0,0,0,0,0,0,0,0,-32296,0,0,0,4245,0,27634,0
23794,-202,-8232,540,-45,6,-10,27920,-11,0,20,0,36988,110,24,144,0,0,0,0,0,0,0,0,-32296,0,0,0,4244,0,27654,0
23804,-170,-8204,606,-51,18,-22,27917,-9,-4,23,0,36985,107,24,144,0,0,0,0,0,0,0,0,-32296,0,0,0,4245,0,27674,0
23814,-104,-8222,598,-52,27,-29,27910,-10,-3,37,0,36988,103,24,144,0,0,0,0,0,0,0,0,-32297,0,0,0,4243,0,27694,0
23824,-48,-8226,522,-54,28,-42,27896,-37,-16,68,0,36997,100,24,144,0,0,0,0,0,0,0,0,-32296,0,0,0,4243,0,27714,0
23834,-200,-8216,470,-50,36,-49,27878,-45,-31,98,0,36998,102,24,144,0,0,0,0,0,0,0,0,-32296,0,0,0,4240,0,27734,0
23844,-136,-8232,492,-49,36,-30,27868,-12,3,49,0,36996,97,24,144,0,0,0,0,0,0,0,0,-32296,0,0,0,4241,0,27754,0
23854,132,-8226,540,-49,24,-13,27866,-1,36,12,0,36993,86,24,144,0,0,0,0,0,0,0,0,-32297,0,0,0,4240,0,27774,0
23864,44,-8224,590,-50,1,14,27867,1,15,8,0,36993,83,24,144,0,0,0,0,0,0,0,0,-32297,0,0,0,4239,0,27794,0
23874,-136,-8220,580,-51,8,17,27866,4,1,5,0,36992,83,24,144,0,0,0,0,0,0,0,0,-32296,0,0,0,4238,0,27814,0
23884,-204,-8246,522,-53,20,7,27865,-1,6,2,0,36989,90,24,144,0,0,0,0,0,0,0,0,-32296,0,0,0,4241,0,27834,0
23894,-110,-8224,542,-53,23,6,27865,1,2,6,0,36989,83,24,144,0,0,0,0,0,0,0,0,-32297,0,0,0,4240,0,27854,0
23904,-14,-8236,530,-55,15,10,27865,5,-1,7,0,36992,85,24,144,0,0,0,0,0,0,0,0,-32296,0,0,0,4240,0,27874,0
23914,-72,-8254,548,-50,10,8,27863,-2,8,4,0,36995,78,24,144,0,0,0,0,0,0,0,0,-32297,0,0,0,4239,0,27894,0
23924,-152,-8212,518,-51,10,8,27864,2,-5,3,0,36994,77,24,144,0,0,0,0,0,0,0,0,-32296,0,0,0,4239,0,27914,0
23934,-144,-8216,520,-54,14,8,27863,-5,3,1,0,36995,85,24,144,0,0,0,0,0,0,0,0,-32296,0,0,0,4240,0,27934,0
23944,-98,-8260,548,-47,18,4,27863,1,0,5,0,36994,90,24,144,0,0,0,0,0,0,0,0,-32296,0,0,0,4240,0,27954,0
23954,-80,-8254,528,-52,15,4,27862,-7,-4,5,0,36994,87,24,144,0,0,0,0,0,0,0,0,-32297,0,0,0,4240,0,27974,0
23964,-122,-8234,512,-52,18,10,27862,-6,1,3,0,36992,77,24,144,0,0,0,0,0,0,0,0,-32297,0,0,0,4240,0,27994,0
23974,-130,-8258,550,-47,8,6,27863,1,5,5,0,36992,79,24,144,0,0,0,0,0,0,0,0,-32297,0,0,0,4240,0,28014,0
23984,-110,-8210,522,-49,16,-2,27862,2,-1,4,0,36992,83,24,144,0,0,0,0,0,0,0,0,-32297,0,0,0,4241,0,28034,0
23994,-128,-8222,540,-49,18,-4,27861,-3,2,8,0,36992,81,24,144,0,0,0,0,0,0,0,0,-32297,0,0,0,4239,0,28054,0
24004,-102,-8210,526,-48,16,0,27861,5,1,9,0,36992,87,24,144,0,0,0,0,0,0,0,0,-32296,0,0,0,4239,0,28074,0
24014,-82,-8220,556,-52,15,3,27859,-3,-2,6,0,36992,94,24,144,0,0,0,0,0,0,0,0,-32296,0,0,0,4241,0,28094,0
24024,-84,-8258,536,-54,17,3,27858,-1,-3,8,0,36992,91,24,144,0,0,0,0,0,0,0,0,-32296,0,0,0,4240,0,28114,0
24034,-98,-8268,524,-49,15,4,27860,5,4,5,0,36991,83,24,144,0,0,0,0,0,0,0,0,-32297,0,0,0,4239,0,28134,0
24044,-84,-8232,560,-49,13,6,27857,-8,1,6,0,36996,91,24,144,0,0,0,0,0,0,0,0,-32297,0,0,0,4240,0,28154,0
24054,-104,-8238,526,-51,12,5,27857,0,1,6,0,36995,90,24,144,0,0,0,0,0,0,0,0,-32297,0,0,0,4239,0,28174,0
24064,-90,-8232,528,-57,13,8,27857,2,-1,3,0,36994,92,24,144,0,0,0,0,0,0,0,0,-32296,0,0,0,4239,0,28194,0
24074,-122,-8228,524,-53,10,7,27857,3,-1,7,0,36986,73,24,144,0,0,0,0,0,0,0,0,-32296,0,0,0,4239,0,28214,0
24084,-96,-8230,526,-50,10,6,27856,-7,3,4,0,36987,73,24,144,0,0,0,0,0,0,0,0,-32296,0,0,0,4240,0,28234,0
24094,-130,-8246,506,-54,13,5,27856,3,1,4,0,36988,75,24,144,0,0,0,0,0,0,0,0,-32296,0,0,0,4239,0,28254,0
24104,-118,-8250,548,-50,8,4,27854,-4,6,7,0,36990,77,24,144,0,0,0,0,0,0,0,0,-32296,0,0,0,4240,0,28274,0
24114,-106,-8224,514,-48,12,6,27855,3,-1,4,0,36989,76,24,144,0,0,0,0,0,0,0,0,-32296,0,0,0,4240,0,28294,0
24124,-124,-8234,552,-48,15,1,27854,0,1,8,0,36991,72,24,144,0,0,0,0,0,0,0,0,-32297,0,0,0,4239,0,28314,0
24134,-130,-8248,522,-49,15,4,27853,-9,6,7,0,36991,74,24,144,0,0,0,0,0,0,0,0,-32296,0,0,0,4238,0,28334,0
24144,-100,-8228,544,-51,14,-2,27853,1,-3,11,0,36991,80,24,144,0,0,0,0,0,0,0,0,-32297,0,0,0,4240,0,28355,0
24154,-106,-8256,536,-50,18,-1,27852,0,0,14,0,36990,79,24,144,0,0,0,0,0,0,0,0,-32296,0,0,0,4239,0,28375,0
24164,-110,-8218,542,-47,17,-4,27847,-8,-2,16,0,36987,76,24,144,0,0,0,0,0,0,0,0,-32296,0,0,0,4238,0,28395,0
24174,-124,-8222,524,-50,20,-5,27844,-18,-6,23,0,36984,80,24,144,0,0,0,0,0,0,0,0,-32297,0,0,0,4237,0,28415,0
24184,-108,-8242,544,-56,30,-13,27839,-15,-7,35,0,36983,75,24,144,0,0,0,0,0,0,0,0,-32297,0,0,0,4237,0,28441,0
24194,-122,-8236,544,-50,26,-24,27830,-21,-15,53,0,36986,69,24,144,0,0,0,0,0,0,0,0,-32296,0,0,0,4237,0,28461,0
24204,-186,-8204,516,-46,36,-30,27816,-32,-14,66,0,36987,70,24,144,0,0,0,0,0,0,0,0,-32296,0,0,0,4236,0,28481,0
24214,-126,-8242,550,-44,37,-24,27807,-9,1,38,0,36985,75,24,144,0,0,0,0,0,0,0,0,-32296,0,0,0,4235,0,28501,0
24224,54,-8216,560,-46,16,-6,27805,-4,20,14,0,36982,81,24,144,0,0,0,0,0,0,0,0,-32297,0,0,0,4235,0,28521,0
24234,-26,-8238,570,-48,7,7,27804,5,12,9,0,36984,82,24,144,0,0,0,0,0,0,0,0,-32297,0,0,0,4235,0,28541,0
24244,-154,-8250,534,-50,12,15,27803,-6,3,5,0,36986,78,24,144,0,0,0,0,0,0,0,0,-32296,0,0,0,4235,0,28561,0
24254,-144,-8232,508,-56,12,3,27802,-1,2,5,0,36987,70,24,144,0,0,0,0,0,0,0,0,-32297,0,0,0,4235,0,28581,0
24264,-100,-8232,520,-50,18,-2,27801,-6,0,3,0,36984,74,24,144,0,0,0,0,0,0,0,0,-32297,0,0,0,4235,0,28601,0
24274,-44,-8226,522,-44,15,1,27802,0,0,5,0,36985,86,24,144,0,0,0,0,0,0,0,0,-32296,0,0,0,4235,0,28621,0
24284,-82,-8232,544,-50,14,4,27801,-1,2,4,0,36985,90,24,144,0,0,0,0,0,0,0,0,-32296,0,0,0,4235,0,28641,0
24294,-152,-8228,558,-50,13,2,27800,-4,4,1,0,36984,88,24,144,0,0,0,0,0,0,0,0,-32296,0,0,0,4235,0,28661,0
24304,-102,-8226,530,-54,13,1,27801,-2,0,3,0,36982,85,24,144,0,0,0,0,0,0,0,0,-32296,0,0,0,4235,0,28681,0
24314,-108,-8216,522,-51,21,2,27800,0,5,2,0,36979,89,24,144,0,0,0,0,0,0,0,0,-32296,0,0,0,4235,0,28701,0
24324,-72,-8214,544,-49,16,5,27799,-5,3,4,0,36979,80,24,144,0,0,0,0,0,0,0,0,-32296,0,0,0,4234,0,28721,0
24334,-64,-8208,526,-53,18,2,27799,-3,-2,6,0,36982,72,24,144,0,0,0,0,0,0,0,0,-32296,0,0,0,4235,0,28741,0
24344,-84,-8258,544,-53,14,4,27799,0,1,4,0,36982,78,24,144,0,0,0,0,0,0,0,0,-32296,0,0,0,4235,0,28761,0
24354,-94,-8208,534,-45,7,0,27799,0,2,5,0,36987,82,24,144,0,0,0,0,0,0,0,0,-32296,0,0,0,4235,0,28781,0
24364,-68,-8240,526,-52,16,2,27797,0,1,4,0,36984,85,24,144,0,0,0,0,0,0,0,0,-32296,0,0,0,4235,0,28802,0
24374,-80,-8246,520,-51,17,1,27798,2,-1,5,0,36984,84,24,144,0,0,0,0,0,0,0,0,-32296,0,0,0,4235,0,28822,0
24384,-62,-8248,510,-47,18,7,27797,0,-5,3,0,36979,87,24,144,0,0,0,0,0,0,0,0,-32296,0,0,0,4235,0,28842,0
24394,-114,-8234,508,-48,13,9,27797,5,1,4,0,36980,83,24,144,0,0,0,0,0,0,0,0,-32296,0,0,0,4235,0,28862,0
24404,-100,-8258,574,-51,14,8,27797,6,-1,2,0,36979,90,24,144,0,0,0,0,0,0,0,0,-32296,0,0,0,4235,0,28882,0
24414,-88,-8226,548,-48,15,13,27796,-5,4,1,0,36979,86,24,144,0,0,0,0,0,0,0,0,-32296,0,0,0,4235,0,28902,0
24424,-118,-8218,562,-48,9,9,27794,-3,2,0,0,36980,92,24,144,0,0,0,0,0,0,0,0,-32296,0,0,0,4235,0,28922,0
24434,-108,-8222,546,-51,18,12,27796,2,0,1,0,36979,83,24,144,0,0,0,0,0,0,0,0,-32296,0,0,0,4235,0,28942,0
24444,-92,-8220,540,-51,14,7,27797,4,1,0,0,36976,81,24,144,0,0,0,0,0,0,0,0,-32296,0,0,0,4235,0,28962,0
24454,-58,-8228,548,-53,17,9,27796,9,1,3,0,36977,81,24,144,0,0,0,0,0,0,0,0,-32297,0,0,0,4235,0,28982,0
24464,-72,-8252,514,-48,19,8,27795,-6,0,1,0,36979,82,24,144,0,0,0,0,0,0,0,0,-32296,0,0,0,4235,0,29002,0
24474,-102,-8226,534,-49,13,9,27796,0,3,0,0,36978,80,24,144,0,0,0,0,0,0,0,0,-32296,0,0,0,4235,0,29022,0
24484,-118,-8218,522,-46,19,11,27795,1,1,0,0,36979,77,24,144,0,0,0,0,0,0,0,0,-32297,0,0,0,4235,0,29042,0
24494,-116,-8238,538,-49,16,9,27796,-1,1,0,0,36978,80,24,144,0,0,0,0,0,0,0,0,-32296,0,0,0,4235,0,29062,0
24504,-90,-8250,540,-50,16,10,27796,1,0,2,0,36979,86,24,144,0,0,0,0,0,0,0,0,-32296,0,0,0,4235,0,29082,0
24514,-104,-8234,542,-52,17,6,27794,-2,5,0,0,36979,81,24,144,0,0,0,0,0,0,0,0,-32297,0,0,0,4234,0,29102,0
24524,-122,-8234,542,-52,13,3,27795,1,3,1,0,36979,80,24,144,0,0,0,0,0,0,0,0,-32297,0,0,0,4235,0,29122,0
24534,-100,-8236,536,-54,13,5,27795,0,3,3,0,36983,79,24,144,0,0,0,0,0,0,0,0,-32296,0,0,0,4234,0,29142,0
24544,-92,-8234,524,-54,14,5,27796,3,4,1,0,36981,79,24,144,0,0,0,0,0,0,0,0,-32296,0,0,0,4234,0,29162,0
24554,-92,-8256,542,-50,17,5,27794,0,-1,3,0,36978,78,24,144,0,0,0,0,0,0,0,0,-32296,0,0,0,4235,0,29182,0
24564,-90,-8246,558,-55,18,4,27795,0,1,3,0,36978,80,24,144,0,0,0,0,0,0,0,0,-32296,0,0,0,4234,0,29202,0
24574,-84,-8208,540,-51,18,10,27794,-2,0,1,0,36980,82,24,144,0,0,0,0,0,0,0,0,-32297,0,0,0,4235,0,29222,0
24584,-108,-8254,542,-52,16,5,27794,0,0,3,0,36981,85,24,144,0,0,0,0,0,0,0,0,-32296,0,0,0,4235,0,29242,0
24594,-96,-8220,516,-52,20,5,27793,0,-3,1,0,36978,83,24,144,0,0,0,0,0,0,0,0,-32297,0,0,0,4233,0,29262,0
24604,-100,-8208,528,-56,12,5,27794,0,3,4,0,36982,81,24,144,0,0,0,0,0,0,0,0,-32296,0,0,0,4235,0,29282,0
24614,-86,-8244,540,-54,19,9,27793,1,1,3,0,36984,83,24,144,0,0,0,0,0,0,0,0,-32296,0,0,0,4234,0,29302,0
24624,-108,-8226,526,-51,15,7,27792,0,1,0,0,36983,83,24,144,0,0,0,0,0,0,0,0,-32296,0,0,0,4234,0,29322,0
24634,-80,-8236,510,-55,14,13,27792,1,3,3,0,36978,84,24,144,0,0,0,0,0,0,0,0,-32297,0,0,0,4235,0,29342,0
24644,-96,-8234,534,-55,16,13,27792,-3,1,2,0,36977,84,24,144,0,0,0,0,0,0,0,0,-32296,0,0,0,4232,0,29362,0
24654,-64,-8242,528,-50,19,9,27794,4,3,2,0,36979,89,24,144,0,0,0,0,0,0,0,0,-32296,0,0,0,4234,0,29382,0
24664,-62,-8244,532,-54,13,7,27792,0,-1,1,0,36983,94,24,144,0,0,0,0,0,0,0,0,-32296,0,0,0,4234,0,29402,0
24674,-96,-8264,510,-53,17,11,27791,-10,0,0,0,36982,90,24,144,0,0,0,0,0,0,0,0,-32296,0,0,0,4233,0,29422,0
24684,-122,-8238,514,-50,16,9,27793,0,5,1,0,36981,87,24,144,0,0,0,0,0,0,0,0,-32296,0,0,0,4234,0,29442,0
24694,-108,-8264,532,-51,15,7,27792,3,0,1,0,36983,86,24,144,0,0,0,0,0,0,0,0,-32296,0,0,0,4235,0,29462,0
24704,-86,-8250,528,-48,17,7,27791,0,-2,2,0,36984,92,24,144,0,0,0,0,0,0,0,0,-32296,0,0,0,4234,0,29482,0
24714,-118,-8242,530,-48,18,14,27792,0,-2,1,0,36982,90,24,144,0,0,0,0,0,0,0,0,-32296,0,0,0,4233,0,29502,0
24724,-126,-8242,536,-48,13,8,27792,-2,0,0,0,36982,89,24,144,0,0,0,0,0,0,0,0,-32296,0,0,0,4234,0,29522,0
24734,-112,-8234,512,-49,16,3,27792,0,1,0,0,36984,88,24,144,0,0,0,0,0,0,0,0,-32296,0,0,0,4233,0,29542,0
24744,-106,-8220,530,-48,14,10,27792,-3,0,1,0,36987,86,24,144,0,0,0,0,0,0,0,0,-32297,0,0,0,4235,0,29562,0
24754,-82,-8232,548,-51,15,3,27791,-4,-2,3,0,36986,82,24,144,0,0,0,0,0,0,0,0,-32296,0,0,0,4234,0,29582,0
24764,-86,-8244,536,-55,13,7,27791,-2,-1,0,0,36991,78,24,144,0,0,0,0,0,0,0,0,-32296,0,0,0,4234,0,29602,0
24774,-92,-8252,558,-56,16,4,27791,-4,0,0,0,36989,70,24,144,0,0,0,0,0,0,0,0,-32297,0,0,0,4235,0,29623,0
24784,-84,-8216,506,-51,16,4,27791,1,-1,2,0,36991,77,24,144,0,0,0,0,0,0,0,0,-32296,0,0,0,4234,0,29642,0
24794,-92,-8220,518,-57,16,12,27790,-5,5,1,0,36987,87,24,144,0,0,0,0,0,0,0,0,-32296,0,0,0,4234,0,29662,0
24804,-80,-8218,520,-52,16,10,27792,5,0,3,0,36986,101,24,144,0,0,0,0,0,0,0,0,-32296,0,0,0,4235,0,29682,0
24814,-88,-8224,522,-54,18,11,27791,-6,0,1,0,36986,101,24,144,0,0,0,0,0,0,0,0,-32297,0,0,0,4234,0,29702,0
24824,-100,-8264,522,-51,17,7,27792,2,-1,0,0,36989,92,24,144,0,0,0,0,0,0,0,0,-32297,0,0,0,4233,0,29723,0
24834,-94,-8204,524,-44,18,9,27791,-3,-1,2,0,37001,84,24,144,0,0,0,0,0,0,0,0,-32296,0,0,0,4234,0,29743,0
24844,-102,-8250,542,-47,14,13,27791,3,-1,0,0,36999,81,24,144,0,0,0,0,0,0,0,0,-32296,0,0,0,4234,0,29763,0
24854,-104,-8242,554,-48,14,11,27790,0,4,1,0,36997,86,24,144,0,0,0,0,0,0,0,0,-32296,0,0,0,4233,0,29783,0
24864,-104,-8186,586,-54,11,10,27790,-3,-3,0,0,36986,86,24,144,0,0,0,0,0,0,0,0,-32297,0,0,0,4234,0,29803,0
24874,-100,-8174,546,-58,13,7,27789,-4,2,0,0,36994,86,24,144,0,0,0,0,0,0,0,0,-32296,0,0,0,4234,0,29823,0
24884,-100,-8302,476,-50,17,18,27791,2,-3,2,0,36995,86,24,144,0,0,0,0,0,0,0,0,-32297,0,0,0,4234,0,29843,0
24894,-54,-8094,356,-36,11,5,27790,-6,1,0,0,36994,78,24,144,0,0,0,0,0,0,0,0,-32297,0,0,0,4234,0,29863,0
24904,-112,-8320,420,-25,23,-1,27792,6,-2,1,0,36989,81,24,144,0,0,0,0,0,0,0,0,-32296,0,0,0,4234,0,29883,0
24914,-100,-8236,528,-30,27,7,27790,6,-7,3,0,36991,86,24,144,0,0,0,0,0,0,0,0,-32296,0,0,0,4233,0,29903,0
24924,-52,-8208,548,-37,18,12,27789,-3,0,0,0,36991,91,24,144,0,0,0,0,0,0,0,0,-32296,0,0,0,4235,0,29923,0
24934,-12,-8268,616,-34,26,6,27789,1,-1,4,0,36990,88,24,144,0,0,0,0,0,0,0,0,-32297,0,0,0,4235,0,29943,0
24944,-64,-8294,666,-40,21,21,27789,2,0,4,0,36993,85,24,144,0,0,0,0,0,0,0,0,-32296,0,0,0,4234,0,29963,0
24954,-124,-8246,724,-49,19,19,27787,-5,-1,3,0,36993,96,24,144,0,0,0,0,0,0,0,0,-32297,0,0,0,4233,0,29983,0
24964,-110,-8162,564,-68,19,9,27787,0,1,1,0,36990,96,24,144,0,0,0,0,0,0,0,0,-32296,0,0,0,4232,0,30003,0
24974,-78,-8262,468,-61,20,12,27788,-7,-3,0,0,36991,93,24,144,0,0,0,0,0,0,0,0,-32296,0,0,0,4233,0,30023,0
24984,-108,-8246,402,-48,10,12,27788,4,-1,0,0,36992,90,24,144,0,0,0,0,0,0,0,0,-32296,0,0,0,4232,0,30043,0
24994,-120,-8228,406,-38,14,8,27787,-4,0,1,0,36994,89,24,144,0,0,0,0,0,0,0,0,-32296,0,0,0,4235,0,30063,0
25004,-70,-8178,400,-30,21,11,27787,-8,2,0,0,36994,89,24,144,0,0,0,0,0,0,0,0,-32296,0,0,0,4232,0,30083,0
25014,-48,-8312,472,-28,16,23,27787,-4,-2,1,0,36991,93,24,144,0,0,0,0,0,0,0,0,-32296,0,0,0,4232,0,30103,0
25024,-68,-8238,632,-17,10,18,27788,-1,3,-1,0,36988,95,24,144,0,0,0,0,0,0,0,0,-32296,0,0,0,4235,0,30123,0
25034,-124,-8284,670,-31,19,21,27787,-5,0,1,0,36985,93,24,144,0,0,0,0,0,0,0,0,-32296,0,0,0,4232,0,30143,0
25044,-148,-8288,698,-60,13,20,27787,-3,2,0,0,36986,93,24,144,0,0,0,0,0,0,0,0,-32297,0,0,0,4232,0,30163,0
25054,-140,-8234,612,-61,14,8,27789,9,-2,0,0,36990,91,24,144,0,0,0,0,0,0,0,0,-32296,0,0,0,4232,0,30183,0
25064,-156,-8240,450,-51,8,-1,27787,-1,1,1,0,36991,101,24,144,0,0,0,0,0,0,0,0,-32296,0,0,0,4233,0,30203,0
25074,-156,-8272,434,-44,6,4,27788,4,-6,0,0,36987,98,24,144,0,0,0,0,0,0,0,0,-32296,0,0,0,4234,0,30223,0
25084,-140,-8182,478,-43,18,-6,27787,-1,4,2,0,36990,98,24,144,0,0,0,0,0,0,0,0,-32296,0,0,0,4234,0,30243,0
25094,-72,-8226,512,-36,17,-13,27787,-5,3,0,0,36992,95,24,144,0,0,0,0,0,0,0,0,-32296,0,0,0,4234,0,30263,0
25104,-76,-8252,580,-35,15,-1,27786,1,-2,5,0,36993,96,24,144,0,0,0,0,0,0,0,0,-32296,0,0,0,4234,0,30283,0
25114,-42,-8248,660,-39,10,2,27785,-3,-2,6,0,36990,93,24,144,0,0,0,0,0,0,0,0,-32296,0,0,0,4234,0,30303,0
25124,-54,-8214,662,-56,22,0,27786,2,1,3,0,36985,85,24,144,0,0,0,0,0,0,0,0,-32296,0,0,0,4233,0,30323,0
25134,-42,-8278,562,-62,26,4,27783,-6,-2,12,0,36987,80,24,144,0,0,0,0,0,0,0,0,-32296,0,0,0,4234,0,30343,0
25144,-42,-8248,496,-56,14,21,27783,1,-3,9,0,36989,86,24,144,0,0,0,0,0,0,0,0,-32297,0,0,0,4232,0,30363,0
25154,-102,-8226,478,-48,16,17,27781,-8,0,5,0,36988,95,24,144,0,0,0,0,0,0,0,0,-32296,0,0,0,4233,0,30383,0
25164,-102,-8244,494,-51,18,17,27782,4,1,5,0,36983,104,24,144,0,0,0,0,0,0,0,0,-32297,0,0,0,4233,0,30403,0
25174,-130,-8226,520,-48,15,25,27780,0,-1,2,0,36981,107,24,144,0,0,0,0,0,0,0,0,-32296,0,0,0,4233,0,30423,0
25184,-52,-8176,520,-39,21,15,27781,-1,4,0,0,36985,108,24,144,0,0,0,0,0,0,0,0,-32296,0,0,0,4234,0,30443,0
25194,-112,-8258,540,-39,18,20,27780,-1,0,2,0,36991,95,24,144,0,0,0,0,0,0,0,0,-32297,0,0,0,4232,0,30463,0
25204,-94,-8224,626,-45,22,18,27780,-3,-2,0,0,36991,92,24,144,0,0,0,0,0,0,0,0,-32296,0,0,0,4234,0,30483,0
25214,-104,-8234,580,-53,16,25,27779,-4,-1,0,0,36989,98,24,144,0,0,0,0,0,0,0,0,-32296,0,0,0,4234,0,30503,0
25224,-88,-8240,544,-49,20,13,27779,1,2,0,0,36981,90,24,144,0,0,0,0,0,0,0,0,-32296,0,0,0,4234,0,30523,0
25234,-134,-8256,548,-45,13,17,27779,-1,1,0,0,36982,94,24,144,0,0,0,0,0,0,0,0,-32296,0,0,0,4233,0,30543,0
25244,-156,-8236,548,-56,13,10,27780,5,3,0,0,36985,95,24,144,0,0,0,0,0,0,0,0,-32296,0,0,0,4234,0,30563,0
25254,-136,-8238,532,-56,17,12,27779,-8,-2,0,0,36984,93,24,144,0,0,0,0,0,0,0,0,-32296,0,0,0,4232,0,30583,0
25264,-142,-8264,528,-59,14,10,27780,0,-3,0,0,36982,90,24,144,0,0,0,0,0,0,0,0,-32297,0,0,0,4232,0,30603,0
25274,-106,-8230,532,-49,17,3,27780,5,-3,-1,0,36980,88,24,144,0,0,0,0,0,0,0,0,-32296,0,0,0,4232,0,30624,0
25284,-116,-8226,596,-53,11,-6,27779,-1,2,0,0,36981,100,24,144,0,0,0,0,0,0,0,0,-32296,0,0,0,4234,0,30644,0
25294,-118,-8240,590,-60,15,0,27780,1,1,6,0,36988,99,24,144,0,0,0,0,0,0,0,0,-32296,0,0,0,4234,0,30663,0
25304,-92,-8228,558,-66,9,0,27779,-1,-3,3,0,36988,94,24,144,0,0,0,0,0,0,0,0,-32296,0,0,0,4233,0,30683,0
25314,-90,-8212,558,-58,8,-5,27777,-3,3,6,0,36987,91,24,144,0,0,0,0,0,0,0,0,-32296,0,0,0,4233,0,30703,0
25324,-132,-8272,546,-62,12,-3,27776,0,4,9,0,36980,91,24,144,0,0,0,0,0,0,0,0,-32296,0,0,0,4233,0,30724,0
25334,-108,-8252,534,-69,12,-2,27775,0,0,12,0,36979,102,24,144,0,0,0,0,0,0,0,0,-32296,0,0,0,4232,0,30744,0
25344,-72,-8202,478,-59,26,-12,27772,2,3,18,0,36981,98,24,144,0,0,0,0,0,0,0,0,-32296,0,0,0,4233,0,30764,0
25354,-88,-8266,496,-53,18,-11,27765,-18,-6,26,0,36981,96,24,144,0,0,0,0,0,0,0,0,-32296,0,0,0,4232,0,30784,0
25364,-112,-8242,546,-52,24,-7,27760,-18,-11,33,0,36978,94,24,144,0,0,0,0,0,0,0,0,-32296,0,0,0,4231,0,30804,0
25374,-62,-8172,556,-57,27,-13,27756,-5,3,24,0,36976,99,24,144,0,0,0,0,0,0,0,0,-32296,0,0,0,4232,0,30824,0
25384,-34,-8274,534,-54,22,1,27754,-5,11,11,0,36976,97,24,144,0,0,0,0,0,0,0,0,-32296,0,0,0,4231,0,30844,0
25394,-60,-8244,554,-51,17,3,27753,1,10,5,0,36978,95,24,144,0,0,0,0,0,0,0,0,-32296,0,0,0,4232,0,30864,0
25404,-104,-8218,518,-55,15,4,27753,-2,6,1,0,36981,95,24,144,0,0,0,0,0,0,0,0,-32296,0,0,0,4231,0,30884,0
25414,-108,-8236,526,-57,18,3,27753,2,2,2,0,36979,102,24,144,0,0,0,0,0,0,0,0,-32297,0,0,0,4231,0,30904,0
25424,-90,-8238,516,-65,18,9,27752,-1,1,1,0,36979,104,24,144,0,0,0,0,0,0,0,0,-32296,0,0,0,4231,0,30924,0
25434,-100,-8244,512,-57,21,5,27752,-3,-1,0,0,36976,113,24,144,0,0,0,0,0,0,0,0,-32296,0,0,0,4230,0,30944,0
25444,-66,-8254,530,-50,13,1,27752,4,1,0,0,36977,110,24,144,0,0,0,0,0,0,0,0,-32296,0,0,0,4232,0,30964,0
25454,-106,-8246,592,-55,14,7,27752,-5,0,0,0,36975,112,24,144,0,0,0,0,0,0,0,0,-32296,0,0,0,4231,0,30984,0
25464,-80,-8178,564,-62,16,11,27753,3,1,0,0,36976,117,24,144,0,0,0,0,0,0,0,0,-32296,0,0,0,4232,0,31004,0
25474,-72,-8218,486,-62,15,2,27752,0,4,0,0,36976,108,24,144,0,0,0,0,0,0,0,0,-32296,0,0,0,4230,0,31024,0
25484,-100,-8258,484,-53,16,9,27752,4,2,-1,0,36977,100,24,144,0,0,0,0,0,0,0,0,-32296,0,0,0,4230,0,31044,0
25494,-124,-8214,526,-57,15,9,27752,0,4,0,0,36975,94,24,144,0,0,0,0,0,0,0,0,-32296,0,0,0,4231,0,31063,0
25504,-152,-8234,518,-53,16,0,27752,2,3,-1,0,36975,101,24,144,0,0,0,0,0,0,0,0,-32297,0,0,0,4232,0,31083,0
25514,-90,-8264,518,-56,17,1,27752,-2,3,0,0,36981,96,24,144,0,0,0,0,0,0,0,0,-32297,0,0,0,4231,0,31103,0
25524,-66,-8212,538,-44,15,2,27751,-7,-1,2,0,36979,93,24,144,0,0,0,0,0,0,0,0,-32296,0,0,0,4231,0,31123,0
25534,-68,-8216,534,-46,20,0,27751,1,0,0,0,36983,83,24,144,0,0,0,0,0,0,0,0,-32296,0,0,0,4231,0,31143,0
25544,-80,-8262,554,-49,14,8,27750,2,-4,0,0,36979,101,24,144,0,0,0,0,0,0,0,0,-32296,0,0,0,4231,0,31163,0
25554,-70,-8218,554,-50,12,10,27751,3,-1,0,0,36981,102,24,144,0,0,0,0,0,0,0,0,-32296,0,0,0,4231,0,31183,0
25564,-62,-8220,520,-51,18,9,27749,-2,-3,0,0,36980,96,24,144,0,0,0,0,0,0,0,0,-32296,0,0,0,4231,0,31203,0
25574,-98,-8238,552,-46,17,9,27751,1,0,-1,0,36981,97,24,144,0,0,0,0,0,0,0,0,-32296,0,0,0,4231,0,31223,0
25584,-128,-8238,558,-52,11,16,27750,7,-3,-2,0,36978,96,24,144,0,0,0,0,0,0,0,0,-32297,0,0,0,4231,0,31243,0
25594,-108,-8226,522,-58,13,16,27750,6,4,0,0,36978,107,24,144,0,0,0,0,0,0,0,0,-32296,0,0,0,4230,0,31263,0
25604,-104,-8234,528,-54,17,8,27751,12,0,0,0,36978,111,24,144,0,0,0,0,0,0,0,0,-32296,0,0,0,4232,0,31283,0
25614,-92,-8222,534,-48,13,12,27749,-1,5,-1,0,36987,112,24,144,0,0,0,0,0,0,0,0,-32297,0,0,0,4232,0,31303,0
25624,-100,-8228,550,-53,9,5,27750,0,-2,-1,0,36986,118,24,144,0,0,0,0,0,0,0,0,-32296,0,0,0,4231,0,31323,0
25634,-116,-8242,566,-47,13,5,27750,-7,-3,-1,0,36986,113,24,144,0,0,0,0,0,0,0,0,-32296,0,0,0,4231,0,31343,0
25644,-88,-8256,578,-55,16,7,27751,3,-3,0,0,36984,104,24,144,0,0,0,0,0,0,0,0,-32296,0,0,0,4231,0,31363,0
25654,-106,-8230,538,-51,12,6,27750,-5,-1,-1,0,36984,105,24,144,0,0,0,0,0,0,0,0,-32296,0,0,0,4231,0,31383,0
25664,-86,-8240,532,-55,12,7,27750,3,3,-2,0,36986,101,24,144,0,0,0,0,0,0,0,0,-32297,0,0,0,4232,0,31403,0
25674,-90,-8302,562,-59,11,3,27749,-1,4,0,0,36981,103,24,144,0,0,0,0,0,0,0,0,-32296,0,0,0,4231,0,31423,0
25684,-52,-8200,504,-54,12,6,27751,4,4,-2,0,36980,98,24,144,0,0,0,0,0,0,0,0,-32297,0,0,0,4231,0,31443,0
25694,-64,-8236,486,-50,13,-3,27750,-1,-2,-1,0,36982,96,24,144,0,0,0,0,0,0,0,0,-32297,0,0,0,4231,0,31463,0
25704,-108,-8260,518,-49,15,8,27750,5,-2,-1,0,36986,98,24,144,0,0,0,0,0,0,0,0,-32296,0,0,0,4232,0,31483,0
25714,-110,-8222,548,-47,14,8,27750,5,2,-1,0,36984,100,24,144,0,0,0,0,0,0,0,0,-32296,0,0,0,4232,0,31503,0
25724,-82,-8222,532,-48,20,1,27750,3,4,-1,0,36988,110,24,144,0,0,0,0,0,0,0,0,-32297,0,0,0,4233,0,31523,0
25734,-70,-8226,536,-48,16,9,27750,0,0,0,0,36991,115,24,144,0,0,0,0,0,0,0,0,-32296,0,0,0,4231,0,31543,0
25744,-74,-8226,524,-46,14,10,27749,-8,-1,0,0,36995,111,24,144,0,0,0,0,0,0,0,0,-32296,0,0,0,4231,0,31563,0
25754,-110,-8222,570,-47,14,9,27750,-1,0,0,0,36994,107,24,144,0,0,0,0,0,0,0,0,-32297,0,0,0,4232,0,31583,0
25764,-114,-8240,536,-53,18,11,27749,-7,-2,0,0,36989,117,24,144,0,0,0,0,0,0,0,0,-32297,0,0,0,4230,0,31603,0
25774,-88,-8228,526,-47,17,13,27751,-2,-3,0,0,36985,117,24,144,0,0,0,0,0,0,0,0,-32297,0,0,0,4231,0,31623,0
25784,-72,-8258,536,-45,15,3,27750,1,-3,-2,0,36984,101,24,144,0,0,0,0,0,0,0,0,-32296,0,0,0,4231,0,31643,0
25794,-96,-8224,554,-50,11,6,27751,12,2,0,0,36985,100,24,144,0,0,0,0,0,0,0,0,-32296,0,0,0,4231,0,31663,0
25804,-100,-8244,522,-47,16,10,27750,-5,1,0,0,36986,100,24,144,0,0,0,0,0,0,0,0,-32297,0,0,0,4231,0,31683,0
25814,-110,-8226,518,-52,13,0,27751,0,3,-2,0,36985,106,24,144,0,0,0,0,0,0,0,0,-32296,0,0,0,4231,0,31703,0
25824,-78,-8218,556,-48,12,0,27748,-5,-4,-1,0,36986,102,24,144,0,0,0,0,0,0,0,0,-32296,0,0,0,4231,0,31723,0
25834,-102,-8244,558,-47,14,7,27750,0,-2,-1,0,36992,103,24,144,0,0,0,0,0,0,0,0,-32296,0,0,0,4231,0,31743,0
25844,-116,-8244,556,-51,15,1,27750,5,2,-1,0,36993,99,24,144,0,0,0,0,0,0,0,0,-32297,0,0,0,4232,0,31763,0
25854,-114,-8234,542,-49,16,0,27750,-7,1,2,0,36992,103,24,144,0,0,0,0,0,0,0,0,-32296,0,0,0,4232,0,31783,0
25864,-112,-8252,538,-47,10,6,27750,0,2,0,0,36988,104,24,144,0,0,0,0,0,0,0,0,-32296,0,0,0,4232,0,31803,0
25874,-104,-8234,562,-45,12,4,27750,-2,1,0,0,36989,113,24,144,0,0,0,0,0,0,0,0,-32296,0,0,0,4232,0,31823,0
25884,-94,-8246,536,-49,14,3,27749,-5,-4,-1,0,36989,113,24,144,0,0,0,0,0,0,0,0,-32297,0,0,0,4231,0,31843,0
25894,-70,-8220,526,-54,12,2,27749,1,-3,0,0,36988,110,24,144,0,0,0,0,0,0,0,0,-32296,0,0,0,4231,0,31863,0
25904,-94,-8232,518,-47,11,2,27750,0,-2,0,0,36990,109,24,144,0,0,0,0,0,0,0,0,-32297,0,0,0,4231,0,31883,0
25914,-76,-8212,540,-43,14,2,27749,3,-1,-1,0,36992,116,24,144,0,0,0,0,0,0,0,0,-32296,0,0,0,4231,0,31903,0
25924,-110,-8232,564,-50,13,5,27748,-2,-1,0,0,36991,116,24,144,0,0,0,0,0,0,0,0,-32296,0,0,0,4230,0,31923,0
25934,-84,-8232,570,-51,16,5,27749,-2,2,-3,0,36997,118,24,144,0,0,0,0,0,0,0,0,-32296,0,0,0,4232,0,31943,0
25944,-66,-8258,532,-42,15,4,27749,-4,0,0,0,36998,111,24,144,0,0,0,0,0,0,0,0,-32296,0,0,0,4232,0,31963,0
25954,-116,-8238,526,-44,15,5,27749,4,2,0,0,37002,117,24,144,0,0,0,0,0,0,0,0,-32296,0,0,0,4232,0,31983,0
25964,-112,-8236,530,-47,11,10,27749,0,-2,-2,0,36995,116,24,144,0,0,0,0,0,0,0,0,-32296,0,0,0,4230,0,32003,0
25974,-96,-8230,550,-51,18,7,27748,0,3,-1,0,36990,109,24,144,0,0,0,0,0,0,0,0,-32296,0,0,0,4231,0,32023,0
25984,-86,-8236,548,-45,15,6,27748,0,1,-1,0,36988,110,24,144,0,0,0,0,0,0,0,0,-32297,0,0,0,4230,0,32043,0
25994,-78,-8238,536,-48,13,9,27748,-4,0,-1,0,36989,111,24,144,0,0,0,0,0,0,0,0,-32297,0,0,0,4232,0,32063,0
26004,-86,-8216,536,-50,16,10,27749,3,1,0,0,36990,109,24,144,0,0,0,0,0,0,0,0,-32297,0,0,0,4231,0,32083,0
26014,-102,-8232,528,-47,13,3,27748,2,-4,-2,0,36990,109,24,144,0,0,0,0,0,0,0,0,-32296,0,0,0,4230,0,32103,0
26024,-124,-8222,542,-51,12,9,27748,3,1,0,0,36991,110,24,144,0,0,0,0,0,0,0,0,-32297,0,0,0,4231,0,32123,0
26034,-124,-8220,552,-46,12,5,27748,5,2,-2,0,36992,106,24,144,0,0,0,0,0,0,0,0,-32297,0,0,0,4231,0,32143,0
26044,-64,-8242,538,-49,11,6,27748,-1,-4,0,0,36991,99,24,144,0,0,0,0,0,0,0,0,-32298,0,0,0,4231,0,32163,0
26054,-106,-8248,552,-48,16,7,27747,-6,-1,-1,0,36992,99,24,144,0,0,0,0,0,0,0,0,-32296,0,0,0,4231,0,32183,0
26064,-76,-8222,544,-50,16,7,27748,-6,-2,-1,0,36990,108,24,144,0,0,0,0,0,0,0,0,-32296,0,0,0,4230,0,32203,0
26074,-64,-8252,512,-56,17,7,27748,-1,3,0,0,36990,107,24,144,0,0,0,0,0,0,0,0,-32296,0,0,0,4231,0,32223,0
26084,-82,-8238,540,-47,15,13,27748,3,1,-1,0,36987,101,24,144,0,0,0,0,0,0,0,0,-32296,0,0,0,4233,0,32243,0
26094,-88,-8232,542,-54,12,15,27748,1,3,-2,0,36986,103,24,144,0,0,0,0,0,0,0,0,-32297,0,0,0,4231,0,32263,0
26104,-98,-8210,516,-50,16,11,27748,5,0,0,0,36990,114,24,144,0,0,0,0,0,0,0,0,-32297,0,0,0,4232,0,32283,0
26114,-84,-8220,548,-50,17,13,27747,-3,1,-3,0,37001,121,24,144,0,0,0,0,0,0,0,0,-32296,0,0,0,4231,0,32303,0
26124,-118,-8242,540,-54,15,12,27748,-3,1,0,0,37011,123,24,144,0,0,0,0,0,0,0,0,-32297,0,0,0,4232,0,32323,0
26134,-108,-8226,538,-50,19,8,27748,0,-1,-2,0,37013,116,24,144,0,0,0,0,0,0,0,0,-32297,0,0,0,4231,0,32343,0
26144,-106,-8236,538,-50,15,13,27747,0,-1,-1,0,37003,106,24,144,0,0,0,0,0,0,0,0,-32296,0,0,0,4231,0,32363,0
26154,-108,-8252,550,-52,15,12,27748,-1,-2,0,0,36996,99,24,144,0,0,0,0,0,0,0,0,-32297,0,0,0,4231,0,32383,0
26164,-92,-8224,570,-56,16,13,27749,1,-3,-2,0,36990,94,24,144,0,0,0,0,0,0,0,0,-32297,0,0,0,4232,0,32403,0
26174,-62,-8204,562,-53,14,13,27749,-1,-3,-1,0,36984,101,24,144,0,0,0,0,0,0,0,0,-32297,0,0,0,4232,0,32423,0
26184,-64,-8262,548,-55,13,17,27747,-2,2,-1,0,36980,100,24,144,0,0,0,0,0,0,0,0,-32296,0,0,0,4231,0,32443,0
26194,-104,-8200,530,-49,12,16,27748,-1,1,-2,0,36981,96,24,144,0,0,0,0,0,0,0,0,-32297,0,0,0,4231,0,32463,0
26204,-102,-8240,548,-52,15,13,27748,-4,4,-2,0,36983,92,24,144,0,0,0,0,0,0,0,0,-32296,0,0,0,4230,0,32483,0
26214,-112,-8268,538,-54,17,19,27747,-6,-3,-2,0,36984,101,24,144,0,0,0,0,0,0,0,0,-32297,0,0,0,4232,0,32503,0
26224,-102,-8240,554,-57,11,14,27749,4,6,-1,0,36981,100,24,144,0,0,0,0,0,0,0,0,-32296,0,0,0,4232,0,32523,0
26234,-128,-8222,534,-54,17,7,27749,-6,-4,-1,0,36980,103,24,144,0,0,0,0,0,0,0,0,-32297,0,0,0,4232,0,32543,0
26244,-120,-8250,548,-54,16,12,27750,3,-3,0,0,36986,110,24,144,0,0,0,0,0,0,0,0,-32296,0,0,0,4232,0,32563,0
26254,-94,-8244,516,-57,12,8,27748,-1,1,0,0,36989,116,24,144,0,0,0,0,0,0,0,0,-32297,0,0,0,4231,0,32584,0
26264,-116,-8222,528,-52,13,7,27748,-2,-3,-2,0,36985,111,24,144,0,0,0,0,0,0,0,0,-32296,0,0,0,4231,0,32604,0
26274,-92,-8238,548,-57,16,10,27748,-3,3,1,0,36978,100,24,144,0,0,0,0,0,0,0,0,-32296,0,0,0,4231,0,32624,0
26284,-106,-8232,532,-51,12,11,27749,0,-3,-2,0,36981,100,24,144,0,0,0,0,0,0,0,0,-32296,0,0,0,4231,0,32644,0
26294,-88,-8254,532,-51,18,5,27749,5,2,0,0,36983,102,24,144,0,0,0,0,0,0,0,0,-32296,0,0,0,4231,0,32664,0
26304,-104,-8246,536,-56,17,9,27748,-3,0,0,0,36982,97,24,144,0,0,0,0,0,0,0,0,-32297,0,0,0,4232,0,32684,0
26314,-98,-8228,536,-51,18,11,27751,8,2,1,0,36979,94,24,144,0,0,0,0,0,0,0,0,-32296,0,0,0,4232,0,32704,0
26324,-82,-8196,528,-52,14,7,27749,2,1,0,0,36978,97,24,144,0,0,0,0,0,0,0,0,-32296,0,0,0,4232,0,32724,0
26334,-100,-8264,540,-54,15,8,27748,0,1,0,0,36979,94,24,144,0,0,0,0,0,0,0,0,-32297,0,0,0,4232,0,32744,0
26344,-88,-8206,530,-53,14,5,27747,0,1,1,0,36988,82,24,144,0,0,0,0,0,0,0,0,-32296,0,0,0,4231,0,32764,0
26354,-78,-8212,532,-56,9,3,27749,-3,3,0,0,36992,82,24,144,0,0,0,0,0,0,0,0,-32296,0,0,0,4232,0,32784,0
26364,-98,-8246,544,-47,10,4,27750,4,-3,-2,0,36991,88,24,144,0,0,0,0,0,0,0,0,-32297,0,0,0,4232,0,32805,0
26374,-114,-8240,540,-51,14,10,27749,0,3,-2,0,36987,95,24,144,0,0,0,0,0,0,0,0,-32296,0,0,0,4232,0,32825,0
26384,-120,-8248,530,-55,14,4,27749,4,5,-2,0,36977,110,24,144,0,0,0,0,0,0,0,0,-32297,0,0,0,4232,0,32845,0
26394,-102,-8242,556,-50,9,6,27749,4,1,-1,0,36978,102,24,144,0,0,0,0,0,0,0,0,-32296,0,0,0,4233,0,32865,0
26404,-70,-8226,532,-53,12,1,27750,5,3,0,0,36979,110,24,144,0,0,0,0,0,0,0,0,-32296,0,0,0,4231,0,32885,0
26414,-112,-8232,530,-50,14,6,27748,-6,-3,0,0,36978,106,24,144,0,0,0,0,0,0,0,0,-32296,0,0,0,4232,0,32905,0
26424,-50,-8238,520,-57,16,3,27748,-5,-3,-1,0,36976,103,24,144,0,0,0,0,0,0,0,0,-32296,0,0,0,4231,0,32925,0
26434,-100,-8236,558,-55,9,5,27748,7,1,-1,0,36976,104,24,144,0,0,0,0,0,0,0,0,-32297,0,0,0,4232,0,32945,0
26444,-78,-8234,532,-55,10,6,27750,5,1,-1,0,36977,101,24,144,0,0,0,0,0,0,0,0,-32296,0,0,0,4232,0,32965,0
26454,-120,-8224,534,-52,13,-2,27749,-2,0,-1,0,36986,96,24,144,0,0,0,0,0,0,0,0,-32296,0,0,0,4232,0,32985,0
26464,-88,-8248,544,-53,10,3,27749,3,-1,-2,0,36985,99,24,144,0,0,0,0,0,0,0,0,-32296,0,0,0,4232,0,33005,0
26474,-128,-8248,542,-53,12,4,27748,-1,2,-1,0,36984,105,24,144,0,0,0,0,0,0,0,0,-32296,0,0,0,4232,0,33025,0
26484,-88,-8214,528,-48,16,1,27749,3,2,-1,0,36978,103,24,144,0,0,0,0,0,0,0,0,-32296,0,0,0,4232,0,33045,0
26494,-76,-8270,538,-46,17,1,27748,-3,2,0,0,36976,99,24,144,0,0,0,0,0,0,0,0,-32296,0,0,0,4232,0,33065,0
26504,-102,-8214,566,-54,13,2,27748,0,0,-1,0,36978,99,24,144,0,0,0,0,0,0,0,0,-32296,0,0,0,4231,0,33085,0
26514,-98,-8232,528,-48,15,2,27749,8,-4,-1,0,36979,109,24,144,0,0,0,0,0,0,0,0,-32297,0,0,0,4232,0,33105,0
26524,-80,-8234,528,-55,12,5,27747,-2,-1,-1,0,36978,108,24,144,0,0,0,0,0,0,0,0,-32296,0,0,0,4231,0,33125,0
26534,-100,-8230,546,-51,9,1,27748,-1,1,-3,0,36979,107,24,144,0,0,0,0,0,0,0,0,-32296,0,0,0,4232,0,33145,0
26544,-86,-8228,512,-50,10,4,27749,-2,-1,-1,0,36981,104,24,144,0,0,0,0,0,0,0,0,-32296,0,0,0,4231,0,33165,0
26554,-98,-8250,548,-51,18,1,27748,1,-2,0,0,36984,105,24,144,0,0,0,0,0,0,0,0,-32297,0,0,0,4231,0,33185,0
26564,-84,-8232,550,-48,18,2,27748,2,2,1,0,36988,106,24,144,0,0,0,0,0,0,0,0,-32296,0,0,0,4232,0,33205,0
26574,-98,-8236,514,-49,14,-1,27749,3,0,0,0,36988,109,24,144,0,0,0,0,0,0,0,0,-32297,0,0,0,4232,0,33225,0
26584,-118,-8236,542,-47,14,3,27749,2,1,-1,0,36986,109,24,144,0,0,0,0,0,0,0,0,-32296,0,0,0,4230,0,33245,0
26594,-110,-8234,528,-46,17,3,27748,0,-1,-1,0,36979,99,24,144,0,0,0,0,0,0,0,0,-32296,0,0,0,4232,0,33265,0
26604,-92,-8248,528,-55,13,4,27749,0,-1,0,0,36977,98,24,144,0,0,0,0,0,0,0,0,-32297,0,0,0,4230,0,33285,0
26614,-86,-8254,508,-49,17,5,27749,2,2,0,0,36978,100,24,144,0,0,0,0,0,0,0,0,-32296,0,0,0,4232,0,33305,0
26624,-102,-8228,536,-46,14,7,27749,1,-1,0,0,36981,108,24,144,0,0,0,0,0,0,0,0,-32296,0,0,0,4231,0,33325,0
26634,-112,-8226,554,-44,14,3,27747,0,-1,-1,0,36983,104,24,144,0,0,0,0,0,0,0,0,-32296,0,0,0,4231,0,33345,0
26644,-98,-8228,512,-49,15,3,27748,-3,-4,0,0,36982,94,24,144,0,0,0,0,0,0,0,0,-32296,0,0,0,4231,0,33365,0
26654,-74,-8204,496,-49,14,2,27747,-3,-1,-1,0,36981,92,24,144,0,0,0,0,0,0,0,0,-32296,0,0,0,4232,0,33385,0
26664,-86,-8226,518,-43,12,4,27748,3,-2,1,0,36988,98,24,144,0,0,0,0,0,0,0,0,-32296,0,0,0,4232,0,33405,0
26674,-120,-8242,546,-48,15,0,27748,2,3,0,0,36986,92,24,144,0,0,0,0,0,0,0,0,-32296,0,0,0,4231,0,33425,0
26684,-98,-8224,566,-47,13,3,27748,-2,0,-1,0,36984,94,24,144,0,0,0,0,0,0,0,0,-32297,0,0,0,4232,0,33445,0
26694,-106,-8224,566,-48,12,5,27748,6,1,0,0,36983,100,24,144,0,0,0,0,0,0,0,0,-32297,0,0,0,4231,0,33465,0
26704,-102,-8262,524,-49,12,4,27748,5,1,0,0,36984,107,24,144,0,0,0,0,0,0,0,0,-32296,0,0,0,4232,0,33485,0
26714,-72,-8224,546,-54,12,3,27746,-4,-3,-2,0,36984,107,24,144,0,0,0,0,0,0,0,0,-32296,0,0,0,4231,0,33505,0
26724,-100,-8230,504,-51,13,0,27747,2,2,-1,0,36982,103,24,144,0,0,0,0,0,0,0,0,-32296,0,0,0,4232,0,33525,0
26734,-92,-8256,514,-50,16,2,27747,-3,2,-2,0,36981,107,24,144,0,0,0,0,0,0,0,0,-32297,0,0,0,4232,0,33545,0
26744,-76,-8214,536,-47,12,4,27749,7,5,1,0,36985,104,24,144,0,0,0,0,0,0,0,0,-32296,0,0,0,4231,0,33565,0
26754,-76,-8220,530,-50,12,7,27747,0,0,0,0,36987,102,24,144,0,0,0,0,0,0,0,0,-32296,0,0,0,4230,0,33585,0
26764,-50,-8242,542,-48,16,5,27748,3,5,-2,0,36987,100,24,144,0,0,0,0,0,0,0,0,-32296,0,0,0,4233,0,33605,0
26774,-76,-8230,526,-49,17,9,27748,2,1,0,0,36991,107,24,144,0,0,0,0,0,0,0,0,-32296,0,0,0,4232,0,33625,0
26784,-76,-8216,536,-46,16,15,27747,1,2,-3,0,36989,109,24,144,0,0,0,0,0,0,0,0,-32296,0,0,0,4231,0,33645,0
26794,-98,-8262,526,-44,10,12,27747,0,-2,0,0,36991,104,24,144,0,0,0,0,0,0,0,0,-32296,0,0,0,4231,0,33665,0
26804,-98,-8210,544,-48,17,9,27747,3,1,0,0,36985,98,24,144,0,0,0,0,0,0,0,0,-32296,0,0,0,4232,0,33685,0
26814,-86,-8248,528,-45,16,9,27746,-2,4,-2,0,36986,95,24,144,0,0,0,0,0,0,0,0,-32296,0,0,0,4231,0,33705,0
26824,-86,-8236,574,-49,14,7,27747,-1,-2,0,0,36984,103,24,144,0,0,0,0,0,0,0,0,-32296,0,0,0,4231,0,33725,0
26834,-110,-8222,572,-45,14,11,27747,0,0,-1,0,36984,106,24,144,0,0,0,0,0,0,0,0,-32296,0,0,0,4231,0,33745,0
26844,-116,-8236,546,-48,16,15,27747,-2,-2,0,0,36987,98,24,144,0,0,0,0,0,0,0,0,-32296,0,0,0,4231,0,33765,0
26854,-90,-8236,526,-52,13,10,27747,1,4,0,0,36987,93,24,144,0,0,0,0,0,0,0,0,-32296,0,0,0,4231,0,33785,0
26864,-100,-8252,552,-47,15,8,27748,0,-1,-3,0,36987,97,24,144,0,0,0,0,0,0,0,0,-32296,0,0,0,4231,0,33805,0
26874,-94,-8224,536,-53,12,11,27746,-3,2,-1,0,36995,107,24,144,0,0,0,0,0,0,0,0,-32296,0,0,0,4231,0,33825,0
26884,-116,-8254,566,-46,13,3,27748,0,2,-3,0,36996,115,24,144,0,0,0,0,0,0,0,0,-32296,0,0,0,4231,0,33845,0
26894,-100,-8258,560,-54,13,7,27747,0,1,-1,0,36995,107,24,144,0,0,0,0,0,0,0,0,-32296,0,0,0,4231,0,33865,0
26904,-120,-8230,556,-49,11,8,27747,1,-2,0,0,36987,110,24,144,0,0,0,0,0,0,0,0,-32296,0,0,0,4231,0,33885,0
26914,-102,-8234,530,-54,18,4,27748,3,-6,-3,0,36989,114,24,144,0,0,0,0,0,0,0,0,-32296,0,0,0,4231,0,33905,0
26924,-112,-8252,542,-53,10,8,27749,4,0,-1,0,36991,110,24,144,0,0,0,0,0,0,0,0,-32296,0,0,0,4232,0,33925,0
26934,-100,-8242,534,-54,14,6,27746,-1,1,0,0,36990,104,24,144,0,0,0,0,0,0,0,0,-32296,0,0,0,4231,0,33945,0
26944,-108,-8252,534,-53,12,8,27748,3,4,-1,0,36989,101,24,144,0,0,0,0,0,0,0,0,-32296,0,0,0,4232,0,33965,0
26954,-112,-8252,538,-50,13,7,27747,-5,-4,0,0,36989,102,24,144,0,0,0,0,0,0,0,0,-32297,0,0,0,4231,0,33985,0
26964,-120,-8208,534,-49,18,3,27747,-2,0,-1,0,36991,95,24,144,0,0,0,0,0,0,0,0,-32296,0,0,0,4230,0,34006,0
26974,-88,-8226,576,-54,16,3,27746,-2,1,0,0,36996,97,24,144,0,0,0,0,0,0,0,0,-32296,0,0,0,4232,0,34025,0
26984,-110,-8262,542,-56,16,7,27749,7,-6,-1,0,36999,99,24,144,0,0,0,0,0,0,0,0,-32296,0,0,0,4231,0,34045,0
26994,-90,-8238,550,-50,11,-2,27747,0,4,0,0,36997,110,24,144,0,0,0,0,0,0,0,0,-32296,0,0,0,4230,0,34066,0
27004,-106,-8228,544,-53,13,1,27746,-4,-1,0,0,36995,103,24,144,0,0,0,0,0,0,0,0,-32296,0,0,0,4232,0,34086,0
27014,-102,-8248,520,-53,14,6,27746,-5,-1,-2,0,36988,99,24,144,0,0,0,0,0,0,0,0,-32297,0,0,0,4232,0,34106,0
27024,-60,-8216,554,-53,15,5,27747,-1,-1,0,0,36988,102,24,144,0,0,0,0,0,0,0,0,-32296,0,0,0,4232,0,34126,0
27034,-76,-8202,548,-54,18,4,27745,-10,-1,-1,0,36989,103,24,144,0,0,0,0,0,0,0,0,-32296,0,0,0,4231,0,34146,0
27044,-94,-8254,514,-48,17,13,27746,-2,2,-2,0,36988,107,24,144,0,0,0,0,0,0,0,0,-32298,0,0,0,4232,0,34166,0
27054,-72,-8232,586,-51,16,5,27748,4,3,1,0,36990,105,24,144,0,0,0,0,0,0,0,0,-32296,0,0,0,4231,0,34186,0
27064,-74,-8226,558,-56,13,13,27747,6,3,-1,0,36992,105,24,144,0,0,0,0,0,0,0,0,-32297,0,0,0,4231,0,34206,0
27074,-84,-8242,554,-52,15,9,27747,-5,1,0,0,36990,112,24,144,0,0,0,0,0,0,0,0,-32296,0,0,0,4230,0,34226,0
27084,-72,-8232,528,-52,13,15,27748,5,-5,-3,0,36992,110,24,144,0,0,0,0,0,0,0,0,-32297,0,0,0,4231,0,34246,0
27094,-94,-8232,516,-55,12,17,27748,5,-2,-1,0,36992,103,24,144,0,0,0,0,0,0,0,0,-32296,0,0,0,4231,0,34267,0
27104,-116,-8218,548,-53,13,8,27747,-5,-3,0,0,36994,103,24,144,0,0,0,0,0,0,0,0,-32297,0,0,0,4232,0,34287,0
27114,-126,-8218,536,-55,14,12,27747,0,2,-4,0,36989,94,24,144,0,0,0,0,0,0,0,0,-32297,0,0,0,4231,0,34307,0
27124,-100,-8238,540,-53,17,9,27747,-6,0,-1,0,36985,91,24,144,0,0,0,0,0,0,0,0,-32296,0,0,0,4230,0,34327,0
27134,-98,-8226,548,-51,19,12,27748,2,-2,0,0,36984,91,24,144,0,0,0,0,0,0,0,0,-32296,0,0,0,4230,0,34347,0
27144,-106,-8220,558,-56,11,6,27748,0,-1,-1,0,36985,95,24,144,0,0,0,0,0,0,0,0,-32296,0,0,0,4230,0,34367,0
27154,-112,-8248,534,-53,14,7,27749,8,-2,0,0,36986,93,24,144,0,0,0,0,0,0,0,0,-32296,0,0,0,4231,0,34387,0
27164,-108,-8246,542,-54,16,9,27748,-1,-4,-2,0,36989,101,24,144,0,0,0,0,0,0,0,0,-32297,0,0,0,4230,0,34407,0
27174,-118,-8238,526,-54,14,9,27746,-4,0,0,0,36989,116,24,144,0,0,0,0,0,0,0,0,-32296,0,0,0,4230,0,34428,0
27184,-114,-8230,556,-54,14,8,27747,0,-2,0,0,36989,127,24,144,0,0,0,0,0,0,0,0,-32296,0,0,0,4230,0,34448,0
27194,-112,-8242,546,-55,13,2,27747,0,-3,-2,0,36988,119,24,144,0,0,0,0,0,0,0,0,-32296,0,0,0,4230,0,34468,0
27204,-112,-8222,524,-53,9,1,27746,-3,2,0,0,36987,116,24,144,0,0,0,0,0,0,0,0,-32296,0,0,0,4231,0,34488,0
27214,-124,-8222,548,-57,18,5,27747,-3,-1,-2,0,36988,115,24,144,0,0,0,0,0,0,0,0,-32296,0,0,0,4231,0,34508,0
