state_time,accelx,accely,accelz,gyrox,gyroy,gyroz,mot_ang,mot_vel,mot_acc,mot_cur,mot_volt,batt_volt,batt_curr,temperature,status_mn,status_ex,status_re,genvar_0,genvar_1,genvar_2,genvar_3,genvar_4,genvar_5,genvar_6,genvar_7,genvar_8,genvar_9,ank_ang,ank_vel,sys_time,event flags
8639,-326,-8172,1016,-51,15,4,12213,-2,-1,-6,0,36931,97,23,144,0,0,0,0,0,0,0,0,-32297,0,0,0,4303,0,2580,0
8649,-296,-8184,1000,-47,9,9,12212,-3,5,-4,0,36933,85,23,144,0,0,0,0,0,0,0,0,-32297,0,0,0,4303,0,8639,0
8659,-318,-8164,1000,-46,12,8,12213,1,-1,-5,0,36932,106,23,144,0,0,0,0,0,0,0,0,-32297,0,0,0,4303,0,8639,0
8669,-312,-8186,1018,-45,16,11,12212,3,-2,-3,0,36936,115,23,144,0,0,0,0,0,0,0,0,-32297,0,0,0,4303,0,8639,0
8679,-336,-8184,1026,-49,15,10,12213,7,2,-6,0,36930,123,23,144,0,0,0,0,0,0,0,0,-32297,0,0,0,4304,0,8639,0
8689,-346,-8190,1018,-50,15,8,12214,1,2,-3,0,36929,111,23,144,0,0,0,0,0,0,0,0,-32297,0,0,0,4303,0,8639,0
8699,-348,-8170,996,-48,22,6,12213,7,3,-4,0,36930,109,23,144,0,0,0,0,0,0,0,0,-32297,0,0,0,4303,0,8639,0
8709,-328,-8234,1004,-45,18,4,12211,-7,0,-5,0,36930,110,23,144,0,0,0,0,0,0,0,0,-32297,0,0,0,4302,0,8639,0
8719,-312,-8172,1016,-51,16,11,12212,-5,-4,-3,0,36928,115,23,144,0,0,0,0,0,0,0,0,-32297,0,0,0,4303,0,8639,0
8729,-330,-8160,1004,-45,13,6,12213,0,-1,-4,0,36927,123,23,144,0,0,0,0,0,0,0,0,-32297,0,0,0,4303,0,8639,0
8739,-348,-8196,988,-47,10,2,12214,5,4,-3,0,36932,119,23,144,0,0,0,0,0,0,0,0,-32297,0,0,0,4304,0,8639,0
8749,-310,-8170,1004,-52,15,0,12212,-5,-6,-3,0,36935,123,23,144,0,0,0,0,0,0,0,0,-32297,0,0,0,4303,0,8639,0
8759,-320,-8184,1002,-50,19,3,12212,3,-3,-6,0,36934,128,23,144,0,0,0,0,0,0,0,0,-32297,0,0,0,4302,0,8640,0
8769,-302,-8204,1016,-50,14,6,12212,-9,-2,-5,0,36929,125,23,144,0,0,0,0,0,0,0,0,-32297,0,0,0,4303,0,8650,0
8779,-302,-8182,1042,-47,18,9,12213,2,-6,-4,0,36930,117,23,144,0,0,0,0,0,0,0,0,-32297,0,0,0,4304,0,8660,0
8789,-286,-8196,1038,-54,13,9,12214,1,3,-4,0,36934,120,23,144,0,0,0,0,0,0,0,0,-32298,0,0,0,4302,0,8670,0
8799,-300,-8202,1008,-50,18,11,12213,6,0,-4,0,36936,122,23,144,0,0,0,0,0,0,0,0,-32297,0,0,0,4303,0,8680,0
8809,-300,-8162,1002,-54,13,14,12212,-2,1,-6,0,36934,128,23,144,0,0,0,0,0,0,0,0,-32297,0,0,0,4302,0,8690,0
8819,-320,-8172,1000,-52,12,11,12212,-5,-2,-2,0,36933,123,23,144,0,0,0,0,0,0,0,0,-32297,0,0,0,4302,0,8700,0
8829,-338,-8152,974,-48,15,16,12213,0,1,-5,0,36940,117,23,144,0,0,0,0,0,0,0,0,-32297,0,0,0,4303,0,8710,0
8839,-356,-8192,990,-52,15,7,12211,0,7,-4,0,36943,119,23,144,0,0,0,0,0,0,0,0,-32297,0,0,0,4302,0,8730,0
8849,-348,-8186,968,-46,16,6,12212,-19,-7,-3,0,36940,117,23,144,0,0,0,0,0,0,0,0,-32297,0,0,0,4303,0,8750,0
8859,-314,-8184,980,-48,16,9,12212,-4,-1,-6,0,36934,119,23,144,0,0,0,0,0,0,0,0,-32297,0,0,0,4303,0,8771,0
8869,-356,-8172,1018,-47,13,7,12212,0,0,-3,0,36939,118,23,144,0,0,0,0,0,0,0,0,-32297,0,0,0,4303,0,8787,0
8879,-340,-8196,1010,-46,15,9,12211,0,0,-4,0,36946,121,23,144,0,0,0,0,0,0,0,0,-32297,0,0,0,4303,0,8797,0
8889,-306,-8188,998,-49,15,8,12213,0,1,-5,0,36944,118,23,144,0,0,0,0,0,0,0,0,-32297,0,0,0,4304,0,8807,0
8899,-334,-8212,1008,-51,17,3,12213,-2,-2,-3,0,36935,116,24,144,0,0,0,0,0,0,0,0,-32297,0,0,0,4302,0,8817,0
8909,-326,-8180,1006,-52,17,5,12212,-4,2,-6,0,36934,117,23,144,0,0,0,0,0,0,0,0,-32297,0,0,0,4303,0,8827,0
8919,-332,-8164,998,-43,18,2,12212,1,1,-5,0,36940,125,23,144,0,0,0,0,0,0,0,0,-32297,0,0,0,4303,0,8847,0
8929,-334,-8162,1008,-51,15,6,12212,0,-5,-4,0,36947,128,23,144,0,0,0,0,0,0,0,0,-32297,0,0,0,4302,0,8858,0
8939,-348,-8146,1028,-51,14,5,12212,3,4,-4,0,36943,123,23,144,0,0,0,0,0,0,0,0,-32297,0,0,0,4303,0,8868,0
8949,-344,-8198,1028,-54,12,7,12211,-5,0,-5,0,36942,118,23,144,0,0,0,0,0,0,0,0,-32298,0,0,0,4304,0,8879,0
8959,-336,-8198,1014,-51,13,4,12211,-1,-4,-5,0,36941,120,23,144,0,0,0,0,0,0,0,0,-32298,0,0,0,4303,0,8890,0
8969,-348,-8174,1030,-58,10,0,12214,1,4,-4,0,36943,124,23,144,0,0,0,0,0,0,0,0,-32297,0,0,0,4303,0,8900,0
8979,-310,-8176,980,-57,19,0,12213,3,-2,-4,0,36941,120,23,144,0,0,0,0,0,0,0,0,-32297,0,0,0,4303,0,8910,0
8989,-272,-8164,976,-56,18,2,12212,4,-4,-5,0,36937,117,23,144,0,0,0,0,0,0,0,0,-32297,0,0,0,4303,0,8920,0
8999,-290,-8162,990,-52,14,7,12214,5,6,-3,0,36935,105,23,144,0,0,0,0,0,0,0,0,-32297,0,0,0,4302,0,8933,0
9009,-298,-8178,1022,-50,15,10,12212,0,-2,-5,0,36940,108,23,144,0,0,0,0,0,0,0,0,-32298,0,0,0,4303,0,8943,0
9019,-316,-8170,1020,-55,14,2,12212,-4,-3,-4,0,36944,120,23,144,0,0,0,0,0,0,0,0,-32297,0,0,0,4304,0,8953,0
9029,-318,-8172,996,-50,23,7,12213,2,1,-5,0,36949,120,23,144,0,0,0,0,0,0,0,0,-32297,0,0,0,4303,0,8963,0
9039,-300,-8186,1020,-56,15,10,12212,-7,-2,-4,0,36946,110,23,144,0,0,0,0,0,0,0,0,-32297,0,0,0,4303,0,8975,0
9049,-292,-8178,1014,-52,13,19,12213,12,0,-4,0,36948,116,23,144,0,0,0,0,0,0,0,0,-32297,0,0,0,4304,0,8985,0
9059,-320,-8188,996,-56,17,18,12211,-18,4,-5,0,36948,130,23,144,0,0,0,0,0,0,0,0,-32297,0,0,0,4303,0,8995,0
9069,-332,-8152,1008,-54,18,12,12214,5,-2,-4,0,36945,135,23,144,0,0,0,0,0,0,0,0,-32297,0,0,0,4303,0,9005,0
9079,-330,-8184,1014,-53,19,14,12212,0,-1,-4,0,36936,124,23,144,0,0,0,0,0,0,0,0,-32297,0,0,0,4304,0,9018,0
9089,-332,-8176,1016,-52,17,18,12212,-3,-4,-4,0,36936,120,23,144,0,0,0,0,0,0,0,0,-32297,0,0,0,4303,0,9028,0
9099,-310,-8166,994,-56,15,16,12212,-18,-5,-3,0,36939,127,23,144,0,0,0,0,0,0,0,0,-32297,0,0,0,4304,0,9038,0
9109,-368,-8174,1010,-54,14,22,12212,2,-7,-5,0,36941,129,23,144,0,0,0,0,0,0,0,0,-32297,0,0,0,4303,0,9049,0
9119,-362,-8178,988,-50,12,18,12212,-9,4,-6,0,36937,123,23,144,0,0,0,0,0,0,0,0,-32297,0,0,0,4305,0,9061,0
9129,-380,-8176,1026,-51,13,10,12212,0,-6,-6,0,36933,107,23,144,0,0,0,0,0,0,0,0,-32297,0,0,0,4304,0,9071,0
9139,-364,-8170,1036,-56,20,5,12214,5,5,-5,0,36943,100,23,144,0,0,0,0,0,0,0,0,-32297,0,0,0,4304,0,9081,0
9149,-320,-8162,1022,-55,16,5,12214,3,2,-3,0,36945,106,23,144,0,0,0,0,0,0,0,0,-32297,0,0,0,4305,0,9093,0
9159,-324,-8166,1022,-58,17,4,12215,8,8,-6,0,36943,123,23,144,0,0,0,0,0,0,0,0,-32298,0,0,0,4305,0,9104,0
9169,-318,-8198,990,-51,10,4,12214,-1,1,-6,0,36937,114,23,144,0,0,0,0,0,0,0,0,-32297,0,0,0,4304,0,9114,0
9179,-330,-8192,988,-53,14,4,12211,-2,-4,-6,0,36942,119,23,144,0,0,0,0,0,0,0,0,-32297,0,0,0,4305,0,9124,0
9189,-296,-8142,1000,-52,21,9,12211,-8,4,-6,0,36945,117,23,144,0,0,0,0,0,0,0,0,-32297,0,0,0,4304,0,9135,0
9199,-294,-8196,978,-55,16,6,12212,-1,-4,-3,0,36940,117,23,144,0,0,0,0,0,0,0,0,-32297,0,0,0,4305,0,9146,0
9209,-336,-8158,1006,-47,20,13,12213,3,3,-3,0,36937,115,23,144,0,0,0,0,0,0,0,0,-32297,0,0,0,4303,0,9157,0
9219,-348,-8178,1032,-53,13,8,12211,-5,-4,-7,0,36938,111,23,144,0,0,0,0,0,0,0,0,-32297,0,0,0,4304,0,9167,0
9229,-330,-8208,994,-55,14,7,12214,9,0,-5,0,36940,107,23,144,0,0,0,0,0,0,0,0,-32297,0,0,0,4303,0,9177,0
9239,-332,-8198,998,-55,18,9,12211,-9,-2,-6,0,36944,125,23,144,0,0,0,0,0,0,0,0,-32297,0,0,0,4304,0,9190,0
9249,-336,-8174,1008,-50,20,4,12212,-8,-3,-4,0,36944,132,23,144,0,0,0,0,0,0,0,0,-32297,0,0,0,4305,0,9200,0
9259,-340,-8198,1008,-53,10,6,12213,-1,-2,-5,0,36949,136,23,144,0,0,0,0,0,0,0,0,-32297,0,0,0,4304,0,9210,0
9269,-334,-8186,994,-57,18,1,12213,0,-1,-6,0,36945,120,23,144,0,0,0,0,0,0,0,0,-32297,0,0,0,4304,0,9218,0
9279,-306,-8138,998,-50,15,-1,12212,3,4,-5,0,36944,115,23,144,0,0,0,0,0,0,0,0,-32297,0,0,0,4304,0,9232,0
9289,-312,-8180,996,-53,8,6,12210,-4,-3,-4,0,36936,120,23,144,0,0,0,0,0,0,0,0,-32297,0,0,0,4304,0,9241,0
9299,-324,-8208,1020,-52,15,2,12212,0,1,-3,0,36931,111,23,144,0,0,0,0,0,0,0,0,-32297,0,0,0,4304,0,9251,0
9309,-304,-8164,996,-56,18,6,12212,-10,-1,-4,0,36935,112,23,144,0,0,0,0,0,0,0,0,-32297,0,0,0,4304,0,9261,0
9319,-280,-8184,1006,-51,16,9,12213,4,3,-6,0,36940,119,23,144,0,0,0,0,0,0,0,0,-32297,0,0,0,4304,0,9274,0
9329,-316,-8182,1016,-52,14,8,12214,3,3,-5,0,36937,114,23,144,0,0,0,0,0,0,0,0,-32297,0,0,0,4304,0,9286,0
9339,-362,-8170,1012,-50,13,9,12211,0,-5,-4,0,36938,98,23,144,0,0,0,0,0,0,0,0,-32297,0,0,0,4304,0,9294,0
9349,-368,-8186,1014,-52,18,13,12211,-5,0,-5,0,36940,95,23,144,0,0,0,0,0,0,0,0,-32297,0,0,0,4305,0,9304,0
9359,-328,-8198,1016,-53,16,4,12214,3,5,-4,0,36948,109,23,144,0,0,0,0,0,0,0,0,-32297,0,0,0,4305,0,9313,0
9369,-298,-8180,972,-44,14,10,12213,4,0,-5,0,36940,124,23,144,0,0,0,0,0,0,0,0,-32297,0,0,0,4304,0,9328,0
9379,-304,-8180,984,-47,12,11,12211,-8,-4,-5,0,36937,118,24,144,0,0,0,0,0,0,0,0,-32297,0,0,0,4305,0,9337,0
9389,-350,-8172,1026,-52,15,15,12214,11,0,-4,0,36937,107,23,144,0,0,0,0,0,0,0,0,-32297,0,0,0,4304,0,9346,0
9399,-366,-8180,1016,-47,12,8,12213,0,4,-2,0,36943,118,23,144,0,0,0,0,0,0,0,0,-32297,0,0,0,4303,0,9356,0
9409,-364,-8164,1012,-51,15,5,12213,1,4,-4,0,36943,121,23,144,0,0,0,0,0,0,0,0,-32297,0,0,0,4305,0,9369,0
9419,-326,-8172,1028,-48,17,6,12211,-6,-3,-7,0,36935,115,23,144,0,0,0,0,0,0,0,0,-32297,0,0,0,4304,0,9379,0
9429,-338,-8160,1014,-49,13,6,12213,3,1,-5,0,36932,105,23,144,0,0,0,0,0,0,0,0,-32297,0,0,0,4305,0,9389,0
9439,-362,-8192,988,-52,15,6,12211,-5,-3,-3,0,36936,104,23,144,0,0,0,0,0,0,0,0,-32297,0,0,0,4303,0,9399,0
9449,-336,-8190,990,-42,17,5,12211,-7,0,-4,0,36947,110,23,144,0,0,0,0,0,0,0,0,-32297,0,0,0,4304,0,9412,0
9459,-348,-8174,1020,-45,15,2,12212,-4,-5,-4,0,36944,123,23,144,0,0,0,0,0,0,0,0,-32297,0,0,0,4304,0,9422,0
9469,-334,-8156,1052,-49,11,1,12212,0,1,-5,0,36945,122,23,144,0,0,0,0,0,0,0,0,-32297,0,0,0,4304,0,9432,0
9479,-366,-8170,1024,-53,9,-5,12212,-8,2,-2,0,36953,106,24,144,0,0,0,0,0,0,0,0,-32297,0,0,0,4304,0,9442,0
9489,-336,-8180,990,-52,12,-7,12214,8,-2,-4,0,36955,112,23,144,0,0,0,0,0,0,0,0,-32297,0,0,0,4305,0,9454,0
9499,-332,-8172,1004,-51,14,-2,12214,7,3,-5,0,36953,123,23,144,0,0,0,0,0,0,0,0,-32297,0,0,0,4303,0,9464,0
9509,-300,-8192,976,-53,12,-1,12214,-4,0,-4,0,36934,126,23,144,0,0,0,0,0,0,0,0,-32297,0,0,0,4303,0,9474,0
9519,-294,-8184,990,-49,14,1,12215,17,0,-7,0,36933,113,23,144,0,0,0,0,0,0,0,0,-32297,0,0,0,4304,0,9484,0
9529,-320,-8152,1008,-53,17,6,12213,8,5,-3,0,36940,100,23,144,0,0,0,0,0,0,0,0,-32297,0,0,0,4304,0,9497,0
9539,-304,-8212,1012,-48,13,6,12212,-4,2,-5,0,36941,106,23,144,0,0,0,0,0,0,0,0,-32297,0,0,0,4304,0,9507,0
9549,-336,-8184,1038,-48,15,5,12213,-1,-2,-4,0,36943,123,23,144,0,0,0,0,0,0,0,0,-32297,0,0,0,4303,0,9517,0
9559,-312,-8168,1020,-53,12,8,12213,10,1,-3,0,36942,124,23,144,0,0,0,0,0,0,0,0,-32297,0,0,0,4303,0,9527,0
9569,-296,-8178,1004,-51,14,4,12212,0,-1,-5,0,36946,118,23,144,0,0,0,0,0,0,0,0,-32297,0,0,0,4305,0,9541,0
9579,-326,-8198,994,-57,15,8,12211,-10,-3,-6,0,36944,110,23,144,0,0,0,0,0,0,0,0,-32297,0,0,0,4303,0,9551,0
9589,-292,-8164,1004,-50,12,9,12212,5,-1,-5,0,36940,110,23,144,0,0,0,0,0,0,0,0,-32297,0,0,0,4304,0,9561,0
9599,-306,-8222,984,-49,16,5,12213,4,4,-5,0,36939,112,23,144,0,0,0,0,0,0,0,0,-32297,0,0,0,4303,0,9571,0
9609,-316,-8170,1014,-51,16,7,12211,0,-4,-4,0,36940,106,23,144,0,0,0,0,0,0,0,0,-32297,0,0,0,4304,0,9584,0
9619,-312,-8166,1016,-49,15,10,12214,9,5,-5,0,36946,103,24,144,0,0,0,0,0,0,0,0,-32297,0,0,0,4304,0,9594,0
9629,-330,-8178,1010,-47,17,13,12211,-3,-1,-3,0,36946,109,24,144,0,0,0,0,0,0,0,0,-32297,0,0,0,4304,0,9604,0
9639,-332,-8176,1006,-49,13,10,12213,0,0,-4,0,36940,113,23,144,0,0,0,0,0,0,0,0,-32298,0,0,0,4304,0,9614,0
9649,-314,-8178,994,-51,20,8,12213,8,3,-4,0,36947,104,23,144,0,0,0,0,0,0,0,0,-32297,0,0,0,4304,0,9627,0
9659,-310,-8190,996,-49,20,8,12212,-7,2,-4,0,36955,107,23,144,0,0,0,0,0,0,0,0,-32297,0,0,0,4304,0,9637,0
9669,-330,-8166,1002,-49,10,8,12212,1,-3,-5,0,36957,104,23,144,0,0,0,0,0,0,0,0,-32297,0,0,0,4304,0,9647,0
9679,-376,-8178,1034,-54,15,7,12212,-3,-1,-2,0,36947,102,23,144,0,0,0,0,0,0,0,0,-32297,0,0,0,4303,0,9657,0
9689,-334,-8178,1022,-54,10,7,12213,0,-3,-6,0,36944,112,23,144,0,0,0,0,0,0,0,0,-32297,0,0,0,4304,0,9670,0
9699,-348,-8162,990,-54,14,8,12211,-9,-2,-3,0,36951,116,23,144,0,0,0,0,0,0,0,0,-32297,0,0,0,4304,0,9680,0
9709,-312,-8190,988,-50,14,3,12212,0,-8,-5,0,36951,121,23,144,0,0,0,0,0,0,0,0,-32297,0,0,0,4304,0,9690,0
9719,-306,-8198,984,-45,16,8,12213,3,2,-6,0,36944,113,23,144,0,0,0,0,0,0,0,0,-32297,0,0,0,4305,0,9700,0
9729,-322,-8178,1000,-47,11,11,12213,4,-1,-4,0,36939,107,23,144,0,0,0,0,0,0,0,0,-32297,0,0,0,4305,0,9713,0
9739,-326,-8160,1018,-45,17,10,12213,3,1,-5,0,36942,108,23,144,0,0,0,0,0,0,0,0,-32297,0,0,0,4304,0,9723,0
9749,-332,-8192,1024,-47,15,4,12214,6,6,-5,0,36954,107,23,144,0,0,0,0,0,0,0,0,-32297,0,0,0,4305,0,9733,0
9759,-320,-8170,1020,-49,12,6,12211,-4,-5,-5,0,36956,113,23,144,0,0,0,0,0,0,0,0,-32297,0,0,0,4304,0,9743,0
9769,-340,-8174,1016,-51,12,-1,12214,8,1,-5,0,36950,118,23,144,0,0,0,0,0,0,0,0,-32297,0,0,0,4302,0,9758,0
9779,-326,-8176,1000,-53,14,3,12213,6,4,-4,0,36947,107,23,144,0,0,0,0,0,0,0,0,-32297,0,0,0,4305,0,9768,0
9789,-334,-8186,1008,-46,9,5,12211,0,5,-5,0,36952,99,23,144,0,0,0,0,0,0,0,0,-32297,0,0,0,4304,0,9778,0
9799,-336,-8174,1038,-46,11,2,12211,-6,1,-4,0,36957,107,23,144,0,0,0,0,0,0,0,0,-32297,0,0,0,4305,0,9788,0
9809,-336,-8176,1004,-49,13,5,12212,-6,-4,-5,0,36954,115,23,144,0,0,0,0,0,0,0,0,-32297,0,0,0,4304,0,9801,0
9819,-346,-8188,1004,-53,16,1,12213,3,2,-4,0,36953,109,23,144,0,0,0,0,0,0,0,0,-32297,0,0,0,4304,0,9811,0
9829,-310,-8170,994,-54,11,6,12213,-3,0,-3,0,36956,86,23,144,0,0,0,0,0,0,0,0,-32296,0,0,0,4303,0,9821,0
9839,-318,-8172,980,-57,9,3,12213,2,-2,-4,0,36960,90,23,144,0,0,0,0,0,0,0,0,-32297,0,0,0,4305,0,9831,0
9849,-338,-8170,990,-53,18,6,12212,-4,-1,-5,0,36962,117,23,144,0,0,0,0,0,0,0,0,-32297,0,0,0,4303,0,9844,0
9859,-322,-8180,1008,-52,15,5,12212,0,2,-4,0,36961,139,23,144,0,0,0,0,0,0,0,0,-32297,0,0,0,4304,0,9854,0
9869,-290,-8148,1006,-48,10,12,12213,-3,2,-4,0,36962,117,24,144,0,0,0,0,0,0,0,0,-32297,0,0,0,4305,0,9864,0
9879,-312,-8190,1030,-50,10,15,12211,-9,0,-5,0,36964,105,24,144,0,0,0,0,0,0,0,0,-32297,0,0,0,4304,0,9875,0
9889,-278,-8172,1008,-53,12,12,12213,8,0,-5,0,36961,104,23,144,0,0,0,0,0,0,0,0,-32297,0,0,0,4304,0,9888,0
9899,-322,-8172,1000,-60,14,12,12213,-1,2,-6,0,36957,112,23,144,0,0,0,0,0,0,0,0,-32297,0,0,0,4304,0,9898,0
9909,-336,-8186,996,-52,20,12,12212,-2,1,-6,0,36952,106,23,144,0,0,0,0,0,0,0,0,-32297,0,0,0,4305,0,9908,0
9919,-342,-8162,1008,-48,14,12,12212,0,1,-6,0,36954,92,23,144,0,0,0,0,0,0,0,0,-32297,0,0,0,4304,0,9921,0
9929,-382,-8150,1020,-46,20,10,12212,-2,-3,-7,0,36954,99,24,144,0,0,0,0,0,0,0,0,-32297,0,0,0,4303,0,9932,0
9939,-362,-8194,1032,-55,14,5,12213,0,0,-6,0,36948,111,23,144,0,0,0,0,0,0,0,0,-32297,0,0,0,4304,0,9942,0
9949,-336,-8166,1018,-55,10,1,12213,-2,2,-7,0,36951,117,23,144,0,0,0,0,0,0,0,0,-32297,0,0,0,4303,0,9952,0
9959,-336,-8192,998,-53,13,4,12212,0,-4,-3,0,36954,117,23,144,0,0,0,0,0,0,0,0,-32297,0,0,0,4305,0,9962,0
9969,-326,-8202,1010,-51,14,-3,12212,0,-3,-6,0,36955,102,23,144,0,0,0,0,0,0,0,0,-32297,0,0,0,4304,0,9975,0
9979,-338,-8182,1014,-54,12,-3,12212,-3,0,-4,0,36954,97,23,144,0,0,0,0,0,0,0,0,-32297,0,0,0,4304,0,9986,0
9989,-264,-8156,966,-50,16,1,12213,-2,4,-3,0,36952,101,23,144,0,0,0,0,0,0,0,0,-32297,0,0,0,4303,0,9995,0
9999,-320,-8202,996,-46,14,2,12213,8,-2,-2,0,36957,102,23,144,0,0,0,0,0,0,0,0,-32297,0,0,0,4303,0,10005,0
10009,-306,-8174,1002,-49,13,1,12212,-5,2,-3,0,36957,102,24,144,0,0,0,0,0,0,0,0,-32298,0,0,0,4303,0,10018,0
10019,-288,-8192,996,-51,13,6,12212,-1,-1,-3,0,36958,108,24,144,0,0,0,0,0,0,0,0,-32297,0,0,0,4304,0,10028,0
10029,-318,-8204,1016,-52,13,10,12213,4,2,-4,0,36954,110,24,144,0,0,0,0,0,0,0,0,-32297,0,0,0,4303,0,10038,0
10039,-312,-8184,1020,-52,13,2,12211,-10,3,-3,0,36957,112,23,144,0,0,0,0,0,0,0,0,-32297,0,0,0,4303,0,10048,0
10049,-342,-8166,1018,-48,15,6,12214,5,1,-3,0,36951,106,23,144,0,0,0,0,0,0,0,0,-32297,0,0,0,4303,0,10061,0
10059,-314,-8204,1016,-49,11,5,12212,0,-1,-6,0,36946,101,23,144,0,0,0,0,0,0,0,0,-32297,0,0,0,4304,0,10071,0
10069,-326,-8170,1004,-52,12,3,12213,1,2,-5,0,36943,114,23,144,0,0,0,0,0,0,0,0,-32297,0,0,0,4303,0,10081,0
10079,-322,-8146,976,-50,13,7,12213,2,1,-4,0,36942,109,24,144,0,0,0,0,0,0,0,0,-32297,0,0,0,4303,0,10094,0
10089,-322,-8188,1000,-52,15,6,12212,6,-1,-5,0,36942,99,23,144,0,0,0,0,0,0,0,0,-32297,0,0,0,4302,0,10104,0
10099,-318,-8182,1018,-52,14,4,12214,9,1,-3,0,36938,97,23,144,0,0,0,0,0,0,0,0,-32297,0,0,0,4302,0,10114,0
10109,-350,-8168,1012,-52,17,6,12212,6,1,-5,0,36936,102,23,144,0,0,0,0,0,0,0,0,-32297,0,0,0,4305,0,10124,0
10119,-292,-8186,1026,-53,18,2,12212,-3,1,-5,0,36931,99,23,144,0,0,0,0,0,0,0,0,-32297,0,0,0,4303,0,10137,0
10129,-300,-8186,998,-52,14,14,12212,-3,-4,-4,0,36929,90,24,144,0,0,0,0,0,0,0,0,-32297,0,0,0,4303,0,10147,0
10139,-310,-8178,1020,-50,16,7,12211,-9,-4,-5,0,36934,90,23,144,0,0,0,0,0,0,0,0,-32297,0,0,0,4303,0,10157,0
10149,-330,-8172,1010,-52,11,9,12212,0,-2,-5,0,36937,103,23,144,0,0,0,0,0,0,0,0,-32297,0,0,0,4303,0,10171,0
10159,-314,-8174,1006,-50,17,13,12213,-5,4,-4,0,36935,97,23,144,0,0,0,0,0,0,0,0,-32297,0,0,0,4303,0,10181,0
10169,-322,-8174,1022,-53,16,12,12212,3,-6,-6,0,36940,86,24,144,0,0,0,0,0,0,0,0,-32297,0,0,0,4303,0,10191,0
10179,-334,-8190,1020,-47,15,15,12213,4,10,-4,0,36937,81,23,144,0,0,0,0,0,0,0,0,-32297,0,0,0,4303,0,10201,0
10189,-334,-8178,1006,-55,13,10,12214,7,7,-4,0,36937,100,23,144,0,0,0,0,0,0,0,0,-32297,0,0,0,4303,0,10215,0
10199,-322,-8150,992,-51,11,10,12212,0,3,-3,0,36934,116,23,144,0,0,0,0,0,0,0,0,-32296,0,0,0,4303,0,10225,0
10209,-344,-8170,1004,-51,20,8,12213,6,1,-5,0,36932,110,23,144,0,0,0,0,0,0,0,0,-32297,0,0,0,4303,0,10235,0
10219,-332,-8176,1034,-46,10,8,12214,7,4,-6,0,36931,98,24,144,0,0,0,0,0,0,0,0,-32297,0,0,0,4302,0,10245,0
10229,-310,-8166,1014,-52,14,2,12212,-6,-2,-3,0,36930,92,23,144,0,0,0,0,0,0,0,0,-32297,0,0,0,4302,0,10258,0
10239,-312,-8162,994,-60,16,8,12212,0,-1,-4,0,36930,97,23,144,0,0,0,0,0,0,0,0,-32297,0,0,0,4303,0,10268,0
10249,-296,-8146,994,-50,10,12,12212,2,1,-4,0,36928,102,23,144,0,0,0,0,0,0,0,0,-32297,0,0,0,4302,0,10278,0
10259,-302,-8180,1012,-50,6,12,12212,0,-3,-6,0,36929,95,23,144,0,0,0,0,0,0,0,0,-32297,0,0,0,4303,0,10288,0
10269,-338,-8174,1000,-49,16,10,12212,2,-4,-5,0,36930,94,23,144,0,0,0,0,0,0,0,0,-32297,0,0,0,4302,0,10301,0
10279,-330,-8164,1008,-52,10,12,12211,0,-2,-5,0,36929,91,23,144,0,0,0,0,0,0,0,0,-32297,0,0,0,4304,0,10311,0
10289,-360,-8184,1022,-55,12,7,12212,-3,3,-4,0,36930,89,23,144,0,0,0,0,0,0,0,0,-32297,0,0,0,4302,0,10321,0
10299,-342,-8168,1012,-54,11,8,12211,-11,-8,-3,0,36934,98,23,144,0,0,0,0,0,0,0,0,-32297,0,0,0,4303,0,10331,0
10309,-350,-8194,1022,-53,16,5,12212,-8,1,-4,0,36931,95,23,144,0,0,0,0,0,0,0,0,-32297,0,0,0,4303,0,10344,0
10319,-338,-8192,1002,-51,13,3,12213,0,0,-6,0,36925,94,24,144,0,0,0,0,0,0,0,0,-32297,0,0,0,4302,0,10354,0
10329,-284,-8192,978,-55,15,0,12212,-4,1,-5,0,36923,95,24,144,0,0,0,0,0,0,0,0,-32297,0,0,0,4303,0,10364,0
10339,-326,-8182,1014,-52,17,5,12212,0,-3,-4,0,36924,89,23,144,0,0,0,0,0,0,0,0,-32297,0,0,0,4302,0,10374,0
10349,-308,-8176,1012,-52,15,2,12213,2,-2,-3,0,36927,94,24,144,0,0,0,0,0,0,0,0,-32297,0,0,0,4303,0,10386,0
10359,-294,-8150,1000,-53,16,14,12212,-8,-2,-4,0,36928,91,24,144,0,0,0,0,0,0,0,0,-32297,0,0,0,4303,0,10397,0
10369,-298,-8176,998,-52,17,15,12213,3,-1,-5,0,36926,96,24,144,0,0,0,0,0,0,0,0,-32297,0,0,0,4303,0,10407,0
10379,-330,-8190,994,-47,14,5,12212,0,3,-3,0,36933,99,24,144,0,0,0,0,0,0,0,0,-32297,0,0,0,4303,0,10419,0
10389,-316,-8164,990,-48,18,8,12213,2,-1,-4,0,36934,96,23,144,0,0,0,0,0,0,0,0,-32297,0,0,0,4302,0,10431,0
10399,-332,-8188,998,-47,12,5,12212,-2,-4,-4,0,36934,95,24,144,0,0,0,0,0,0,0,0,-32297,0,0,0,4303,0,10441,0
10409,-308,-8180,1012,-53,15,10,12213,4,2,-5,0,36924,97,23,144,0,0,0,0,0,0,0,0,-32297,0,0,0,4303,0,10451,0
10419,-334,-8172,1030,-52,14,8,12212,-4,6,-5,0,36919,91,23,144,0,0,0,0,0,0,0,0,-32297,0,0,0,4303,0,10465,0
10429,-362,-8132,1046,-51,18,8,12213,0,2,-3,0,36920,85,23,144,0,0,0,0,0,0,0,0,-32297,0,0,0,4303,0,10475,0
10439,-318,-8172,1054,-49,12,4,12213,-4,0,-4,0,36923,96,23,144,0,0,0,0,0,0,0,0,-32297,0,0,0,4303,0,10485,0
10449,-320,-8190,998,-57,19,9,12212,2,-2,-5,0,36925,96,23,144,0,0,0,0,0,0,0,0,-32297,0,0,0,4304,0,10495,0
10459,-292,-8192,996,-52,10,11,12213,8,5,-5,0,36923,88,24,144,0,0,0,0,0,0,0,0,-32297,0,0,0,4303,0,10509,0
10469,-324,-8190,992,-52,14,10,12213,-5,6,-6,0,36920,79,24,144,0,0,0,0,0,0,0,0,-32297,0,0,0,4302,0,10519,0
10479,-338,-8164,1002,-52,15,11,12212,-6,-5,-3,0,36923,74,23,144,0,0,0,0,0,0,0,0,-32297,0,0,0,4303,0,10529,0
10489,-346,-8204,988,-54,14,11,12211,-4,-2,-4,0,36930,84,23,144,0,0,0,0,0,0,0,0,-32297,0,0,0,4302,0,10541,0
10499,-322,-8180,1014,-52,11,8,12212,-4,0,-4,0,36931,93,23,144,0,0,0,0,0,0,0,0,-32297,0,0,0,4304,0,10552,0
10509,-348,-8178,1024,-48,15,9,12212,5,2,-5,0,36927,96,24,144,0,0,0,0,0,0,0,0,-32297,0,0,0,4303,0,10562,0
10519,-352,-8200,1038,-49,16,6,12211,-4,2,-6,0,36920,101,24,144,0,0,0,0,0,0,0,0,-32297,0,0,0,4302,0,10573,0
10529,-336,-8182,1010,-50,9,3,12213,6,-1,-3,0,36921,103,23,144,0,0,0,0,0,0,0,0,-32297,0,0,0,4303,0,10586,0
10539,-334,-8142,1022,-50,14,2,12214,4,6,-5,0,36924,109,23,144,0,0,0,0,0,0,0,0,-32297,0,0,0,4304,0,10596,0
10549,-350,-8206,1018,-49,13,1,12212,0,-1,-6,0,36925,104,24,144,0,0,0,0,0,0,0,0,-32296,0,0,0,4304,0,10606,0
10559,-344,-8164,1006,-51,10,4,12211,-6,-1,-5,0,36922,94,24,144,0,0,0,0,0,0,0,0,-32297,0,0,0,4304,0,10617,0
10569,-298,-8176,988,-51,19,-3,12212,0,-1,-5,0,36922,82,24,144,0,0,0,0,0,0,0,0,-32297,0,0,0,4303,0,10630,0
10579,-294,-8180,1004,-47,12,3,12212,-1,2,-3,0,36923,83,23,144,0,0,0,0,0,0,0,0,-32296,0,0,0,4303,0,10640,0
10589,-302,-8172,1024,-46,10,2,12211,-4,-4,-4,0,36930,89,23,144,0,0,0,0,0,0,0,0,-32297,0,0,0,4304,0,10651,0
10599,-328,-8178,1030,-46,13,3,12212,-10,-4,-5,0,36928,94,24,144,0,0,0,0,0,0,0,0,-32296,0,0,0,4302,0,10662,0
10609,-318,-8186,1026,-50,12,6,12212,5,-6,-4,0,36928,94,23,144,0,0,0,0,0,0,0,0,-32297,0,0,0,4303,0,10674,0
10619,-300,-8186,1014,-52,13,8,12213,2,6,-5,0,36923,86,23,144,0,0,0,0,0,0,0,0,-32296,0,0,0,4303,0,10684,0
10629,-332,-8182,1000,-50,12,5,12214,5,0,-4,0,36925,92,24,144,0,0,0,0,0,0,0,0,-32296,0,0,0,4303,0,10694,0
10639,-340,-8182,1018,-49,14,7,12213,-2,-1,-3,0,36927,94,23,144,0,0,0,0,0,0,0,0,-32297,0,0,0,4302,0,10707,0
10649,-342,-8186,1008,-50,10,11,12212,0,-3,-7,0,36926,97,24,144,0,0,0,0,0,0,0,0,-32297,0,0,0,4304,0,10717,0
10659,-332,-8148,1016,-56,11,4,12213,0,-1,-5,0,36925,92,24,144,0,0,0,0,0,0,0,0,-32297,0,0,0,4303,0,10727,0
10669,-318,-8182,1012,-47,13,5,12211,-3,-5,-5,0,36925,95,24,144,0,0,0,0,0,0,0,0,-32297,0,0,0,4303,0,10738,0
10679,-278,-8158,990,-51,11,2,12213,9,0,-5,0,36926,95,23,144,0,0,0,0,0,0,0,0,-32297,0,0,0,4303,0,10751,0
10689,-326,-8164,1032,-51,15,12,12212,-7,-3,-6,0,36932,108,23,144,0,0,0,0,0,0,0,0,-32297,0,0,0,4303,0,10761,0
10699,-316,-8196,1016,-55,14,9,12214,7,4,-4,0,36934,111,23,144,0,0,0,0,0,0,0,0,-32297,0,0,0,4303,0,10771,0
10709,-328,-8172,984,-51,19,4,12214,10,3,-5,0,36932,112,24,144,0,0,0,0,0,0,0,0,-32297,0,0,0,4302,0,10781,0
10719,-350,-8176,1008,-48,16,9,12214,12,5,-5,0,36929,109,24,144,0,0,0,0,0,0,0,0,-32297,0,0,0,4303,0,10794,0
10729,-322,-8170,1012,-53,13,6,12211,-9,-2,-5,0,36923,92,23,144,0,0,0,0,0,0,0,0,-32297,0,0,0,4302,0,10804,0
10739,-320,-8204,994,-51,15,12,12213,-8,2,-4,0,36925,103,23,144,0,0,0,0,0,0,0,0,-32297,0,0,0,4304,0,10813,0
10749,-332,-8172,1000,-48,14,12,12213,4,0,-5,0,36931,105,23,144,0,0,0,0,0,0,0,0,-32296,0,0,0,4302,0,10824,0
10759,-330,-8172,1020,-49,19,9,12211,-10,2,-5,0,36939,96,24,144,0,0,0,0,0,0,0,0,-32297,0,0,0,4304,0,10837,0
10769,-324,-8152,1040,-50,17,8,12212,5,0,-4,0,36949,90,24,144,0,0,0,0,0,0,0,0,-32297,0,0,0,4303,0,10847,0
10779,-320,-8202,1018,-51,17,10,12212,-8,-1,-6,0,36953,91,23,144,0,0,0,0,0,0,0,0,-32297,0,0,0,4303,0,10857,0
10789,-336,-8164,992,-49,12,10,12213,10,3,-3,0,36948,101,23,144,0,0,0,0,0,0,0,0,-32297,0,0,0,4303,0,10868,0
10799,-322,-8182,1016,-46,17,4,12211,-8,1,-4,0,36942,98,24,144,0,0,0,0,0,0,0,0,-32297,0,0,0,4303,0,10880,0
10809,-340,-8180,978,-53,17,4,12213,4,-2,-5,0,36936,96,24,144,0,0,0,0,0,0,0,0,-32297,0,0,0,4302,0,10890,0
10819,-328,-8180,1002,-53,16,5,12211,-11,3,-3,0,36934,98,24,144,0,0,0,0,0,0,0,0,-32296,0,0,0,4303,0,10900,0
10829,-288,-8190,992,-51,12,4,12212,0,-2,-5,0,36929,97,23,144,0,0,0,0,0,0,0,0,-32297,0,0,0,4303,0,10912,0
10839,-310,-8168,986,-48,12,8,12213,4,1,-5,0,36932,104,23,144,0,0,0,0,0,0,0,0,-32297,0,0,0,4303,0,10925,0
10849,-320,-8172,976,-45,13,8,12214,9,1,-6,0,36930,114,24,144,0,0,0,0,0,0,0,0,-32297,0,0,0,4303,0,10936,0
10859,-308,-8176,1008,-50,15,7,12211,-7,5,-4,0,36929,108,24,144,0,0,0,0,0,0,0,0,-32296,0,0,0,4302,0,10946,0
10869,-328,-8196,1000,-49,18,8,12213,4,2,-6,0,36927,102,23,144,0,0,0,0,0,0,0,0,-32297,0,0,0,4303,0,10957,0
10879,-320,-8160,1010,-49,12,9,12213,-5,1,-7,0,36928,96,23,144,0,0,0,0,0,0,0,0,-32297,0,0,0,4303,0,10967,0
10889,-332,-8164,1016,-52,12,6,12212,0,-2,-2,0,36934,103,23,144,0,0,0,0,0,0,0,0,-32297,0,0,0,4302,0,10977,0
10899,-356,-8174,1010,-53,18,6,12212,2,-2,-4,0,36939,106,24,144,0,0,0,0,0,0,0,0,-32297,0,0,0,4304,0,10987,0
10909,-350,-8182,1000,-53,14,4,12212,-6,1,-3,0,36937,107,24,144,0,0,0,0,0,0,0,0,-32297,0,0,0,4303,0,10998,0
10919,-310,-8186,988,-49,15,3,12213,5,3,-6,0,36933,106,23,144,0,0,0,0,0,0,0,0,-32297,0,0,0,4303,0,11008,0
10929,-314,-8176,1024,-52,12,8,12214,13,2,-7,0,36929,95,23,144,0,0,0,0,0,0,0,0,-32297,0,0,0,4303,0,11017,0
10939,-320,-8154,1000,-46,17,8,12213,-6,1,-3,0,36931,102,24,144,0,0,0,0,0,0,0,0,-32297,0,0,0,4304,0,11027,0
10949,-332,-8188,1008,-52,12,9,12212,0,-3,-5,0,36932,95,24,144,0,0,0,0,0,0,0,0,-32297,0,0,0,4303,0,11037,0
10959,-334,-8208,1020,-47,15,6,12213,-2,5,-4,0,36931,92,24,144,0,0,0,0,0,0,0,0,-32297,0,0,0,4304,0,11048,0
10969,-332,-8176,1016,-47,15,11,12212,-7,-6,-3,0,36931,95,24,144,0,0,0,0,0,0,0,0,-32297,0,0,0,4303,0,11058,0
10979,-294,-8156,1006,-52,14,12,12211,0,-4,-6,0,36932,97,24,144,0,0,0,0,0,0,0,0,-32297,0,0,0,4302,0,11068,0
10989,-324,-8188,1002,-54,16,9,12212,-4,0,-2,0,36936,99,24,144,0,0,0,0,0,0,0,0,-32297,0,0,0,4303,0,11078,0
10999,-298,-8176,992,-47,15,10,12211,-12,-4,-6,0,36936,97,24,144,0,0,0,0,0,0,0,0,-32296,0,0,0,4303,0,11088,0
11009,-328,-8208,1014,-44,17,8,12212,2,-7,-4,0,36939,97,24,144,0,0,0,0,0,0,0,0,-32297,0,0,0,4303,0,11098,0
11019,-320,-8180,1020,-49,16,13,12211,-10,-1,-6,0,36937,100,24,144,0,0,0,0,0,0,0,0,-32297,0,0,0,4303,0,11108,0
11029,-326,-8156,1008,-54,13,11,12213,0,1,-6,0,36939,103,23,144,0,0,0,0,0,0,0,0,-32297,0,0,0,4303,0,11118,0
11039,-340,-8190,1022,-54,15,8,12210,-16,-4,-3,0,36932,99,24,144,0,0,0,0,0,0,0,0,-32297,0,0,0,4304,0,11128,0
11049,-336,-8176,1008,-48,9,15,12213,11,4,-4,0,36928,94,24,144,0,0,0,0,0,0,0,0,-32297,0,0,0,4304,0,11138,0
11059,-324,-8182,998,-50,12,9,12213,-1,7,-4,0,36924,86,24,144,0,0,0,0,0,0,0,0,-32297,0,0,0,4303,0,11148,0
11069,-348,-8174,978,-55,14,8,12212,3,0,-7,0,36925,91,24,144,0,0,0,0,0,0,0,0,-32296,0,0,0,4302,0,11158,0
11079,-328,-8156,1008,-53,17,2,12212,-2,3,-3,0,36930,104,24,144,0,0,0,0,0,0,0,0,-32297,0,0,0,4303,0,11168,0
11089,-332,-8146,1022,-46,7,1,12214,4,7,-5,0,36931,106,24,144,0,0,0,0,0,0,0,0,-32297,0,0,0,4302,0,11178,0
11099,-314,-8192,1008,-53,14,5,12212,-1,0,-5,0,36927,91,24,144,0,0,0,0,0,0,0,0,-32297,0,0,0,4304,0,11188,0
11109,-352,-8152,998,-53,14,3,12213,0,5,-5,0,36927,100,24,144,0,0,0,0,0,0,0,0,-32297,0,0,0,4303,0,11198,0
11119,-326,-8172,988,-51,11,-1,12212,3,2,-6,0,36930,99,24,144,0,0,0,0,0,0,0,0,-32296,0,0,0,4304,0,11208,0
11129,-338,-8168,1014,-53,11,-2,12211,-10,0,-6,0,36929,103,24,144,0,0,0,0,0,0,0,0,-32297,0,0,0,4303,0,11218,0
11139,-320,-8156,982,-48,18,1,12213,-3,1,-4,0,36923,104,24,144,0,0,0,0,0,0,0,0,-32296,0,0,0,4304,0,11228,0
11149,-314,-8200,1012,-48,14,7,12211,-1,-6,-2,0,36919,103,24,144,0,0,0,0,0,0,0,0,-32296,0,0,0,4304,0,11238,0
11159,-296,-8174,986,-46,14,5,12212,6,1,-3,0,36922,108,24,144,0,0,0,0,0,0,0,0,-32297,0,0,0,4303,0,11248,0
11169,-296,-8184,1028,-49,14,7,12213,2,2,-5,0,36925,107,23,144,0,0,0,0,0,0,0,0,-32296,0,0,0,4305,0,11258,0
11179,-328,-8190,1036,-47,14,5,12213,1,4,-6,0,36925,111,23,144,0,0,0,0,0,0,0,0,-32297,0,0,0,4305,0,11268,0
11189,-330,-8180,1014,-53,15,6,12212,0,-1,-4,0,36921,117,24,144,0,0,0,0,0,0,0,0,-32297,0,0,0,4303,0,11278,0
11199,-302,-8196,996,-54,15,6,12212,-6,-2,-4,0,36919,110,24,144,0,0,0,0,0,0,0,0,-32297,0,0,0,4302,0,11288,0
11209,-304,-8174,1002,-51,16,6,12212,9,2,-6,0,36927,107,24,144,0,0,0,0,0,0,0,0,-32296,0,0,0,4303,0,11298,0
11219,-322,-8188,1000,-48,17,9,12212,2,4,-6,0,36929,108,23,144,0,0,0,0,0,0,0,0,-32297,0,0,0,4302,0,11308,0
11229,-316,-8182,1036,-53,11,7,12213,-3,3,-5,0,36927,107,23,144,0,0,0,0,0,0,0,0,-32297,0,0,0,4303,0,11318,0
11239,-326,-8178,1024,-52,15,7,12213,1,1,-2,0,36923,105,24,144,0,0,0,0,0,0,0,0,-32296,0,0,0,4304,0,11328,0
11249,-288,-8212,1030,-55,19,9,12215,7,6,-3,0,36920,92,24,144,0,0,0,0,0,0,0,0,-32297,0,0,0,4303,0,11338,0
11259,-320,-8186,1004,-53,15,8,12212,-6,0,-5,0,36920,100,24,144,0,0,0,0,0,0,0,0,-32296,0,0,0,4305,0,11349,0
11269,-300,-8172,1014,-57,17,7,12212,3,0,-5,0,36919,102,24,144,0,0,0,0,0,0,0,0,-32297,0,0,0,4301,0,11359,0
11279,-296,-8186,982,-54,16,9,12211,-9,1,-6,0,36916,97,24,144,0,0,0,0,0,0,0,0,-32297,0,0,0,4303,0,11369,0
11289,-306,-8162,998,-50,21,6,12213,3,-4,-4,0,36918,93,24,144,0,0,0,0,0,0,0,0,-32297,0,0,0,4303,0,11379,0
11299,-330,-8172,1006,-55,19,8,12211,-5,-5,-3,0,36924,87,24,144,0,0,0,0,0,0,0,0,-32297,0,0,0,4303,0,11389,0
11309,-346,-8172,1024,-52,13,9,12213,1,-2,-4,0,36924,98,24,144,0,0,0,0,0,0,0,0,-32297,0,0,0,4303,0,11399,0
11319,-326,-8178,1046,-55,19,10,12212,-1,1,-3,0,36930,100,24,144,0,0,0,0,0,0,0,0,-32297,0,0,0,4303,0,11409,0
11329,-294,-8186,1024,-49,16,10,12211,-3,1,-5,0,36926,117,24,144,0,0,0,0,0,0,0,0,-32297,0,0,0,4303,0,11419,0
11339,-320,-8188,1000,-57,15,10,12212,-4,4,-2,0,36925,118,24,144,0,0,0,0,0,0,0,0,-32296,0,0,0,4302,0,11429,0
11349,-316,-8174,998,-48,9,8,12212,4,-5,-5,0,36918,115,24,144,0,0,0,0,0,0,0,0,-32297,0,0,0,4304,0,11439,0
11359,-336,-8180,1018,-55,16,13,12213,5,5,-6,0,36914,107,24,144,0,0,0,0,0,0,0,0,-32297,0,0,0,4304,0,11449,0
11369,-328,-8148,988,-52,16,6,12213,1,-1,-6,0,36916,97,23,144,0,0,0,0,0,0,0,0,-32297,0,0,0,4304,0,11459,0
11379,-326,-8218,996,-46,14,4,12215,1,4,-6,0,36918,99,24,144,0,0,0,0,0,0,0,0,-32296,0,0,0,4303,0,11469,0
11389,-340,-8196,1028,-52,14,5,12214,9,2,-3,0,36920,105,24,144,0,0,0,0,0,0,0,0,-32297,0,0,0,4303,0,11479,0
11399,-322,-8164,1012,-50,14,5,12211,0,2,-4,0,36918,101,24,144,0,0,0,0,0,0,0,0,-32297,0,0,0,4303,0,11489,0
11409,-338,-8220,1000,-55,9,10,12214,1,4,-4,0,36914,101,24,144,0,0,0,0,0,0,0,0,-32297,0,0,0,4302,0,11499,0
11419,-304,-8192,1012,-49,17,5,12211,0,-3,-5,0,36923,99,23,144,0,0,0,0,0,0,0,0,-32297,0,0,0,4303,0,11509,0
11429,-354,-8174,992,-52,14,4,12214,0,7,-4,0,36924,96,23,144,0,0,0,0,0,0,0,0,-32297,0,0,0,4304,0,11519,0
11439,-308,-8190,996,-59,16,-3,12211,-18,-5,-2,0,36924,100,24,144,0,0,0,0,0,0,0,0,-32297,0,0,0,4304,0,11529,0
11449,-328,-8180,1020,-52,14,6,12213,6,-3,-5,0,36918,97,24,144,0,0,0,0,0,0,0,0,-32296,0,0,0,4304,0,11539,0
11459,-324,-8174,984,-53,14,1,12212,5,-1,-4,0,36915,101,24,144,0,0,0,0,0,0,0,0,-32297,0,0,0,4304,0,11549,0
11469,-326,-8196,1012,-50,9,6,12212,-2,2,-4,0,36918,107,23,144,0,0,0,0,0,0,0,0,-32297,0,0,0,4304,0,11559,0
11479,-346,-8186,1004,-54,13,7,12213,1,4,-5,0,36921,112,23,144,0,0,0,0,0,0,0,0,-32297,0,0,0,4304,0,11569,0
11489,-298,-8172,1020,-52,12,3,12211,-2,-2,-3,0,36918,108,24,144,0,0,0,0,0,0,0,0,-32297,0,0,0,4303,0,11579,0
11499,-316,-8180,1016,-53,17,6,12212,-7,1,-5,0,36915,98,24,144,0,0,0,0,0,0,0,0,-32297,0,0,0,4302,0,11589,0
11509,-330,-8184,998,-52,14,12,12211,-3,-7,-4,0,36919,98,24,144,0,0,0,0,0,0,0,0,-32297,0,0,0,4303,0,11599,0
11519,-350,-8190,1018,-52,17,5,12212,0,-1,-2,0,36926,112,24,144,0,0,0,0,0,0,0,0,-32296,0,0,0,4304,0,11609,0
11529,-324,-8192,996,-54,12,10,12212,1,-5,-5,0,36930,123,24,144,0,0,0,0,0,0,0,0,-32297,0,0,0,4303,0,11619,0
11539,-314,-8162,996,-51,11,6,12213,8,2,-5,0,36926,106,24,144,0,0,0,0,0,0,0,0,-32297,0,0,0,4303,0,11631,0
11549,-300,-8190,986,-53,15,12,12211,-7,0,-5,0,36924,102,24,144,0,0,0,0,0,0,0,0,-32297,0,0,0,4304,0,11641,0
11559,-290,-8178,1028,-50,18,12,12212,7,0,-6,0,36919,106,23,144,0,0,0,0,0,0,0,0,-32297,0,0,0,4303,0,11651,0
11569,-298,-8154,1022,-51,16,14,12211,-4,-3,-2,0,36919,112,23,144,0,0,0,0,0,0,0,0,-32296,0,0,0,4304,0,11661,0
11579,-328,-8182,1024,-50,18,19,12213,4,3,-5,0,36918,113,24,144,0,0,0,0,0,0,0,0,-32297,0,0,0,4304,0,11671,0
11589,-362,-8170,1004,-48,16,15,12213,-2,1,-2,0,36922,102,24,144,0,0,0,0,0,0,0,0,-32296,0,0,0,4304,0,11681,0
11599,-356,-8194,994,-53,15,15,12213,5,1,-2,0,36924,103,24,144,0,0,0,0,0,0,0,0,-32297,0,0,0,4303,0,11691,0
11609,-358,-8140,1000,-55,20,9,12214,9,0,-5,0,36923,110,24,144,0,0,0,0,0,0,0,0,-32297,0,0,0,4305,0,11702,0
11619,-332,-8190,984,-54,15,0,12213,-1,1,-5,0,36923,110,24,144,0,0,0,0,0,0,0,0,-32297,0,0,0,4304,0,11712,0
11629,-326,-8190,1024,-48,16,7,12214,8,0,-6,0,36925,112,24,144,0,0,0,0,0,0,0,0,-32297,0,0,0,4304,0,11722,0
11639,-324,-8170,980,-48,14,2,12211,-3,-4,-4,0,36933,116,24,144,0,0,0,0,0,0,0,0,-32297,0,0,0,4303,0,11732,0
11649,-304,-8168,1008,-53,16,6,12213,-1,1,-6,0,36932,117,24,144,0,0,0,0,0,0,0,0,-32297,0,0,0,4304,0,11742,0
11659,-308,-8190,990,-49,14,8,12211,-9,-5,-5,0,36931,128,24,144,0,0,0,0,0,0,0,0,-32297,0,0,0,4304,0,11752,0
11669,-326,-8164,1012,-48,16,8,12213,-2,-3,-4,0,36923,122,24,144,0,0,0,0,0,0,0,0,-32296,0,0,0,4305,0,11762,0
11679,-326,-8178,1028,-48,16,8,12212,-1,-6,-4,0,36924,116,24,144,0,0,0,0,0,0,0,0,-32297,0,0,0,4304,0,11772,0
11689,-336,-8152,1016,-54,20,10,12212,-4,-1,-3,0,36925,110,24,144,0,0,0,0,0,0,0,0,-32297,0,0,0,4303,0,11782,0
11699,-324,-8188,1018,-54,17,8,12212,-9,-4,-4,0,36925,105,23,144,0,0,0,0,0,0,0,0,-32296,0,0,0,4303,0,11792,0
11709,-316,-8186,1018,-49,13,6,12212,0,-4,-5,0,36928,112,23,144,0,0,0,0,0,0,0,0,-32297,0,0,0,4304,0,11802,0
11719,-340,-8186,1002,-51,7,6,12213,-2,-1,-3,0,36929,114,24,144,0,0,0,0,0,0,0,0,-32297,0,0,0,4304,0,11812,0
11729,-320,-8190,1010,-49,11,9,12213,-3,2,-3,0,36929,116,24,144,0,0,0,0,0,0,0,0,-32296,0,0,0,4304,0,11822,0
11739,-322,-8144,994,-52,11,3,12211,-4,-7,-4,0,36932,116,24,144,0,0,0,0,0,0,0,0,-32296,0,0,0,4303,0,11832,0
11749,-306,-8190,992,-53,13,5,12214,11,10,-5,0,36929,118,24,144,0,0,0,0,0,0,0,0,-32297,0,0,0,4305,0,11842,0
11759,-350,-8190,1020,-49,18,4,12211,-9,-2,-5,0,36928,119,24,144,0,0,0,0,0,0,0,0,-32296,0,0,0,4305,0,11852,0
11769,-354,-8164,1004,-53,14,3,12213,6,-1,-3,0,36928,122,24,144,0,0,0,0,0,0,0,0,-32297,0,0,0,4303,0,11862,0
11779,-316,-8204,1002,-54,13,3,12212,0,4,-6,0,36931,128,24,144,0,0,0,0,0,0,0,0,-32296,0,0,0,4305,0,11872,0
11789,-310,-8172,1000,-49,15,7,12214,6,-1,-5,0,36930,123,24,144,0,0,0,0,0,0,0,0,-32296,0,0,0,4304,0,11882,0
11799,-328,-8152,1014,-51,14,7,12213,2,4,-3,0,36927,117,24,144,0,0,0,0,0,0,0,0,-32296,0,0,0,4303,0,11892,0
11809,-334,-8202,1014,-51,11,5,12212,-9,-1,-6,0,36931,115,24,144,0,0,0,0,0,0,0,0,-32296,0,0,0,4304,0,11902,0
11819,-352,-8152,990,-53,15,7,12212,-4,1,-5,0,36937,121,24,144,0,0,0,0,0,0,0,0,-32296,0,0,0,4303,0,11912,0
11829,-272,-8168,1000,-52,17,6,12212,6,-2,-5,0,36938,130,24,144,0,0,0,0,0,0,0,0,-32297,0,0,0,4304,0,11922,0
11839,-294,-8196,994,-47,16,12,12211,-10,2,-5,0,36940,116,24,144,0,0,0,0,0,0,0,0,-32297,0,0,0,4304,0,11932,0
11849,-322,-8160,984,-51,18,16,12211,0,3,-5,0,36938,109,24,144,0,0,0,0,0,0,0,0,-32297,0,0,0,4303,0,11942,0
11859,-340,-8176,1012,-55,17,15,12212,-9,4,-4,0,36940,106,24,144,0,0,0,0,0,0,0,0,-32296,0,0,0,4303,0,11952,0
11869,-322,-8192,978,-49,17,14,12212,-9,1,-4,0,36937,112,24,144,0,0,0,0,0,0,0,0,-32296,0,0,0,4304,0,11962,0
11879,-316,-8190,994,-48,20,9,12212,-4,4,-5,0,36931,112,24,144,0,0,0,0,0,0,0,0,-32297,0,0,0,4304,0,11972,0
11889,-346,-8208,1014,-51,15,7,12212,5,-2,-7,0,36934,115,24,144,0,0,0,0,0,0,0,0,-32296,0,0,0,4304,0,11982,0
11899,-352,-8190,1006,-50,16,8,12211,-5,1,-3,0,36937,111,24,144,0,0,0,0,0,0,0,0,-32297,0,0,0,4304,0,11992,0
11909,-322,-8202,1016,-45,13,8,12213,5,4,-4,0,36942,119,24,144,0,0,0,0,0,0,0,0,-32297,0,0,0,4304,0,12002,0
11919,-342,-8154,996,-51,12,8,12213,-4,-1,-5,0,36943,130,24,144,0,0,0,0,0,0,0,0,-32297,0,0,0,4304,0,12012,0
11929,-356,-8158,1008,-49,13,6,12215,13,1,-6,0,36939,125,24,144,0,0,0,0,0,0,0,0,-32296,0,0,0,4304,0,12022,0
11939,-330,-8180,1004,-49,18,9,12212,-7,-2,-5,0,36937,107,24,144,0,0,0,0,0,0,0,0,-32297,0,0,0,4304,0,12032,0
11949,-328,-8158,986,-49,16,6,12212,0,-4,-4,0,36942,122,24,144,0,0,0,0,0,0,0,0,-32297,0,0,0,4305,0,12042,0
11959,-350,-8170,1016,-49,15,17,12212,-11,1,-4,0,36948,130,24,144,0,0,0,0,0,0,0,0,-32297,0,0,0,4303,0,12053,0
11969,-344,-8198,1024,-49,13,6,12211,-11,-7,-6,0,36944,147,24,144,0,0,0,0,0,0,0,0,-32297,0,0,0,4304,0,12063,0
11979,-358,-8158,1026,-50,12,5,12213,1,2,-5,0,36940,125,24,144,0,0,0,0,0,0,0,0,-32297,0,0,0,4304,0,12073,0
11989,-322,-8212,1008,-49,15,1,12214,14,5,-5,0,36939,115,24,144,0,0,0,0,0,0,0,0,-32297,0,0,0,4304,0,12083,0
11999,-340,-8162,1002,-54,17,3,12215,11,6,-4,0,36939,120,23,144,0,0,0,0,0,0,0,0,-32296,0,0,0,4304,0,12093,0
12009,-322,-8138,962,-47,13,4,12213,4,1,-6,0,36937,122,23,144,0,0,0,0,0,0,0,0,-32297,0,0,0,4304,0,12103,0
12019,-280,-8184,980,-42,16,4,12213,8,-3,-6,0,36935,119,24,144,0,0,0,0,0,0,0,0,-32297,0,0,0,4304,0,12113,0
12029,-312,-8172,1002,-50,14,10,12212,2,2,-5,0,36938,110,24,144,0,0,0,0,0,0,0,0,-32297,0,0,0,4304,0,12123,0
12039,-308,-8186,1014,-46,15,11,12214,1,8,-4,0,36955,108,24,144,0,0,0,0,0,0,0,0,-32297,0,0,0,4304,0,12133,0
12049,-306,-8190,1044,-42,17,8,12212,0,0,-2,0,36953,122,24,144,0,0,0,0,0,0,0,0,-32297,0,0,0,4303,0,12143,0
12059,-332,-8188,1032,-49,13,13,12213,-1,-1,-6,0,36955,130,24,144,0,0,0,0,0,0,0,0,-32297,0,0,0,4304,0,12153,0
12069,-328,-8198,992,-48,16,12,12212,0,-2,-6,0,36942,116,24,144,0,0,0,0,0,0,0,0,-32296,0,0,0,4305,0,12163,0
12079,-332,-8186,996,-54,18,11,12212,1,-1,-3,0,36947,104,24,144,0,0,0,0,0,0,0,0,-32296,0,0,0,4304,0,12173,0
12089,-308,-8178,988,-43,12,13,12212,-2,6,-5,0,36941,104,24,144,0,0,0,0,0,0,0,0,-32297,0,0,0,4305,0,12183,0
12099,-334,-8176,994,-48,12,19,12212,-1,-2,-4,0,36934,112,24,144,0,0,0,0,0,0,0,0,-32297,0,0,0,4305,0,12193,0
12109,-326,-8164,1016,-48,12,14,12214,-3,3,-5,0,36934,119,24,144,0,0,0,0,0,0,0,0,-32297,0,0,0,4304,0,12203,0
12119,-312,-8168,1026,-52,15,18,12214,4,0,-5,0,36941,121,24,144,0,0,0,0,0,0,0,0,-32297,0,0,0,4305,0,12213,0
12129,-350,-8176,1020,-47,15,13,12213,-3,2,-5,0,36947,128,24,144,0,0,0,0,0,0,0,0,-32297,0,0,0,4305,0,12223,0
12139,-374,-8184,996,-53,12,6,12212,4,1,-5,0,36938,140,24,144,0,0,0,0,0,0,0,0,-32297,0,0,0,4304,0,12233,0
12149,-358,-8198,1004,-47,12,5,12212,0,5,-4,0,36929,141,24,144,0,0,0,0,0,0,0,0,-32297,0,0,0,4304,0,12243,0
12159,-350,-8198,986,-46,10,2,12214,11,3,-6,0,36931,126,24,144,0,0,0,0,0,0,0,0,-32297,0,0,0,4305,0,12253,0
12169,-370,-8160,1004,-50,11,-1,12212,-7,5,-5,0,36941,116,24,144,0,0,0,0,0,0,0,0,-32297,0,0,0,4305,0,12263,0
12179,-360,-8168,998,-45,14,-2,12213,0,-6,-5,0,36943,105,24,144,0,0,0,0,0,0,0,0,-32297,0,0,0,4305,0,12273,0
12189,-340,-8182,1040,-47,10,-4,12211,-6,-4,-6,0,36940,115,24,144,0,0,0,0,0,0,0,0,-32297,0,0,0,4305,0,12283,0
12199,-330,-8126,1028,-56,13,-2,12213,-4,6,-4,0,36928,107,24,144,0,0,0,0,0,0,0,0,-32297,0,0,0,4304,0,12293,0
12209,-296,-8226,1010,-53,11,2,12213,2,6,-5,0,36936,114,24,144,0,0,0,0,0,0,0,0,-32297,0,0,0,4304,0,12303,0
12219,-332,-8178,1018,-51,13,-3,12213,5,-5,-5,0,36938,126,24,144,0,0,0,0,0,0,0,0,-32297,0,0,0,4304,0,12313,0
12229,-318,-8172,1046,-50,13,-1,12212,-1,-3,-4,0,36937,116,24,144,0,0,0,0,0,0,0,0,-32297,0,0,0,4305,0,12323,0
12239,-346,-8204,1012,-52,18,1,12213,10,6,-4,0,36930,101,24,144,0,0,0,0,0,0,0,0,-32297,0,0,0,4304,0,12333,0
12249,-320,-8142,1026,-50,14,0,12213,3,0,-4,0,36933,99,24,144,0,0,0,0,0,0,0,0,-32296,0,0,0,4305,0,12343,0
12259,-344,-8176,1024,-46,14,2,12211,-10,-7,-4,0,36942,117,24,144,0,0,0,0,0,0,0,0,-32296,0,0,0,4304,0,12353,0
12269,-328,-8182,1004,-49,14,6,12212,0,-4,-5,0,36944,136,24,144,0,0,0,0,0,0,0,0,-32297,0,0,0,4304,0,12363,0
12279,-326,-8176,992,-50,13,0,12212,-12,-2,-4,0,36940,128,24,144,0,0,0,0,0,0,0,0,-32297,0,0,0,4305,0,12373,0
12289,-312,-8192,1016,-45,18,1,12213,4,-1,-6,0,36938,120,24,144,0,0,0,0,0,0,0,0,-32296,0,0,0,4305,0,12383,0
12299,-288,-8224,1016,-50,17,4,12212,-6,-7,-4,0,36941,127,24,144,0,0,0,0,0,0,0,0,-32297,0,0,0,4305,0,12393,0
12309,-318,-8156,1018,-50,20,7,12211,1,-3,-5,0,36939,123,24,144,0,0,0,0,0,0,0,0,-32297,0,0,0,4305,0,12403,0
12319,-310,-8188,1022,-49,13,12,12214,6,4,-5,0,36936,120,24,144,0,0,0,0,0,0,0,0,-32297,0,0,0,4305,0,12413,0
12329,-336,-8200,1026,-56,13,13,12214,9,3,-3,0,36936,107,24,144,0,0,0,0,0,0,0,0,-32296,0,0,0,4303,0,12423,0
12339,-346,-8168,1020,-51,15,7,12213,7,6,-5,0,36937,120,24,144,0,0,0,0,0,0,0,0,-32297,0,0,0,4303,0,12433,0
12349,-338,-8184,982,-50,16,9,12212,4,-1,-1,0,36938,128,24,144,0,0,0,0,0,0,0,0,-32297,0,0,0,4304,0,12443,0
12359,-328,-8206,982,-52,13,12,12212,-6,-5,-4,0,36933,125,24,144,0,0,0,0,0,0,0,0,-32296,0,0,0,4304,0,12453,0
12369,-314,-8186,966,-53,15,9,12212,-3,-7,-5,0,36928,118,24,144,0,0,0,0,0,0,0,0,-32297,0,0,0,4303,0,12463,0
12379,-330,-8194,988,-45,14,12,12211,-16,-5,-3,0,36934,94,24,144,0,0,0,0,0,0,0,0,-32297,0,0,0,4304,0,12473,0
12389,-360,-8156,1036,-49,15,13,12212,3,-4,-4,0,36936,99,24,144,0,0,0,0,0,0,0,0,-32297,0,0,0,4304,0,12483,0
12399,-314,-8176,1012,-47,17,6,12212,5,1,-4,0,36936,111,23,144,0,0,0,0,0,0,0,0,-32297,0,0,0,4304,0,12493,0
12409,-340,-8166,1016,-51,16,12,12211,-9,-2,-5,0,36934,121,23,144,0,0,0,0,0,0,0,0,-32296,0,0,0,4304,0,12503,0
12419,-324,-8170,992,-54,19,10,12213,0,2,-8,0,36934,112,24,144,0,0,0,0,0,0,0,0,-32297,0,0,0,4305,0,12513,0
12429,-338,-8190,1004,-52,13,12,12213,1,0,-4,0,36936,104,24,144,0,0,0,0,0,0,0,0,-32296,0,0,0,4305,0,12523,0
12439,-322,-8160,998,-53,10,12,12212,-1,1,-5,0,36932,106,24,144,0,0,0,0,0,0,0,0,-32296,0,0,0,4304,0,12533,0
12449,-356,-8210,994,-51,16,7,12213,-2,1,-6,0,36931,115,23,144,0,0,0,0,0,0,0,0,-32296,0,0,0,4305,0,12543,0
12459,-338,-8178,1006,-48,16,9,12211,1,-3,-5,0,36931,110,23,144,0,0,0,0,0,0,0,0,-32297,0,0,0,4305,0,12553,0
12469,-328,-8170,998,-48,18,10,12213,8,3,-4,0,36935,105,24,144,0,0,0,0,0,0,0,0,-32296,0,0,0,4304,0,12563,0
12479,-320,-8174,1006,-46,10,8,12214,7,12,-5,0,36942,110,24,144,0,0,0,0,0,0,0,0,-32296,0,0,0,4305,0,12573,0
12489,-338,-8206,1002,-50,19,11,12212,-10,-4,-5,0,36940,118,24,144,0,0,0,0,0,0,0,0,-32296,0,0,0,4304,0,12583,0
12499,-354,-8186,1004,-51,11,9,12213,9,-3,-4,0,36940,120,24,144,0,0,0,0,0,0,0,0,-32296,0,0,0,4305,0,12593,0
12509,-330,-8184,994,-50,13,7,12212,-9,3,-5,0,36935,109,24,144,0,0,0,0,0,0,0,0,-32296,0,0,0,4304,0,12603,0
12519,-324,-8176,1032,-51,14,6,12212,-3,0,-5,0,36939,99,24,144,0,0,0,0,0,0,0,0,-32297,0,0,0,4304,0,12613,0
12529,-318,-8156,1016,-52,18,10,12214,2,6,-5,0,36941,110,24,144,0,0,0,0,0,0,0,0,-32296,0,0,0,4304,0,12623,0
12539,-312,-8182,1030,-52,15,11,12214,0,0,-3,0,36936,112,24,144,0,0,0,0,0,0,0,0,-32297,0,0,0,4304,0,12634,0
12549,-334,-8198,980,-52,16,11,12212,-5,1,-4,0,36939,108,24,144,0,0,0,0,0,0,0,0,-32296,0,0,0,4305,0,12644,0
12559,-320,-8184,1008,-47,13,10,12213,6,2,-4,0,36942,119,24,144,0,0,0,0,0,0,0,0,-32297,0,0,0,4305,0,12654,0
12569,-354,-8200,1030,-48,10,7,12212,0,0,-5,0,36942,113,24,144,0,0,0,0,0,0,0,0,-32296,0,0,0,4305,0,12664,0
12579,-336,-8176,1018,-49,13,6,12213,8,0,-3,0,36935,99,24,144,0,0,0,0,0,0,0,0,-32297,0,0,0,4305,0,12674,0
12589,-346,-8172,998,-52,12,2,12213,4,3,-4,0,36941,101,24,144,0,0,0,0,0,0,0,0,-32297,0,0,0,4305,0,12684,0
12599,-358,-8152,986,-57,20,4,12213,0,3,-5,0,36949,109,24,144,0,0,0,0,0,0,0,0,-32297,0,0,0,4305,0,12694,0
12609,-342,-8190,996,-51,14,9,12211,0,-6,-5,0,36951,123,24,144,0,0,0,0,0,0,0,0,-32297,0,0,0,4304,0,12704,0
12619,-302,-8180,1004,-51,16,6,12211,-12,-4,-7,0,36940,120,24,144,0,0,0,0,0,0,0,0,-32297,0,0,0,4305,0,12714,0
12629,-312,-8182,1016,-48,17,11,12211,-10,-4,-4,0,36938,112,24,144,0,0,0,0,0,0,0,0,-32297,0,0,0,4305,0,12724,0
12639,-292,-8200,1018,-48,14,11,12214,4,4,-5,0,36941,112,24,144,0,0,0,0,0,0,0,0,-32297,0,0,0,4304,0,12734,0
12649,-326,-8150,1022,-48,17,16,12212,-3,-1,-4,0,36944,107,23,144,0,0,0,0,0,0,0,0,-32296,0,0,0,4305,0,12744,0
12659,-334,-8152,1026,-52,15,18,12213,0,0,-5,0,36941,117,24,144,0,0,0,0,0,0,0,0,-32297,0,0,0,4304,0,12754,0
12669,-374,-8186,1024,-54,14,15,12214,2,5,-5,0,36939,114,24,144,0,0,0,0,0,0,0,0,-32297,0,0,0,4305,0,12770,0
12679,-356,-8166,1012,-50,13,11,12212,0,0,-5,0,36943,94,24,144,0,0,0,0,0,0,0,0,-32297,0,0,0,4304,0,12790,0
12689,-342,-8194,1004,-53,11,12,12212,-1,-1,-6,0,36952,94,24,144,0,0,0,0,0,0,0,0,-32297,0,0,0,4305,0,12810,0
12699,-364,-8176,1034,-52,16,6,12212,0,-2,-4,0,36952,107,23,144,0,0,0,0,0,0,0,0,-32297,0,0,0,4305,0,12830,0
12709,-338,-8162,1020,-48,15,3,12213,-2,6,-4,0,36948,119,24,144,0,0,0,0,0,0,0,0,-32296,0,0,0,4305,0,12850,0
12719,-310,-8192,1018,-52,14,0,12212,-4,-1,-9,0,36948,95,24,144,0,0,0,0,0,0,0,0,-32297,0,0,0,4304,0,12870,0
12729,-334,-8166,1038,-57,14,3,12213,0,5,-3,0,36954,91,24,144,0,0,0,0,0,0,0,0,-32297,0,0,0,4305,0,12891,0
12739,-334,-8166,1032,-53,11,1,12211,1,-1,-5,0,36952,101,24,144,0,0,0,0,0,0,0,0,-32297,0,0,0,4305,0,12912,0
12749,-362,-8152,1022,-53,15,-2,12212,2,1,-4,0,36948,120,24,144,0,0,0,0,0,0,0,0,-32297,0,0,0,4305,0,12932,0
12759,-322,-8166,974,-51,18,-5,12213,7,4,-5,0,36945,125,24,144,0,0,0,0,0,0,0,0,-32297,0,0,0,4304,0,12954,0
12769,-288,-8170,968,-44,12,-4,12212,3,4,-7,0,36948,104,24,144,0,0,0,0,0,0,0,0,-32297,0,0,0,4304,0,12974,0
12779,-294,-8158,984,-47,9,6,12214,9,10,-4,0,36949,108,24,144,0,0,0,0,0,0,0,0,-32297,0,0,0,4303,0,12994,0
12789,-328,-8174,1038,-47,10,5,12211,-14,-3,-4,0,36958,123,24,144,0,0,0,0,0,0,0,0,-32297,0,0,0,4304,0,13014,0
12799,-344,-8174,1024,-52,13,-1,12213,4,3,-4,0,36959,134,24,144,0,0,0,0,0,0,0,0,-32296,0,0,0,4304,0,13034,0
12809,-328,-8166,1022,-52,11,0,12213,1,5,-4,0,36957,112,24,144,0,0,0,0,0,0,0,0,-32296,0,0,0,4305,0,13054,0
12819,-322,-8208,1034,-55,13,0,12212,0,-2,-6,0,36952,88,24,144,0,0,0,0,0,0,0,0,-32297,0,0,0,4304,0,13074,0
12829,-324,-8168,988,-50,14,7,12211,-5,-3,-4,0,36951,86,24,144,0,0,0,0,0,0,0,0,-32296,0,0,0,4305,0,13094,0
12839,-324,-8172,998,-51,13,3,12212,-1,1,-5,0,36948,99,23,144,0,0,0,0,0,0,0,0,-32296,0,0,0,4304,0,13114,0
12849,-336,-8192,1004,-48,12,7,12213,1,0,-3,0,36954,107,23,144,0,0,0,0,0,0,0,0,-32296,0,0,0,4305,0,13134,0
12859,-324,-8174,1018,-53,12,5,12214,9,3,-3,0,36956,108,24,144,0,0,0,0,0,0,0,0,-32296,0,0,0,4303,0,13154,0
12869,-312,-8162,1008,-52,11,5,12213,2,1,-6,0,36959,97,24,144,0,0,0,0,0,0,0,0,-32296,0,0,0,4305,0,13174,0
12879,-336,-8194,1018,-49,16,8,12213,15,0,-4,0,36954,94,24,144,0,0,0,0,0,0,0,0,-32296,0,0,0,4303,0,13194,0
12889,-336,-8188,1010,-49,13,5,12211,-3,-3,-6,0,36960,107,24,144,0,0,0,0,0,0,0,0,-32296,0,0,0,4304,0,13214,0
12899,-330,-8172,1010,-53,13,6,12213,5,-2,-5,0,36965,107,24,144,0,0,0,0,0,0,0,0,-32296,0,0,0,4304,0,13234,0
12909,-328,-8182,996,-52,16,1,12211,-13,4,-3,0,36967,113,24,144,0,0,0,0,0,0,0,0,-32296,0,0,0,4304,0,13254,0
12919,-330,-8168,1008,-54,11,4,12212,-5,-4,-5,0,36963,116,24,144,0,0,0,0,0,0,0,0,-32296,0,0,0,4304,0,13274,0
12929,-308,-8176,1030,-53,18,7,12213,-3,-1,-3,0,36962,117,24,144,0,0,0,0,0,0,0,0,-32296,0,0,0,4304,0,13294,0
12939,-302,-8174,994,-52,15,6,12213,-9,-5,-3,0,36963,119,24,144,0,0,0,0,0,0,0,0,-32297,0,0,0,4304,0,13314,0
12949,-328,-8162,1014,-55,11,9,12213,-1,-1,-3,0,36959,124,24,144,0,0,0,0,0,0,0,0,-32297,0,0,0,4304,0,13334,0
12959,-310,-8182,1002,-50,11,2,12212,5,-2,-4,0,36948,114,24,144,0,0,0,0,0,0,0,0,-32297,0,0,0,4305,0,13355,0
12969,-334,-8176,1018,-51,13,9,12213,-2,3,-5,0,36943,110,24,144,0,0,0,0,0,0,0,0,-32296,0,0,0,4304,0,13375,0
12979,-326,-8162,1022,-52,16,7,12212,-3,-6,-4,0,36941,101,24,144,0,0,0,0,0,0,0,0,-32296,0,0,0,4305,0,13395,0
12989,-308,-8174,1018,-52,18,5,12212,5,1,-7,0,36947,89,23,144,0,0,0,0,0,0,0,0,-32296,0,0,0,4305,0,13415,0
12999,-320,-8176,1018,-47,12,7,12214,4,3,-3,0,36950,91,24,144,0,0,0,0,0,0,0,0,-32296,0,0,0,4305,0,13435,0
13009,-350,-8166,1002,-48,12,7,12212,0,-5,-4,0,36944,91,24,144,0,0,0,0,0,0,0,0,-32296,0,0,0,4304,0,13455,0
13019,-344,-8190,1026,-49,12,5,12213,0,1,-8,0,36940,82,24,144,0,0,0,0,0,0,0,0,-32298,0,0,0,4303,0,13475,0
13029,-346,-8166,984,-50,14,3,12213,0,0,-4,0,36931,85,24,144,0,0,0,0,0,0,0,0,-32296,0,0,0,4304,0,13495,0
13039,-342,-8196,1004,-50,15,5,12212,-3,2,-5,0,36936,89,23,144,0,0,0,0,0,0,0,0,-32296,0,0,0,4304,0,13515,0
13049,-330,-8162,1028,-45,14,6,12211,-1,-3,-3,0,36938,101,23,144,0,0,0,0,0,0,0,0,-32296,0,0,0,4305,0,13535,0
13059,-356,-8172,1038,-46,16,7,12212,5,-5,-6,0,36933,102,24,144,0,0,0,0,0,0,0,0,-32297,0,0,0,4305,0,13555,0
13069,-306,-8184,1012,-53,11,-1,12211,-3,-6,-6,0,36930,91,24,144,0,0,0,0,0,0,0,0,-32296,0,0,0,4304,0,13575,0
13079,-324,-8152,994,-46,14,-6,12214,6,0,-3,0,36931,93,24,144,0,0,0,0,0,0,0,0,-32296,0,0,0,4305,0,13595,0
13089,-314,-8196,1010,-47,13,-1,12211,-10,-1,-5,0,36933,105,24,144,0,0,0,0,0,0,0,0,-32296,0,0,0,4304,0,13615,0
13099,-314,-8220,1002,-50,14,2,12212,-1,-5,-4,0,36938,110,24,144,0,0,0,0,0,0,0,0,-32296,0,0,0,4304,0,13635,0
13109,-290,-8174,1008,-55,16,0,12212,-6,0,-3,0,36937,105,24,144,0,0,0,0,0,0,0,0,-32296,0,0,0,4305,0,13655,0
13119,-270,-8182,994,-56,16,6,12213,-1,4,-6,0,36936,91,24,144,0,0,0,0,0,0,0,0,-32296,0,0,0,4303,0,13673,0
13129,-318,-8202,1010,-47,14,6,12213,-8,-5,-5,0,36940,86,24,144,0,0,0,0,0,0,0,0,-32297,0,0,0,4305,0,13693,0
13139,-298,-8186,1004,-50,20,8,12212,0,-6,-6,0,36933,90,24,144,0,0,0,0,0,0,0,0,-32296,0,0,0,4303,0,13713,0
13149,-324,-8182,1002,-46,14,7,12214,0,5,-4,0,36932,96,24,144,0,0,0,0,0,0,0,0,-32296,0,0,0,4305,0,13732,0
13159,-304,-8190,1024,-50,15,11,12212,-3,-10,-5,0,36927,89,24,144,0,0,0,0,0,0,0,0,-32297,0,0,0,4304,0,13752,0
13169,-326,-8180,1022,-45,13,9,12214,3,8,-6,0,36928,91,24,144,0,0,0,0,0,0,0,0,-32296,0,0,0,4304,0,13771,0
13179,-334,-8158,990,-45,14,11,12213,4,0,-3,0,36927,91,23,144,0,0,0,0,0,0,0,0,-32297,0,0,0,4303,0,13791,0
13189,-326,-8170,1004,-44,14,8,12212,-3,0,-4,0,36928,92,23,144,0,0,0,0,0,0,0,0,-32297,0,0,0,4304,0,13810,0
13199,-306,-8188,1004,-46,18,9,12213,4,1,-2,0,36926,98,24,144,0,0,0,0,0,0,0,0,-32297,0,0,0,4305,0,13830,0
13209,-346,-8158,988,-41,16,9,12214,4,2,-4,0,36933,89,24,144,0,0,0,0,0,0,0,0,-32297,0,0,0,4305,0,13850,0
13219,-332,-8168,1014,-47,18,8,12213,8,2,-7,0,36933,87,24,144,0,0,0,0,0,0,0,0,-32297,0,0,0,4304,0,13870,0
13229,-342,-8184,1012,-48,8,4,12213,1,2,-5,0,36934,94,24,144,0,0,0,0,0,0,0,0,-32297,0,0,0,4304,0,13890,0
13239,-342,-8182,1016,-47,18,10,12214,4,2,-4,0,36932,99,23,144,0,0,0,0,0,0,0,0,-32296,0,0,0,4305,0,13910,0
13249,-850,-8228,1026,-48,28,-8,12237,132,49,710,656,36927,98,24,144,0,0,0,0,0,0,0,0,-32297,0,0,0,4303,0,13930,0
13259,-454,-8200,1028,-44,35,-16,12418,499,385,911,1632,36923,98,24,144,0,0,0,0,0,0,0,0,-32296,0,0,0,4302,0,13950,0
13269,-372,-8150,1048,-47,31,2,12759,863,623,1038,2512,36918,109,24,144,0,0,0,0,0,0,0,0,-32297,0,0,0,4303,0,13970,0
13279,-242,-8182,1100,-49,18,3,13253,1187,600,1016,3216,36907,141,24,144,0,0,0,0,0,0,0,0,-32296,0,0,0,4303,0,13992,0
13289,-410,-8154,882,-67,31,13,13888,1477,555,1000,3960,36893,171,23,144,0,0,0,0,0,0,0,0,-32297,0,0,0,4303,0,14010,0
13299,-266,-8148,990,-62,25,9,14661,1794,530,1001,4712,36878,197,24,144,0,0,0,0,0,0,0,0,-32297,0,0,0,4304,0,14030,0
13309,-304,-8222,984,-68,29,1,15574,2116,542,1014,5376,36868,218,24,144,0,0,0,0,0,0,0,0,-32296,0,0,0,4302,0,14051,0
13319,-222,-8166,990,-67,10,1,16631,2408,548,1020,5936,36866,236,24,144,0,0,0,0,0,0,0,0,-32297,0,0,0,4302,0,14071,0
13329,-306,-8132,978,-60,-31,7,17765,2517,405,950,6368,36864,246,24,144,0,0,0,0,0,0,0,0,-32297,0,0,0,4302,0,14091,0
13339,-306,-8198,988,-18,-29,9,18943,2634,211,938,6904,36866,271,24,144,0,0,0,0,0,0,0,0,-32297,0,0,0,4303,0,14111,0
13349,-370,-8132,1042,-47,5,2,20248,2983,348,1053,7600,36842,302,24,144,0,0,0,0,0,0,0,0,-32296,0,0,0,4304,0,14131,0
13359,-370,-8170,960,-55,10,0,21709,3292,566,1005,8240,36818,319,24,144,0,0,0,0,0,0,0,0,-32297,0,0,0,4303,0,14151,0
13369,-272,-8204,1128,-34,11,-3,23272,3539,484,989,8952,36794,334,24,144,0,0,0,0,0,0,0,0,-32297,0,0,0,4302,0,14171,0
13379,-266,-8114,1078,-40,17,-10,25021,3968,576,1090,9600,36779,348,24,144,0,0,0,0,0,0,0,0,-32296,0,0,0,4302,0,14191,0
13389,-316,-8176,1106,-18,26,11,26834,3975,472,903,10064,36764,371,24,144,0,0,0,0,0,0,0,0,-32297,0,0,0,4303,0,14211,0
13399,-738,-8092,1088,-51,18,35,28752,4359,296,1136,10392,36753,389,24,144,0,0,0,0,0,0,0,0,-32297,0,0,0,4308,1,14231,0
13409,11988,-11972,5606,-446,-1552,3920,30327,2867,-500,1232,5096,36731,422,24,144,0,0,0,0,0,0,0,0,-32297,0,0,0,4432,11,14251,0
13419,10332,-8568,1610,-337,-2079,2446,30770,147,-3145,776,-240,36735,401,24,144,0,0,0,0,0,0,0,0,-32297,0,0,0,4475,2,14271,0
13429,-20162,-7026,-3232,-132,640,-835,30241,-1517,-4061,683,-2240,36774,327,24,144,0,0,0,0,0,0,0,0,-32296,0,0,0,4443,-5,14291,0
13439,-17728,-7108,-2954,253,2419,-2300,29506,-1541,-1993,838,-1368,36834,189,24,144,0,0,0,0,0,0,0,0,-32296,0,0,0,4386,-5,14311,0
13449,1624,-9230,2124,527,1713,-2262,29014,-856,274,1123,16,36886,82,24,144,0,0,0,0,0,0,0,0,-32297,0,0,0,4341,-4,14331,0
13459,4446,-5870,974,558,-468,-1240,28888,-48,1238,1179,344,36903,40,24,144,0,0,0,0,0,0,0,0,-32296,0,0,0,4320,-1,14351,0
13469,10428,-8586,3484,-3,-217,308,28932,97,991,1007,392,36904,46,24,144,0,0,0,0,0,0,0,0,-32297,0,0,0,4323,0,14371,0
13479,1252,-8238,3008,-326,-1548,799,28959,68,205,985,416,36899,69,23,144,0,0,0,0,0,0,0,0,-32297,0,0,0,4331,1,14391,0
13489,-6034,-7880,-52,-227,-782,658,29054,275,106,898,984,36895,93,23,144,0,0,0,0,0,0,0,0,-32297,0,0,0,4341,1,14411,0
13499,-4912,-8236,-522,-198,-18,163,29212,338,263,1026,904,36893,110,24,144,0,0,0,0,0,0,0,0,-32297,0,0,0,4353,1,14431,0
13509,2476,-8660,482,13,307,-123,29298,89,-63,1086,304,36893,121,24,144,0,0,0,0,0,0,0,0,-32297,0,0,0,4358,0,14451,0
13519,3476,-8176,1258,66,14,14,29252,-141,-425,1015,136,36892,121,24,144,0,0,0,0,0,0,0,0,-32297,0,0,0,4355,0,14471,0
13529,-1272,-8224,1752,-21,-145,197,29210,-49,-205,975,296,36903,116,24,144,0,0,0,0,0,0,0,0,-32296,0,0,0,4352,0,14491,0
13539,-2440,-8044,1568,-130,-59,158,29239,92,178,983,408,36913,115,24,144,0,0,0,0,0,0,0,0,-32297,0,0,0,4355,0,14511,0
13549,-794,-8204,1096,-160,74,-40,29270,38,127,1029,288,36918,112,24,144,0,0,0,0,0,0,0,0,-32296,0,0,0,4358,0,14531,0
13559,-300,-8314,634,-122,97,-115,29252,-48,-109,1002,248,36913,121,24,144,0,0,0,0,0,0,0,0,-32296,0,0,0,4355,0,14551,0
13569,242,-8228,304,-81,28,-12,29253,17,-42,998,288,36906,133,24,144,0,0,0,0,0,0,0,0,-32296,0,0,0,4355,0,14571,0
13579,54,-8180,194,-2,-37,28,29251,-15,36,1003,288,36904,136,24,144,0,0,0,0,0,0,0,0,-32297,0,0,0,4356,0,14591,0
13589,-876,-8174,604,66,-19,2,29254,6,3,1005,288,36907,134,24,144,0,0,0,0,0,0,0,0,-32296,0,0,0,4356,0,14611,0
13599,-1032,-8202,1400,69,19,-46,29253,0,-3,1002,280,36910,126,24,144,0,0,0,0,0,0,0,0,-32296,0,0,0,4355,0,14631,0
13609,-156,-8266,2190,-42,42,-45,29252,0,-3,999,288,36909,125,24,144,0,0,0,0,0,0,0,0,-32296,0,0,0,4355,0,14651,0
13619,242,-8130,1978,-126,32,-15,29251,3,4,1000,288,36906,123,24,144,0,0,0,0,0,0,0,0,-32297,0,0,0,4355,0,14671,0
13629,-8,-8212,984,-160,7,58,29251,3,5,1003,280,36908,121,24,144,0,0,0,0,0,0,0,0,-32297,0,0,0,4354,0,14691,0
13639,-466,-8168,252,-136,7,70,29252,0,3,996,280,36920,127,24,144,0,0,0,0,0,0,0,0,-32296,0,0,0,4356,0,14711,0
13649,-632,-8164,-4,-5,30,26,29253,0,0,999,296,36921,122,24,144,0,0,0,0,0,0,0,0,-32296,0,0,0,4355,0,14731,0
13659,-464,-8116,492,52,31,23,29253,1,-5,1000,296,36917,118,24,144,0,0,0,0,0,0,0,0,-32297,0,0,0,4356,0,14751,0
13669,-294,-8156,1496,40,4,37,29254,9,2,1000,296,36907,121,24,144,0,0,0,0,0,0,0,0,-32297,0,0,0,4356,0,14771,0
13679,-570,-8172,1814,-8,6,33,29253,-10,1,1004,272,36911,126,24,144,0,0,0,0,0,0,0,0,-32297,0,0,0,4355,0,14791,0
13689,-752,-8178,1482,-81,11,4,29255,5,-1,1002,280,36914,132,24,144,0,0,0,0,0,0,0,0,-32296,0,0,0,4355,0,14811,0
13699,-764,-8146,1084,-93,23,-12,29255,1,-2,998,288,36911,128,24,144,0,0,0,0,0,0,0,0,-32296,0,0,0,4355,0,14831,0
13709,-474,-8176,690,-73,19,-42,29254,-1,-1,1001,280,36909,124,24,144,0,0,0,0,0,0,0,0,-32297,0,0,0,4355,0,14851,0
13719,-258,-8194,644,-42,10,-39,29253,0,2,1002,280,36911,131,24,144,0,0,0,0,0,0,0,0,-32296,0,0,0,4355,0,14871,0
13729,-198,-8186,948,-27,2,2,29253,-4,3,1003,288,36917,138,24,144,0,0,0,0,0,0,0,0,-32296,0,0,0,4356,0,14891,0
13739,-302,-8166,1108,-34,-1,11,29254,4,-2,999,288,36921,141,24,144,0,0,0,0,0,0,0,0,-32297,0,0,0,4355,0,14911,0
13749,-346,-8130,1178,-47,13,4,29254,0,-1,998,288,36920,141,24,144,0,0,0,0,0,0,0,0,-32296,0,0,0,4355,0,14931,0
13759,-380,-8176,1156,-58,21,13,29252,-8,-3,1002,288,36919,130,24,144,0,0,0,0,0,0,0,0,-32296,0,0,0,4355,0,14951,0
13769,-438,-8170,978,-59,19,11,29254,1,0,1001,280,36916,125,24,144,0,0,0,0,0,0,0,0,-32297,0,0,0,4355,0,14971,0
13779,-452,-8156,904,-52,17,2,29253,5,-3,999,288,36917,129,24,144,0,0,0,0,0,0,0,0,-32297,0,0,0,4355,0,14991,0
13789,-414,-8226,1020,-33,22,5,29253,-2,1,1002,288,36914,139,24,144,0,0,0,0,0,0,0,0,-32297,0,0,0,4355,0,15011,0
13799,-418,-8226,1082,-38,14,11,29255,14,4,999,288,36912,133,24,144,0,0,0,0,0,0,0,0,-32297,0,0,0,4355,0,15031,0
13809,-372,-8162,1130,-39,15,9,29253,-4,2,1002,288,36914,127,24,144,0,0,0,0,0,0,0,0,-32297,0,0,0,4355,0,15051,0
13819,-390,-8178,1092,-46,16,16,29255,15,2,1004,288,36917,125,24,144,0,0,0,0,0,0,0,0,-32297,0,0,0,4356,0,15071,0
13829,-516,-8206,994,-48,14,25,29254,8,10,1000,288,36916,128,24,144,0,0,0,0,0,0,0,0,-32297,0,0,0,4355,0,15091,0
13839,-442,-8126,940,-35,20,13,29256,4,0,1005,272,36916,133,24,144,0,0,0,0,0,0,0,0,-32297,0,0,0,4355,0,15111,0
13849,-384,-8192,948,-33,20,6,29254,5,-2,1001,288,36920,129,24,144,0,0,0,0,0,0,0,0,-32297,0,0,0,4355,0,15131,0
13859,-380,-8174,1068,-30,9,11,29254,-5,0,1000,288,36921,126,24,144,0,0,0,0,0,0,0,0,-32297,0,0,0,4355,0,15151,0
13869,-396,-8176,1092,-43,14,15,29254,1,0,1000,288,36922,131,24,144,0,0,0,0,0,0,0,0,-32297,0,0,0,4356,0,15172,0
13879,-430,-8214,1084,-41,7,5,29255,-3,-5,999,288,36919,133,24,144,0,0,0,0,0,0,0,0,-32297,0,0,0,4356,0,15192,0
13889,-462,-8144,1046,-53,14,11,29255,5,3,1000,272,36921,134,24,144,0,0,0,0,0,0,0,0,-32297,0,0,0,4355,0,15212,0
13899,-462,-8222,1020,-54,14,7,29255,3,-2,998,280,36920,131,24,144,0,0,0,0,0,0,0,0,-32296,0,0,0,4355,0,15232,0
13909,-450,-8162,986,-46,12,-3,29255,-3,1,1004,280,36918,133,24,144,0,0,0,0,0,0,0,0,-32297,0,0,0,4355,0,15252,0
13919,-394,-8164,1026,-50,18,5,29255,8,0,1002,296,36916,138,24,144,0,0,0,0,0,0,0,0,-32297,0,0,0,4355,0,15272,0
13929,-408,-8168,1044,-42,14,6,29255,-1,2,999,288,36920,138,24,144,0,0,0,0,0,0,0,0,-32297,0,0,0,4355,0,15292,0
13939,-416,-8122,1048,-50,18,1,29253,-2,-5,1002,280,36923,140,24,144,0,0,0,0,0,0,0,0,-32296,0,0,0,4355,0,15312,0
13949,-342,-8184,1036,-37,18,10,29253,0,-3,998,288,36925,136,24,144,0,0,0,0,0,0,0,0,-32297,0,0,0,4355,0,15332,0
13959,-384,-8176,1032,-38,18,20,29254,-6,2,1003,280,36923,126,24,144,0,0,0,0,0,0,0,0,-32297,0,0,0,4355,0,15353,0
13969,-398,-8164,1030,-36,17,11,29255,1,2,1002,272,36924,125,24,144,0,0,0,0,0,0,0,0,-32297,0,0,0,4355,0,15373,0
13979,-434,-8178,1024,-38,14,18,29254,1,-2,1002,288,36924,137,24,144,0,0,0,0,0,0,0,0,-32297,0,0,0,4355,0,15393,0
13989,-494,-8192,1118,-51,12,23,29255,-1,0,1000,288,36925,139,24,144,0,0,0,0,0,0,0,0,-32297,0,0,0,4355,0,15413,0
13999,-444,-8148,1060,-45,12,14,29257,7,1,1001,288,36919,128,24,144,0,0,0,0,0,0,0,0,-32297,0,0,0,4355,0,15433,0
14009,-472,-8178,1032,-53,16,16,29255,1,-5,1008,280,36920,134,24,144,0,0,0,0,0,0,0,0,-32297,0,0,0,4355,0,15453,0
14019,-436,-8200,1048,-53,13,16,29255,-4,-4,1006,272,36920,136,24,144,0,0,0,0,0,0,0,0,-32298,0,0,0,4355,0,15473,0
14029,-410,-8132,1000,-62,17,9,29256,-7,4,999,280,36922,136,24,144,0,0,0,0,0,0,0,0,-32297,0,0,0,4355,0,15493,0
14039,-430,-8144,992,-57,16,6,29256,2,-2,1002,280,36920,132,24,144,0,0,0,0,0,0,0,0,-32297,0,0,0,4355,0,15513,0
14049,-448,-8186,1042,-48,12,11,29256,3,1,1001,280,36918,132,24,144,0,0,0,0,0,0,0,0,-32297,0,0,0,4355,0,15533,0
14059,-458,-8140,1108,-57,15,3,29256,1,1,1005,280,36921,139,24,144,0,0,0,0,0,0,0,0,-32297,0,0,0,4355,0,15553,0
14069,-440,-8184,1062,-55,7,-2,29256,9,-1,999,296,36922,138,24,144,0,0,0,0,0,0,0,0,-32296,0,0,0,4355,0,15573,0
14079,-474,-8226,1046,-58,19,7,29256,8,6,1001,280,36922,135,24,144,0,0,0,0,0,0,0,0,-32297,0,0,0,4355,0,15593,0
14089,-446,-8146,1034,-50,13,1,29257,11,7,1002,280,36915,135,24,144,0,0,0,0,0,0,0,0,-32297,0,0,0,4355,0,15613,0
14099,-386,-8208,1030,-55,15,2,29255,-2,-1,996,296,36913,123,24,144,0,0,0,0,0,0,0,0,-32297,0,0,0,4355,0,15633,0
14109,-392,-8198,1044,-51,7,2,29256,0,1,1003,280,36910,124,24,144,0,0,0,0,0,0,0,0,-32297,0,0,0,4355,0,15653,0
14119,-450,-8166,1038,-47,12,3,29255,0,1,1001,280,36910,125,24,144,0,0,0,0,0,0,0,0,-32297,0,0,0,4355,0,15673,0
14129,-412,-8162,1044,-47,7,-2,29256,0,0,999,288,36913,129,24,144,0,0,0,0,0,0,0,0,-32297,0,0,0,4355,0,15693,0
14139,-404,-8190,1052,-43,10,2,29256,-1,0,999,280,36915,136,24,144,0,0,0,0,0,0,0,0,-32297,0,0,0,4355,0,15713,0
14149,-436,-8172,1040,-63,16,7,29254,-5,-5,999,280,36915,131,24,144,0,0,0,0,0,0,0,0,-32297,0,0,0,4355,0,15733,0
14159,-400,-8128,1046,-54,12,1,29255,1,1,998,280,36913,129,24,144,0,0,0,0,0,0,0,0,-32297,0,0,0,4355,0,15753,0
14169,-422,-8190,1024,-58,11,-5,29255,11,4,1002,288,36916,134,24,144,0,0,0,0,0,0,0,0,-32297,0,0,0,4355,0,15773,0
14179,-464,-8152,1050,-64,10,7,29256,0,2,999,288,36917,139,24,144,0,0,0,0,0,0,0,0,-32297,0,0,0,4355,0,15793,0
14189,-420,-8170,1010,-56,14,-1,29254,-6,-3,999,280,36919,133,24,144,0,0,0,0,0,0,0,0,-32297,0,0,0,4355,0,15813,0
14199,-368,-8156,1024,-60,16,0,29255,5,-1,1003,280,36910,128,24,144,0,0,0,0,0,0,0,0,-32296,0,0,0,4355,0,15833,0
14209,-432,-8176,1048,-50,16,8,29255,-9,0,1002,280,36907,133,24,144,0,0,0,0,0,0,0,0,-32297,0,0,0,4355,0,15853,0
14219,-452,-8154,1032,-59,12,3,29255,0,-6,1007,280,36906,133,24,144,0,0,0,0,0,0,0,0,-32297,0,0,0,4356,0,15873,0
14229,-426,-8160,1054,-45,12,0,29254,-5,-4,999,288,36910,146,24,144,0,0,0,0,0,0,0,0,-32296,0,0,0,4355,0,15893,0
14239,-406,-8176,1054,-53,15,2,29255,-1,-2,1003,280,36913,141,24,144,0,0,0,0,0,0,0,0,-32297,0,0,0,4356,0,15913,0
14249,-386,-8132,1044,-45,16,3,29256,1,2,999,280,36910,134,24,144,0,0,0,0,0,0,0,0,-32297,0,0,0,4354,0,15933,0
14259,-402,-8174,1044,-48,14,0,29255,-4,3,1001,280,36906,128,24,144,0,0,0,0,0,0,0,0,-32296,0,0,0,4355,0,15953,0
14269,-386,-8170,1034,-55,12,6,29254,-7,-5,999,280,36915,127,24,144,0,0,0,0,0,0,0,0,-32296,0,0,0,4355,0,15973,0
14279,-468,-8116,1034,-51,9,11,29255,1,4,1000,288,36919,133,24,144,0,0,0,0,0,0,0,0,-32297,0,0,0,4356,0,15993,0
14289,-438,-8164,994,-52,12,8,29255,0,-2,1002,288,36919,134,24,144,0,0,0,0,0,0,0,0,-32297,0,0,0,4356,0,16013,0
14299,-362,-8212,1034,-50,15,2,29254,0,-2,1000,280,36906,128,24,144,0,0,0,0,0,0,0,0,-32297,0,0,0,4355,0,16033,0
14309,-392,-8160,1052,-58,20,13,29254,-1,4,999,296,36905,127,24,144,0,0,0,0,0,0,0,0,-32296,0,0,0,4355,0,16053,0
14319,-408,-8156,1026,-61,14,15,29256,4,3,1004,280,36911,129,24,144,0,0,0,0,0,0,0,0,-32297,0,0,0,4356,0,16073,0
14329,-414,-8168,1034,-54,12,18,29254,-2,1,999,280,36915,130,24,144,0,0,0,0,0,0,0,0,-32296,0,0,0,4356,0,16093,0
14339,-468,-8140,1028,-59,19,14,29256,4,6,1002,280,36911,124,24,144,0,0,0,0,0,0,0,0,-32296,0,0,0,4356,0,16113,0
14349,-450,-8170,1022,-51,14,9,29256,7,1,998,288,36904,123,24,144,0,0,0,0,0,0,0,0,-32296,0,0,0,4355,0,16133,0
14359,-434,-8178,1058,-57,16,4,29254,0,-3,999,288,36905,126,24,144,0,0,0,0,0,0,0,0,-32296,0,0,0,4355,0,16153,0
14369,-434,-8170,1048,-45,12,5,29254,6,-2,1003,280,36916,142,24,144,0,0,0,0,0,0,0,0,-32297,0,0,0,4355,0,16173,0
14379,-440,-8168,1032,-52,19,2,29255,0,0,995,296,36918,148,24,144,0,0,0,0,0,0,0,0,-32296,0,0,0,4356,0,16193,0
14389,-468,-8204,1062,-46,9,1,29254,1,-2,1003,288,36915,154,24,144,0,0,0,0,0,0,0,0,-32296,0,0,0,4355,0,16213,0
14399,-386,-8162,1046,-49,8,0,29255,0,7,998,288,36904,138,24,144,0,0,0,0,0,0,0,0,-32296,0,0,0,4356,0,16233,0
14409,-356,-8170,1032,-50,11,4,29255,0,-2,1001,288,36905,134,24,144,0,0,0,0,0,0,0,0,-32297,0,0,0,4355,0,16253,0
14419,-370,-8168,1058,-45,12,4,29256,3,1,997,288,36909,140,24,144,0,0,0,0,0,0,0,0,-32296,0,0,0,4356,0,16273,0
14429,-384,-8186,1052,-59,12,6,29254,-3,-1,1002,280,36907,140,24,144,0,0,0,0,0,0,0,0,-32297,0,0,0,4355,0,16294,0
14439,-396,-8158,1034,-56,12,6,29255,1,-1,1001,272,36903,129,24,144,0,0,0,0,0,0,0,0,-32296,0,0,0,4355,0,16313,0
14449,-392,-8178,1030,-63,16,7,29255,-11,3,1000,288,36905,125,24,144,0,0,0,0,0,0,0,0,-32297,0,0,0,4355,0,16333,0
14459,-338,-8192,1012,-52,15,18,29254,5,-3,997,280,36906,131,24,144,0,0,0,0,0,0,0,0,-32297,0,0,0,4355,0,16353,0
14469,-386,-8108,1006,-60,17,12,29253,-5,-3,1000,288,36911,135,24,144,0,0,0,0,0,0,0,0,-32297,0,0,0,4355,0,16373,0
14479,-396,-8176,1032,-60,16,18,29255,1,-1,997,296,36910,143,24,144,0,0,0,0,0,0,0,0,-32296,0,0,0,4355,0,16393,0
14489,-408,-8180,1050,-54,14,17,29256,1,4,1002,280,36911,137,24,144,0,0,0,0,0,0,0,0,-32297,0,0,0,4356,0,16413,0
14499,-414,-8130,1022,-55,17,17,29255,-1,0,999,280,36908,136,24,144,0,0,0,0,0,0,0,0,-32297,0,0,0,4355,0,16433,0
14509,-424,-8192,1016,-50,15,14,29256,0,3,1004,288,36909,137,24,144,0,0,0,0,0,0,0,0,-32296,0,0,0,4355,0,16453,0
14519,-430,-8176,1048,-54,18,15,29255,1,-1,999,296,36908,140,24,144,0,0,0,0,0,0,0,0,-32296,0,0,0,4355,0,16473,0
14529,-424,-8148,1008,-52,14,10,29257,0,4,1001,272,36906,147,24,144,0,0,0,0,0,0,0,0,-32296,0,0,0,4357,0,16493,0
14539,-446,-8202,1006,-46,17,8,29256,2,-2,1001,288,36908,151,24,144,0,0,0,0,0,0,0,0,-32297,0,0,0,4355,0,16513,0
14549,-408,-8144,1020,-47,14,10,29256,1,1,1000,288,36910,148,24,144,0,0,0,0,0,0,0,0,-32297,0,0,0,4355,0,16533,0
14559,-394,-8154,1066,-43,16,9,29256,0,6,1002,296,36912,149,24,144,0,0,0,0,0,0,0,0,-32297,0,0,0,4355,0,16553,0
14569,-416,-8166,1024,-53,17,8,29256,-1,2,1001,280,36914,140,24,144,0,0,0,0,0,0,0,0,-32297,0,0,0,4355,0,16573,0
14579,-404,-8172,1056,-48,16,14,29255,-1,-5,1000,288,36918,136,24,144,0,0,0,0,0,0,0,0,-32296,0,0,0,4355,0,16593,0
14589,-450,-8154,1058,-59,20,14,29254,-9,-3,997,280,36922,136,24,144,0,0,0,0,0,0,0,0,-32297,0,0,0,4355,0,16613,0
14599,-380,-8170,1032,-60,15,12,29255,-1,0,1003,280,36929,141,24,144,0,0,0,0,0,0,0,0,-32297,0,0,0,4355,0,16633,0
14609,-370,-8146,1030,-60,20,12,29257,0,4,1002,288,36924,147,24,144,0,0,0,0,0,0,0,0,-32297,0,0,0,4356,0,16653,0
14619,-436,-8150,990,-58,20,12,29256,-1,-1,1000,280,36925,145,24,144,0,0,0,0,0,0,0,0,-32297,0,0,0,4355,0,16673,0
14629,-428,-8204,1036,-46,18,17,29256,-5,-1,999,280,36914,135,24,144,0,0,0,0,0,0,0,0,-32297,0,0,0,4355,0,16693,0
14639,-428,-8156,1016,-52,17,13,29256,-3,-2,999,280,36914,130,24,144,0,0,0,0,0,0,0,0,-32297,0,0,0,4355,0,16713,0
14649,-446,-8142,1014,-46,12,13,29257,7,-2,1001,272,36912,137,24,144,0,0,0,0,0,0,0,0,-32297,0,0,0,4355,0,16733,0
14659,-420,-8180,1042,-49,14,10,29258,15,7,1000,280,36908,144,24,144,0,0,0,0,0,0,0,0,-32297,0,0,0,4355,0,16753,0
14669,-464,-8166,1052,-40,11,7,29259,8,6,1002,280,36909,152,24,144,0,0,0,0,0,0,0,0,-32297,0,0,0,4355,0,16773,0
14679,-424,-8160,1064,-40,15,2,29257,-2,-2,1001,272,36919,158,24,144,0,0,0,0,0,0,0,0,-32297,0,0,0,4355,0,16793,0
14689,-440,-8188,1046,-47,13,4,29258,3,3,999,280,36922,157,24,144,0,0,0,0,0,0,0,0,-32296,0,0,0,4355,0,16813,0
14699,-422,-8180,1020,-44,14,6,29255,-13,-6,998,280,36917,148,24,144,0,0,0,0,0,0,0,0,-32296,0,0,0,4355,0,16833,0
14709,-400,-8196,1018,-45,15,4,29257,1,2,1002,288,36913,150,24,144,0,0,0,0,0,0,0,0,-32297,0,0,0,4355,0,16853,0
14719,-476,-8166,1028,-42,13,6,29257,4,4,1001,288,36916,153,24,144,0,0,0,0,0,0,0,0,-32297,0,0,0,4355,0,16873,0
14729,-428,-8170,1048,-57,18,10,29257,2,0,1001,280,36919,159,24,144,0,0,0,0,0,0,0,0,-32297,0,0,0,4357,0,16893,0
14739,-428,-8174,1052,-51,12,8,29257,-3,5,1001,272,36914,154,24,144,0,0,0,0,0,0,0,0,-32297,0,0,0,4355,0,16913,0
14749,-420,-8180,1064,-48,16,14,29258,5,3,1000,280,36911,152,24,144,0,0,0,0,0,0,0,0,-32296,0,0,0,4355,0,16933,0
14759,-408,-8170,1064,-47,12,14,29257,2,-1,1002,280,36918,157,24,144,0,0,0,0,0,0,0,0,-32297,0,0,0,4355,0,16953,0
14769,-438,-8166,1026,-54,21,13,29256,-3,-3,1001,280,36925,152,24,144,0,0,0,0,0,0,0,0,-32296,0,0,0,4355,0,16973,0
14779,-440,-8184,1032,-56,16,13,29257,1,0,1000,280,36934,139,24,144,0,0,0,0,0,0,0,0,-32296,0,0,0,4355,0,16993,0
14789,-392,-8168,1016,-45,14,7,29258,-1,1,999,288,36931,136,24,144,0,0,0,0,0,0,0,0,-32297,0,0,0,4355,0,17013,0
14799,-438,-8150,1040,-47,19,8,29258,0,-1,1001,272,36925,148,24,144,0,0,0,0,0,0,0,0,-32297,0,0,0,4355,0,17033,0
14809,-420,-8168,1048,-36,17,3,29258,0,0,999,280,36920,154,24,144,0,0,0,0,0,0,0,0,-32297,0,0,0,4355,0,17053,0
14819,-442,-8172,1050,-45,13,2,29258,4,-1,1002,280,36921,157,24,144,0,0,0,0,0,0,0,0,-32297,0,0,0,4356,0,17073,0
14829,-442,-8152,1040,-39,11,4,29257,-5,0,999,280,36921,146,24,144,0,0,0,0,0,0,0,0,-32296,0,0,0,4355,0,17093,0
14839,-392,-8166,1072,-40,12,7,29257,-8,-2,1001,280,36919,140,24,144,0,0,0,0,0,0,0,0,-32296,0,0,0,4356,0,17113,0
14849,-466,-8190,1052,-50,11,3,29258,-4,-4,1000,272,36922,154,24,144,0,0,0,0,0,0,0,0,-32296,0,0,0,4356,0,17133,0
14859,-470,-8154,1080,-46,12,0,29258,2,-6,1002,280,36927,165,24,144,0,0,0,0,0,0,0,0,-32296,0,0,0,4355,0,17153,0
14869,-446,-8136,1048,-59,11,0,29258,-1,0,1004,280,36924,173,24,144,0,0,0,0,0,0,0,0,-32296,0,0,0,4355,0,17174,0
14879,-400,-8216,1052,-48,10,-6,29258,0,1,1002,272,36921,152,24,144,0,0,0,0,0,0,0,0,-32296,0,0,0,4355,0,17194,0
14889,-430,-8228,1044,-61,16,-5,29257,-4,5,1001,280,36922,142,24,144,0,0,0,0,0,0,0,0,-32297,0,0,0,4355,0,17214,0
14899,-432,-8188,1054,-62,14,-6,29257,-3,0,998,280,36925,147,24,144,0,0,0,0,0,0,0,0,-32297,0,0,0,4357,0,17234,0
14909,-380,-8170,1048,-60,6,-13,29257,3,3,1003,280,36925,157,24,144,0,0,0,0,0,0,0,0,-32296,0,0,0,4355,0,17254,0
14919,-368,-8134,1026,-58,11,-4,29257,3,4,1003,272,36924,154,24,144,0,0,0,0,0,0,0,0,-32296,0,0,0,4356,0,17274,0
14929,-388,-8148,968,-49,12,-2,29258,5,4,1000,288,36924,153,24,144,0,0,0,0,0,0,0,0,-32296,0,0,0,4355,0,17294,0
14939,-368,-8190,988,-50,14,3,29256,0,2,1000,288,36928,151,24,144,0,0,0,0,0,0,0,0,-32296,0,0,0,4356,0,17314,0
14949,-420,-8152,1024,-41,12,6,29257,1,3,999,280,36928,151,24,144,0,0,0,0,0,0,0,0,-32297,0,0,0,4356,0,17334,0
14959,-406,-8170,1062,-41,11,3,29255,-4,-2,1005,272,36926,146,24,144,0,0,0,0,0,0,0,0,-32296,0,0,0,4355,0,17354,0
14969,-448,-8168,1102,-39,11,8,29256,-1,-1,1002,280,36930,140,24,144,0,0,0,0,0,0,0,0,-32297,0,0,0,4356,0,17374,0
14979,-450,-8144,1112,-43,13,3,29256,0,-5,1001,272,36937,140,24,144,0,0,0,0,0,0,0,0,-32296,0,0,0,4355,0,17394,0
14989,-422,-8202,1014,-51,16,3,29257,4,2,998,280,36940,153,24,144,0,0,0,0,0,0,0,0,-32296,0,0,0,4355,0,17414,0
14999,-394,-8192,984,-49,11,3,29257,1,4,1005,280,36932,162,24,144,0,0,0,0,0,0,0,0,-32296,0,0,0,4356,0,17434,0
15009,-420,-8134,976,-47,13,2,29256,-4,4,1004,272,36929,162,24,144,0,0,0,0,0,0,0,0,-32296,0,0,0,4355,0,17455,0
15019,-442,-8168,1022,-44,13,5,29255,0,-4,1001,280,36927,157,24,144,0,0,0,0,0,0,0,0,-32298,0,0,0,4356,0,17475,0
15029,-358,-8192,1062,-57,12,5,29255,-5,-1,1001,280,36930,149,24,144,0,0,0,0,0,0,0,0,-32296,0,0,0,4356,0,17495,0
15039,-380,-8150,1076,-51,13,10,29255,-7,-5,996,280,36925,142,24,144,0,0,0,0,0,0,0,0,-32297,0,0,0,4355,0,17515,0
15049,-402,-8154,1062,-55,15,12,29256,-4,-2,1001,272,36924,147,24,144,0,0,0,0,0,0,0,0,-32297,0,0,0,4355,0,17535,0
15059,-384,-8146,1046,-57,12,14,29257,1,-3,998,288,36929,152,24,144,0,0,0,0,0,0,0,0,-32297,0,0,0,4355,0,17555,0
15069,-412,-8166,1014,-48,21,11,29256,0,-1,1001,280,36929,151,24,144,0,0,0,0,0,0,0,0,-32297,0,0,0,4355,0,17575,0
15079,-428,-8166,1026,-53,20,11,29257,5,3,1002,272,36928,146,24,144,0,0,0,0,0,0,0,0,-32297,0,0,0,4356,0,17595,0
15089,-374,-8182,1076,-41,12,6,29256,2,-4,1003,288,36925,147,24,144,0,0,0,0,0,0,0,0,-32297,0,0,0,4355,0,17615,0
15099,-376,-8198,1060,-46,20,9,29257,0,0,1003,272,36932,132,24,144,0,0,0,0,0,0,0,0,-32297,0,0,0,4355,0,17635,0
15109,-402,-8156,1058,-47,14,9,29256,0,-7,1001,272,36934,134,24,144,0,0,0,0,0,0,0,0,-32297,0,0,0,4356,0,17655,0
15119,-442,-8184,1056,-43,18,10,29256,0,-2,1005,272,36934,141,24,144,0,0,0,0,0,0,0,0,-32296,0,0,0,4355,0,17675,0
15129,-420,-8168,1014,-50,18,12,29256,-1,-3,1003,272,36926,143,24,144,0,0,0,0,0,0,0,0,-32297,0,0,0,4355,0,17695,0
15139,-436,-8170,1020,-41,17,10,29257,2,2,1000,280,36926,136,24,144,0,0,0,0,0,0,0,0,-32296,0,0,0,4355,0,17715,0
15149,-398,-8184,1040,-50,15,22,29257,-1,2,1001,272,36931,136,24,144,0,0,0,0,0,0,0,0,-32296,0,0,0,4355,0,17735,0
15159,-342,-8172,1050,-50,12,14,29257,-6,-4,1002,280,36932,151,24,144,0,0,0,0,0,0,0,0,-32296,0,0,0,4355,0,17755,0
15169,-438,-8152,1048,-54,21,11,29257,2,-2,999,280,36926,156,24,144,0,0,0,0,0,0,0,0,-32296,0,0,0,4355,0,17775,0
15179,-420,-8156,1034,-58,18,12,29257,-2,0,1002,272,36924,151,24,144,0,0,0,0,0,0,0,0,-32297,0,0,0,4356,0,17795,0
15189,-428,-8174,1048,-54,19,13,29256,-3,-3,1000,280,36928,146,24,144,0,0,0,0,0,0,0,0,-32297,0,0,0,4355,0,17815,0
15199,-424,-8154,1028,-54,19,13,29257,-1,-1,1000,272,36935,151,24,144,0,0,0,0,0,0,0,0,-32296,0,0,0,4357,0,17835,0
15209,-420,-8210,1024,-43,17,12,29257,5,-3,1002,272,36939,160,24,144,0,0,0,0,0,0,0,0,-32297,0,0,0,4356,0,17855,0
15219,-432,-8176,1042,-54,13,15,29258,-5,1,1001,288,36929,151,24,144,0,0,0,0,0,0,0,0,-32296,0,0,0,4357,0,17875,0
15229,-462,-8154,1052,-41,22,7,29258,3,2,999,272,36928,141,24,144,0,0,0,0,0,0,0,0,-32297,0,0,0,4356,0,17895,0
15239,-500,-8180,1080,-54,18,8,29258,-4,0,1000,280,36925,141,24,144,0,0,0,0,0,0,0,0,-32297,0,0,0,4356,0,17915,0
15249,-408,-8158,1054,-43,13,5,29258,-1,-3,1002,280,36926,145,24,144,0,0,0,0,0,0,0,0,-32296,0,0,0,4356,0,17935,0
15259,-368,-8164,1040,-41,9,7,29258,0,4,999,280,36920,146,24,144,0,0,0,0,0,0,0,0,-32297,0,0,0,4355,0,17955,0
15269,-398,-8154,1038,-60,10,9,29258,1,-2,1000,280,36917,145,24,144,0,0,0,0,0,0,0,0,-32296,0,0,0,4356,0,17975,0
15279,-436,-8156,1026,-49,9,6,29258,4,-1,1002,272,36925,131,24,144,0,0,0,0,0,0,0,0,-32297,0,0,0,4355,0,17995,0
15289,-398,-8160,1044,-59,15,4,29258,-1,0,1000,280,36929,137,24,144,0,0,0,0,0,0,0,0,-32296,0,0,0,4356,0,18015,0
15299,-394,-8170,1026,-51,17,0,29258,-2,0,999,272,36925,154,24,144,0,0,0,0,0,0,0,0,-32297,0,0,0,4356,0,18035,0
15309,-396,-8166,1046,-61,17,5,29257,-1,0,1001,280,36922,158,24,144,0,0,0,0,0,0,0,0,-32296,0,0,0,4357,0,18055,0
15319,-430,-8168,1042,-58,14,9,29257,-1,0,999,280,36926,144,24,144,0,0,0,0,0,0,0,0,-32297,0,0,0,4356,0,18075,0
15329,-444,-8168,1032,-55,14,2,29258,-3,1,1000,272,36930,130,24,144,0,0,0,0,0,0,0,0,-32297,0,0,0,4355,0,18095,0
15339,-432,-8186,1024,-63,10,5,29256,-10,-2,1002,280,36926,134,24,144,0,0,0,0,0,0,0,0,-32296,0,0,0,4356,0,18115,0
15349,-458,-8154,1044,-48,15,6,29258,4,1,1002,272,36924,151,24,144,0,0,0,0,0,0,0,0,-32297,0,0,0,4355,0,18135,0
15359,-404,-8164,1046,-57,12,-1,29257,-3,-2,998,280,36925,150,24,144,0,0,0,0,0,0,0,0,-32297,0,0,0,4355,0,18155,0
15369,-422,-8186,1036,-43,17,-5,29256,-8,-3,999,272,36929,142,24,144,0,0,0,0,0,0,0,0,-32297,0,0,0,4356,0,18175,0
15379,-466,-8158,1052,-53,18,-1,29258,0,1,1000,272,36930,140,24,144,0,0,0,0,0,0,0,0,-32297,0,0,0,4355,0,18195,0
15389,-438,-8134,1036,-45,8,-7,29256,-1,-4,1000,280,36928,149,24,144,0,0,0,0,0,0,0,0,-32297,0,0,0,4356,0,18215,0
15399,-388,-8198,1044,-50,10,3,29257,-2,3,1002,280,36927,144,24,144,0,0,0,0,0,0,0,0,-32296,0,0,0,4355,0,18235,0
15409,-372,-8156,1046,-56,15,-2,29257,5,2,1005,272,36931,153,24,144,0,0,0,0,0,0,0,0,-32297,0,0,0,4355,0,18255,0
15419,-418,-8162,1020,-47,7,6,29257,0,0,999,280,36931,142,24,144,0,0,0,0,0,0,0,0,-32297,0,0,0,4356,0,18275,0
15429,-392,-8170,1028,-54,11,3,29258,5,0,999,272,36932,151,24,144,0,0,0,0,0,0,0,0,-32297,0,0,0,4355,0,18295,0
15439,-398,-8182,1044,-57,19,0,29257,-7,5,999,280,36926,144,24,144,0,0,0,0,0,0,0,0,-32296,0,0,0,4356,0,18315,0
15449,-448,-8154,1030,-58,18,8,29257,-5,1,1001,272,36926,138,24,144,0,0,0,0,0,0,0,0,-32297,0,0,0,4355,0,18335,0
15459,-406,-8182,1020,-56,11,6,29257,8,-1,999,280,36927,144,24,144,0,0,0,0,0,0,0,0,-32296,0,0,0,4355,0,18355,0
15469,-414,-8176,1056,-52,9,8,29257,0,3,1004,280,36926,145,24,144,0,0,0,0,0,0,0,0,-32297,0,0,0,4356,0,18375,0
15479,-468,-8186,1044,-59,16,6,29255,-5,-1,1000,288,36919,139,24,144,0,0,0,0,0,0,0,0,-32296,0,0,0,4355,0,18395,0
15489,-378,-8166,1032,-50,14,2,29257,0,2,1001,280,36919,134,24,144,0,0,0,0,0,0,0,0,-32297,0,0,0,4355,0,18415,0
15499,-412,-8148,1038,-57,21,3,29256,-4,-4,999,280,36929,141,24,144,0,0,0,0,0,0,0,0,-32297,0,0,0,4357,0,18435,0
15509,-384,-8160,1054,-48,12,7,29256,-3,-2,999,272,36930,155,24,144,0,0,0,0,0,0,0,0,-32297,0,0,0,4355,0,18455,0
15519,-436,-8148,1036,-52,12,9,29256,-4,0,1003,280,36928,146,24,144,0,0,0,0,0,0,0,0,-32297,0,0,0,4355,0,18475,0
15529,-434,-8176,1016,-48,7,7,29256,0,-2,999,280,36924,133,24,144,0,0,0,0,0,0,0,0,-32296,0,0,0,4355,0,18495,0
15539,-394,-8138,1026,-47,11,10,29257,-5,5,1001,280,36928,129,24,144,0,0,0,0,0,0,0,0,-32297,0,0,0,4356,0,18515,0
15549,-424,-8190,1018,-45,10,10,29258,0,-1,999,288,36931,136,24,144,0,0,0,0,0,0,0,0,-32296,0,0,0,4357,0,18535,0
15559,-412,-8160,1058,-47,12,7,29257,10,2,1004,272,36930,148,24,144,0,0,0,0,0,0,0,0,-32296,0,0,0,4356,0,18555,0
15569,-426,-8176,1056,-57,15,12,29258,-1,8,1000,280,36929,149,24,144,0,0,0,0,0,0,0,0,-32297,0,0,0,4357,0,18575,0
15579,-418,-8154,1030,-44,11,7,29258,-3,4,1002,272,36931,127,24,144,0,0,0,0,0,0,0,0,-32296,0,0,0,4357,0,18595,0
15589,-402,-8150,1050,-60,19,9,29257,-5,1,1001,280,36937,137,24,144,0,0,0,0,0,0,0,0,-32297,0,0,0,4355,0,18615,0
15599,-434,-8154,1034,-54,15,6,29258,0,5,999,288,36938,153,24,144,0,0,0,0,0,0,0,0,-32297,0,0,0,4355,0,18635,0
15609,-440,-8190,1056,-52,20,5,29258,2,1,1002,272,36932,155,24,144,0,0,0,0,0,0,0,0,-32297,0,0,0,4356,0,18655,0
15619,-422,-8194,1048,-59,17,12,29256,-1,-4,999,280,36932,127,24,144,0,0,0,0,0,0,0,0,-32297,0,0,0,4357,0,18675,0
15629,-400,-8176,1024,-45,17,11,29257,1,-1,1000,272,36936,118,24,144,0,0,0,0,0,0,0,0,-32296,0,0,0,4356,0,18695,0
15639,-416,-8174,1028,-63,13,11,29258,3,3,1000,280,36940,123,24,144,0,0,0,0,0,0,0,0,-32296,0,0,0,4355,0,18715,0
15649,-432,-8140,1024,-48,16,5,29257,4,-1,998,280,36940,148,24,144,0,0,0,0,0,0,0,0,-32297,0,0,0,4356,0,18735,0
15659,-424,-8184,1056,-46,14,8,29258,1,4,1002,280,36935,152,24,144,0,0,0,0,0,0,0,0,-32297,0,0,0,4356,0,18755,0
15669,-384,-8172,1046,-43,16,3,29258,10,3,1002,272,36934,136,24,144,0,0,0,0,0,0,0,0,-32297,0,0,0,4356,0,18775,0
15679,-470,-8176,1042,-42,18,10,29257,1,6,1003,280,36931,134,24,144,0,0,0,0,0,0,0,0,-32297,0,0,0,4355,0,18795,0
15689,-466,-8170,1028,-42,15,9,29256,-7,0,1002,280,36934,142,24,144,0,0,0,0,0,0,0,0,-32296,0,0,0,4356,0,18815,0
15699,-418,-8124,1040,-45,15,6,29256,1,-1,997,288,36936,149,24,144,0,0,0,0,0,0,0,0,-32297,0,0,0,4356,0,18835,0
15709,-440,-8172,1030,-55,17,7,29257,2,1,1001,280,36934,135,24,144,0,0,0,0,0,0,0,0,-32297,0,0,0,4356,0,18855,0
15719,-436,-8184,1040,-41,13,0,29257,0,-2,1003,288,36934,132,24,144,0,0,0,0,0,0,0,0,-32297,0,0,0,4355,0,18875,0
15729,-432,-8172,1020,-55,11,7,29258,3,-1,1001,280,36941,139,24,144,0,0,0,0,0,0,0,0,-32297,0,0,0,4355,0,18895,0
15739,-394,-8170,1062,-60,4,1,29258,1,2,1000,272,36942,149,24,144,0,0,0,0,0,0,0,0,-32296,0,0,0,4355,0,18915,0
15749,-422,-8158,1028,-55,20,10,29255,-11,-7,997,288,36943,149,24,144,0,0,0,0,0,0,0,0,-32297,0,0,0,4356,0,18935,0
15759,-402,-8142,1004,-51,17,11,29258,-3,1,1001,272,36940,142,24,144,0,0,0,0,0,0,0,0,-32296,0,0,0,4355,0,18955,0
15769,-404,-8158,1060,-52,17,8,29256,-2,-4,999,280,36941,139,24,144,0,0,0,0,0,0,0,0,-32296,0,0,0,4356,0,18975,0
15779,-458,-8140,1046,-56,18,10,29257,4,-1,1001,272,36943,136,24,144,0,0,0,0,0,0,0,0,-32296,0,0,0,4356,0,18995,0
15789,-426,-8170,1036,-47,18,5,29259,8,5,1000,272,36949,140,24,144,0,0,0,0,0,0,0,0,-32297,0,0,0,4355,0,19015,0
15799,-400,-8188,1046,-49,14,7,29258,0,0,996,288,36950,146,24,144,0,0,0,0,0,0,0,0,-32297,0,0,0,4355,0,19035,0
15809,-440,-8180,1036,-41,12,8,29258,1,4,1001,272,36946,146,24,144,0,0,0,0,0,0,0,0,-32297,0,0,0,4355,0,19055,0
15819,-456,-8184,1028,-42,17,8,29258,1,-1,1002,280,36942,141,24,144,0,0,0,0,0,0,0,0,-32297,0,0,0,4355,0,19075,0
15829,-454,-8172,1042,-46,11,4,29255,-5,0,1003,280,36945,141,24,144,0,0,0,0,0,0,0,0,-32297,0,0,0,4355,0,19096,0
15839,-400,-8178,1022,-39,10,2,29258,1,5,1003,272,36950,134,24,144,0,0,0,0,0,0,0,0,-32297,0,0,0,4355,0,19116,0
15849,-396,-8168,1028,-46,12,1,29257,2,-1,1000,280,36950,138,24,144,0,0,0,0,0,0,0,0,-32297,0,0,0,4355,0,19136,0
15859,-416,-8194,1056,-40,6,-1,29257,2,-4,1001,280,36944,139,24,144,0,0,0,0,0,0,0,0,-32297,0,0,0,4355,0,19156,0
15869,-380,-8160,1060,-62,16,0,29257,3,1,1000,280,36945,141,24,144,0,0,0,0,0,0,0,0,-32297,0,0,0,4356,0,19177,0
15879,-410,-8152,1056,-51,11,-1,29255,-7,0,999,280,36955,143,24,144,0,0,0,0,0,0,0,0,-32297,0,0,0,4357,0,19197,0
15889,-380,-8176,1054,-55,15,5,29256,4,0,998,280,36964,147,24,144,0,0,0,0,0,0,0,0,-32297,0,0,0,4355,0,19217,0
15899,-390,-8160,1072,-59,18,1,29257,-1,0,998,280,36967,154,24,144,0,0,0,0,0,0,0,0,-32296,0,0,0,4357,0,19237,0
15909,-368,-8196,1056,-59,14,11,29257,7,-1,1000,272,36952,147,24,144,0,0,0,0,0,0,0,0,-32297,0,0,0,4355,0,19257,0
15919,-398,-8186,1066,-59,16,10,29256,-2,-3,1000,280,36940,120,24,144,0,0,0,0,0,0,0,0,-32297,0,0,0,4355,0,19277,0
15929,-412,-8162,1048,-52,8,2,29257,-3,2,999,272,36938,112,24,144,0,0,0,0,0,0,0,0,-32297,0,0,0,4355,0,19297,0
15939,-432,-8154,1000,-57,12,4,29256,-3,-3,1000,272,36946,124,24,144,0,0,0,0,0,0,0,0,-32297,0,0,0,4355,0,19317,0
15949,-436,-8150,970,-47,16,3,29256,-1,0,1003,280,36946,135,24,144,0,0,0,0,0,0,0,0,-32296,0,0,0,4355,0,19337,0
15959,-436,-8174,996,-42,18,-5,29255,-10,-4,1002,272,36941,136,24,144,0,0,0,0,0,0,0,0,-32297,0,0,0,4357,0,19358,0
15969,-380,-8140,1030,-46,9,-1,29255,1,-3,1004,280,36932,129,24,144,0,0,0,0,0,0,0,0,-32297,0,0,0,4356,0,19378,0
15979,-358,-8190,1050,-41,11,1,29255,-1,3,1001,280,36925,128,24,144,0,0,0,0,0,0,0,0,-32297,0,0,0,4356,0,19398,0
15989,-366,-8194,1058,-53,15,-4,29257,1,5,1001,280,36928,132,24,144,0,0,0,0,0,0,0,0,-32297,0,0,0,4356,0,19419,0
15999,-384,-8158,1050,-42,7,3,29257,2,2,1003,280,36930,133,24,144,0,0,0,0,0,0,0,0,-32297,0,0,0,4355,0,19438,0
16009,-404,-8180,1048,-56,18,3,29257,-7,1,1000,280,36926,124,24,144,0,0,0,0,0,0,0,0,-32297,0,0,0,4355,0,19459,0
16019,-416,-8210,1046,-48,13,6,29255,-1,0,1002,272,36924,116,24,144,0,0,0,0,0,0,0,0,-32296,0,0,0,4355,0,19479,0
16029,-412,-8154,1018,-57,16,11,29256,2,0,1000,288,36923,118,24,144,0,0,0,0,0,0,0,0,-32297,0,0,0,4355,0,19499,0
16039,-382,-8172,1038,-58,16,10,29257,12,-1,1003,288,36927,128,24,144,0,0,0,0,0,0,0,0,-32297,0,0,0,4355,0,19519,0
16049,-450,-8196,1020,-48,12,6,29256,-1,4,1004,272,36927,136,24,144,0,0,0,0,0,0,0,0,-32296,0,0,0,4356,0,19539,0
16059,-414,-8156,1050,-49,15,11,29256,-6,-5,1003,288,36928,127,24,144,0,0,0,0,0,0,0,0,-32296,0,0,0,4356,0,19559,0
16069,-400,-8162,1022,-44,18,10,29257,1,1,999,288,36923,122,24,144,0,0,0,0,0,0,0,0,-32296,0,0,0,4355,0,19579,0
16079,-410,-8172,1036,-48,20,10,29255,-5,-1,1001,280,36923,125,24,144,0,0,0,0,0,0,0,0,-32297,0,0,0,4355,0,19599,0
16089,-416,-8156,1030,-34,15,14,29256,5,2,1000,280,36922,132,24,144,0,0,0,0,0,0,0,0,-32297,0,0,0,4356,0,19619,0
16099,-430,-8170,1026,-42,17,9,29258,6,11,1000,288,36922,133,24,144,0,0,0,0,0,0,0,0,-32297,0,0,0,4355,0,19639,0
16109,-396,-8172,1038,-42,12,9,29257,0,5,1000,280,36921,125,24,144,0,0,0,0,0,0,0,0,-32296,0,0,0,4356,0,19660,0
16119,-442,-8148,1072,-40,15,9,29257,6,1,1002,280,36919,117,24,144,0,0,0,0,0,0,0,0,-32296,0,0,0,4355,0,19680,0
16129,-428,-8152,1046,-46,14,10,29257,1,1,1001,280,36920,125,24,144,0,0,0,0,0,0,0,0,-32296,0,0,0,4355,0,19700,0
16139,-420,-8170,1040,-41,12,8,29257,4,1,1002,280,36928,133,24,144,0,0,0,0,0,0,0,0,-32297,0,0,0,4355,0,19720,0
16149,-464,-8150,1032,-53,12,8,29256,5,-3,1001,280,36930,136,24,144,0,0,0,0,0,0,0,0,-32296,0,0,0,4355,0,19740,0
16159,-394,-8174,1064,-53,14,9,29255,-9,-7,1002,272,36926,123,24,144,0,0,0,0,0,0,0,0,-32297,0,0,0,4355,0,19760,0
16169,-398,-8162,1066,-54,9,9,29256,-6,-4,1003,272,36922,117,24,144,0,0,0,0,0,0,0,0,-32296,0,0,0,4355,0,19780,0
16179,-460,-8156,1062,-57,12,5,29256,-1,1,1001,280,36916,120,24,144,0,0,0,0,0,0,0,0,-32296,0,0,0,4355,0,19800,0
16189,-402,-8160,1042,-54,17,9,29256,-4,-2,1001,280,36918,119,24,144,0,0,0,0,0,0,0,0,-32297,0,0,0,4357,0,19820,0
16199,-384,-8154,1032,-59,19,8,29255,2,-6,1002,272,36923,125,24,144,0,0,0,0,0,0,0,0,-32296,0,0,0,4356,0,19840,0
16209,-376,-8160,1014,-40,13,7,29255,-8,-2,1000,280,36920,129,24,144,0,0,0,0,0,0,0,0,-32297,0,0,0,4355,0,19860,0
16219,-374,-8180,1016,-49,13,12,29257,-1,0,1000,280,36916,129,24,144,0,0,0,0,0,0,0,0,-32297,0,0,0,4356,0,19880,0
16229,-436,-8180,1058,-38,12,16,29256,-6,-1,999,280,36915,121,24,144,0,0,0,0,0,0,0,0,-32296,0,0,0,4355,0,19900,0
16239,-434,-8170,1056,-35,14,13,29258,9,2,1001,280,36918,127,24,144,0,0,0,0,0,0,0,0,-32297,0,0,0,4356,0,19920,0
16249,692,-8332,1108,-28,25,-62,29239,-99,-36,412,0,36924,132,24,144,0,0,0,0,0,0,0,0,-32296,0,0,0,4355,0,19940,0
16259,-1066,-7918,882,-15,72,-180,29160,-184,-175,324,0,36919,121,24,144,0,0,0,0,0,0,0,0,-32296,0,0,0,4349,-1,19962,0
16269,-1390,-8146,908,-13,160,-233,29093,-131,-80,244,0,36918,104,24,144,0,0,0,0,0,0,0,0,-32296,0,0,0,4344,0,19982,0
16279,-42,-8248,1092,-19,116,-197,29054,-79,88,142,0,36921,87,24,144,0,0,0,0,0,0,0,0,-32296,0,0,0,4341,0,20002,0
16289,416,-8194,1198,-38,9,-57,29034,-29,87,77,0,36925,93,24,144,0,0,0,0,0,0,0,0,-32296,0,0,0,4339,0,20022,0
16299,158,-8200,1228,-56,-29,12,29030,-6,64,24,0,36923,105,24,144,0,0,0,0,0,0,0,0,-32296,0,0,0,4337,0,20042,0
16309,-628,-8122,984,-55,-12,19,29029,3,30,9,0,36919,105,24,144,0,0,0,0,0,0,0,0,-32296,0,0,0,4338,0,20062,0
16319,-726,-8184,924,-54,19,-7,29027,-9,7,9,0,36915,105,24,144,0,0,0,0,0,0,0,0,-32296,0,0,0,4337,0,20082,0
16329,-264,-8142,1032,-37,29,-20,29027,0,-6,19,0,36917,113,24,144,0,0,0,0,0,0,0,0,-32296,0,0,0,4337,0,20102,0
16339,-126,-8146,1122,-44,19,-7,29021,-17,-7,38,0,36919,117,24,144,0,0,0,0,0,0,0,0,-32297,0,0,0,4337,0,20122,0
16349,-420,-8178,1102,-48,4,-7,29011,-19,-15,60,0,36922,114,24,144,0,0,0,0,0,0,0,0,-32297,0,0,0,4335,0,20142,0
16359,-636,-8130,1012,-52,21,-23,28994,-37,-20,77,0,36919,102,24,144,0,0,0,0,0,0,0,0,-32296,0,0,0,4336,0,20162,0
16369,-526,-8148,960,-47,40,-45,28982,-19,-3,52,0,36918,99,24,144,0,0,0,0,0,0,0,0,-32296,0,0,0,4335,0,20182,0
16379,-212,-8186,1002,-39,30,-36,28980,-5,31,20,0,36918,108,24,144,0,0,0,0,0,0,0,0,-32296,0,0,0,4335,0,20202,0
16389,-156,-8152,1074,-42,2,2,28977,-3,15,19,0,36919,114,24,144,0,0,0,0,0,0,0,0,-32296,0,0,0,4335,0,20222,0
16399,-334,-8152,1082,-41,0,9,28975,-2,5,12,0,36920,109,24,144,0,0,0,0,0,0,0,0,-32296,0,0,0,4334,0,20242,0
16409,-456,-8186,1076,-48,16,0,28975,-4,6,6,0,36917,98,24,144,0,0,0,0,0,0,0,0,-32296,0,0,0,4333,0,20262,0
16419,-384,-8158,1070,-53,25,-8,28975,1,2,11,0,36913,89,24,144,0,0,0,0,0,0,0,0,-32296,0,0,0,4333,0,20282,0
16429,-256,-8180,1104,-52,22,3,28973,0,-3,14,0,36913,96,24,144,0,0,0,0,0,0,0,0,-32296,0,0,0,4333,0,20302,0
16439,-278,-8168,1088,-51,7,9,28972,-4,1,10,0,36915,112,24,144,0,0,0,0,0,0,0,0,-32296,0,0,0,4333,0,20322,0
16449,-436,-8162,1000,-51,8,14,28971,-8,1,5,0,36918,112,24,144,0,0,0,0,0,0,0,0,-32296,0,0,0,4333,0,20342,0
16459,-464,-8150,982,-45,18,6,28971,5,1,4,0,36917,112,24,144,0,0,0,0,0,0,0,0,-32296,0,0,0,4333,0,20362,0
16469,-392,-8184,1042,-44,16,0,28972,-1,6,8,0,36914,117,24,144,0,0,0,0,0,0,0,0,-32297,0,0,0,4333,0,20382,0
16479,-312,-8188,1102,-41,15,-3,28970,-1,-4,8,0,36917,113,24,144,0,0,0,0,0,0,0,0,-32296,0,0,0,4333,0,20402,0
16489,-360,-8188,1102,-52,11,8,28969,-7,-3,8,0,36913,106,24,144,0,0,0,0,0,0,0,0,-32296,0,0,0,4333,0,20422,0
16499,-386,-8190,1050,-57,10,7,28970,8,2,6,0,36913,96,24,144,0,0,0,0,0,0,0,0,-32297,0,0,0,4333,0,20442,0
16509,-384,-8182,1014,-50,16,1,28969,-1,2,8,0,36911,98,24,144,0,0,0,0,0,0,0,0,-32296,0,0,0,4333,0,20462,0
16519,-358,-8160,1072,-48,17,6,28969,0,4,7,0,36910,98,24,144,0,0,0,0,0,0,0,0,-32296,0,0,0,4333,0,20482,0
16529,-328,-8164,1048,-50,18,9,28968,-3,1,6,0,36913,92,24,144,0,0,0,0,0,0,0,0,-32296,0,0,0,4332,0,20502,0
16539,-372,-8170,1028,-54,16,19,28967,1,1,7,0,36915,96,24,144,0,0,0,0,0,0,0,0,-32297,0,0,0,4333,0,20522,0
16549,-384,-8168,1004,-42,16,12,28968,3,2,8,0,36914,92,24,144,0,0,0,0,0,0,0,0,-32297,0,0,0,4332,0,20542,0
16559,-374,-8130,1028,-44,15,10,28968,-4,3,4,0,36916,97,24,144,0,0,0,0,0,0,0,0,-32296,0,0,0,4332,0,20562,0
16569,-374,-8172,1074,-44,17,12,28968,1,1,7,0,36917,94,24,144,0,0,0,0,0,0,0,0,-32296,0,0,0,4332,0,20582,0
16579,-386,-8168,1054,-46,16,10,28969,1,0,5,0,36921,96,24,144,0,0,0,0,0,0,0,0,-32297,0,0,0,4333,0,20602,0
16589,-424,-8162,1080,-46,16,1,28968,3,-5,6,0,36919,94,24,144,0,0,0,0,0,0,0,0,-32296,0,0,0,4333,0,20622,0
16599,-394,-8164,1086,-52,9,6,28968,-4,-3,8,0,36919,100,24,144,0,0,0,0,0,0,0,0,-32296,0,0,0,4333,0,20642,0
16609,-428,-8174,1056,-49,16,2,28967,-2,-7,6,0,36920,97,24,144,0,0,0,0,0,0,0,0,-32296,0,0,0,4334,0,20662,0
16619,-376,-8172,1042,-57,17,-3,28967,0,-5,9,0,36921,101,24,144,0,0,0,0,0,0,0,0,-32296,0,0,0,4333,0,20682,0
16629,-378,-8196,998,-52,9,5,28968,0,4,7,0,36921,112,24,144,0,0,0,0,0,0,0,0,-32296,0,0,0,4333,0,20702,0
16639,-388,-8156,1028,-49,14,1,28966,-4,-1,9,0,36918,116,24,144,0,0,0,0,0,0,0,0,-32296,0,0,0,4333,0,20722,0
16649,-404,-8168,1048,-51,16,-2,28963,-7,-3,17,0,36916,110,24,144,0,0,0,0,0,0,0,0,-32296,0,0,0,4333,0,20742,0
16659,-412,-8166,1068,-50,18,-3,28962,-7,1,16,0,36923,101,24,144,0,0,0,0,0,0,0,0,-32296,0,0,0,4332,0,20762,0
16669,-376,-8170,1024,-50,14,-7,28958,-8,-7,26,0,36922,89,24,144,0,0,0,0,0,0,0,0,-32296,0,0,0,4332,0,20782,0
16679,-372,-8156,1026,-49,14,-17,28954,-13,-7,34,0,36923,90,24,144,0,0,0,0,0,0,0,0,-32296,0,0,0,4332,0,20802,0
16689,-410,-8202,1036,-51,23,-22,28945,-20,-12,50,0,36916,97,24,144,0,0,0,0,0,0,0,0,-32296,0,0,0,4332,0,20822,0
16699,-398,-8170,1022,-49,25,-24,28934,-21,-14,56,0,36918,93,24,144,0,0,0,0,0,0,0,0,-32296,0,0,0,4331,0,20842,0
16709,-360,-8152,1032,-47,26,-14,28928,-18,2,33,0,36918,83,24,144,0,0,0,0,0,0,0,0,-32296,0,0,0,4329,0,20862,0
16719,-226,-8198,1056,-48,19,0,28926,0,16,9,0,36916,80,24,144,0,0,0,0,0,0,0,0,-32296,0,0,0,4329,0,20882,0
16729,-284,-8148,1078,-54,8,17,28927,1,12,6,0,36916,83,24,144,0,0,0,0,0,0,0,0,-32296,0,0,0,4329,0,20902,0
16739,-402,-8156,1054,-51,7,19,28927,-1,1,3,0,36917,89,24,144,0,0,0,0,0,0,0,0,-32296,0,0,0,4330,0,20922,0
16749,-458,-8176,1020,-51,14,5,28927,0,0,7,0,36920,83,24,144,0,0,0,0,0,0,0,0,-32296,0,0,0,4329,0,20942,0
16759,-406,-8158,1040,-51,18,3,28926,0,3,4,0,36922,87,24,144,0,0,0,0,0,0,0,0,-32296,0,0,0,4330,0,20968,0
16769,-338,-8170,1074,-50,10,2,28926,-3,2,8,0,36922,100,24,144,0,0,0,0,0,0,0,0,-32296,0,0,0,4329,0,20988,0
16779,-350,-8180,1058,-56,11,7,28926,-3,-2,7,0,36923,103,24,144,0,0,0,0,0,0,0,0,-32296,0,0,0,4329,0,21008,0
16789,-364,-8148,1030,-52,9,4,28926,0,-1,6,0,36926,107,24,144,0,0,0,0,0,0,0,0,-32296,0,0,0,4329,0,21028,0
16799,-366,-8182,1026,-47,22,7,28926,5,-1,4,0,36923,84,24,144,0,0,0,0,0,0,0,0,-32297,0,0,0,4330,0,21048,0
16809,-338,-8172,1034,-48,13,5,28925,-4,1,4,0,36920,85,24,144,0,0,0,0,0,0,0,0,-32297,0,0,0,4330,0,21068,0
16819,-338,-8180,1060,-49,14,10,28925,5,1,6,0,36920,83,24,144,0,0,0,0,0,0,0,0,-32296,0,0,0,4329,0,21088,0
16829,-378,-8146,1066,-47,14,10,28926,4,0,4,0,36924,96,24,144,0,0,0,0,0,0,0,0,-32296,0,0,0,4329,0,21108,0
16839,-362,-8188,1088,-44,13,11,28926,7,2,3,0,36924,95,24,144,0,0,0,0,0,0,0,0,-32296,0,0,0,4329,0,21128,0
16849,-386,-8186,1060,-53,15,8,28926,3,0,4,0,36921,93,24,144,0,0,0,0,0,0,0,0,-32296,0,0,0,4329,0,21148,0
16859,-350,-8134,1056,-48,14,6,28925,0,1,6,0,36917,86,24,144,0,0,0,0,0,0,0,0,-32296,0,0,0,4329,0,21168,0
16869,-364,-8184,1036,-48,12,8,28925,-4,-5,6,0,36925,83,23,144,0,0,0,0,0,0,0,0,-32296,0,0,0,4329,0,21189,0
16879,-350,-8170,1028,-45,14,8,28926,2,2,5,0,36930,94,24,144,0,0,0,0,0,0,0,0,-32296,0,0,0,4331,0,21209,0
16889,-376,-8162,1062,-44,11,9,28925,1,3,3,0,36932,95,24,144,0,0,0,0,0,0,0,0,-32296,0,0,0,4329,0,21229,0
16899,-376,-8186,1092,-47,12,9,28927,10,3,6,0,36919,85,24,144,0,0,0,0,0,0,0,0,-32296,0,0,0,4329,0,21249,0
16909,-360,-8176,1078,-56,15,9,28925,-3,2,5,0,36920,83,24,144,0,0,0,0,0,0,0,0,-32296,0,0,0,4329,0,21269,0
16919,-338,-8178,1074,-56,19,7,28925,-7,-2,4,0,36924,88,24,144,0,0,0,0,0,0,0,0,-32296,0,0,0,4330,0,21289,0
16929,-366,-8194,1052,-52,17,7,28926,1,0,5,0,36926,90,24,144,0,0,0,0,0,0,0,0,-32296,0,0,0,4331,0,21309,0
16939,-372,-8188,1038,-58,14,7,28925,0,2,4,0,36922,88,24,144,0,0,0,0,0,0,0,0,-32296,0,0,0,4329,0,21329,0
16949,-372,-8152,1030,-44,21,14,28925,0,-3,5,0,36921,91,24,144,0,0,0,0,0,0,0,0,-32296,0,0,0,4329,0,21349,0
16959,-360,-8172,1016,-46,14,12,28925,3,1,4,0,36922,97,24,144,0,0,0,0,0,0,0,0,-32297,0,0,0,4331,0,21370,0
16969,-356,-8178,1042,-48,15,10,28926,6,2,2,0,36929,102,24,144,0,0,0,0,0,0,0,0,-32296,0,0,0,4330,0,21390,0
16979,-368,-8160,1044,-50,16,11,28926,1,2,6,0,36930,94,24,144,0,0,0,0,0,0,0,0,-32296,0,0,0,4330,0,21410,0
16989,-370,-8158,1066,-47,18,15,28926,4,-1,4,0,36927,89,24,144,0,0,0,0,0,0,0,0,-32297,0,0,0,4330,0,21430,0
16999,-382,-8186,1056,-53,19,13,28925,-5,2,4,0,36925,79,24,144,0,0,0,0,0,0,0,0,-32296,0,0,0,4331,0,21450,0
17009,-364,-8170,1038,-49,12,18,28926,1,-1,3,0,36921,80,24,144,0,0,0,0,0,0,0,0,-32296,0,0,0,4329,0,21470,0
17019,-354,-8180,1042,-51,14,19,28924,-4,-5,5,0,36921,91,24,144,0,0,0,0,0,0,0,0,-32296,0,0,0,4329,0,21490,0
17029,-376,-8174,1048,-58,19,18,28925,1,4,5,0,36921,97,24,144,0,0,0,0,0,0,0,0,-32297,0,0,0,4329,0,21510,0
17039,-410,-8164,1064,-49,15,20,28925,-5,-3,4,0,36919,94,24,144,0,0,0,0,0,0,0,0,-32296,0,0,0,4330,0,21530,0
17049,-392,-8186,1034,-46,19,11,28926,-2,0,5,0,36919,88,24,144,0,0,0,0,0,0,0,0,-32296,0,0,0,4332,0,21550,0
17059,-386,-8198,1060,-56,19,14,28926,2,0,4,0,36921,86,24,144,0,0,0,0,0,0,0,0,-32296,0,0,0,4331,0,21570,0
17069,-388,-8168,1050,-55,17,10,28924,-5,-4,2,0,36919,81,24,144,0,0,0,0,0,0,0,0,-32296,0,0,0,4330,0,21590,0
17079,-372,-8170,1020,-47,16,6,28925,-2,0,8,0,36919,89,24,144,0,0,0,0,0,0,0,0,-32296,0,0,0,4331,0,21610,0
17089,-366,-8176,1046,-45,13,11,28925,-2,2,6,0,36922,91,24,144,0,0,0,0,0,0,0,0,-32296,0,0,0,4329,0,21630,0
17099,-392,-8190,1040,-44,14,3,28926,1,4,5,0,36920,93,24,144,0,0,0,0,0,0,0,0,-32296,0,0,0,4330,0,21650,0
17109,-376,-8166,1054,-46,20,1,28924,-4,2,4,0,36916,100,24,144,0,0,0,0,0,0,0,0,-32296,0,0,0,4330,0,21670,0
17119,-398,-8172,1070,-52,17,2,28925,4,2,3,0,36916,94,24,144,0,0,0,0,0,0,0,0,-32297,0,0,0,4330,0,21690,0
17129,-366,-8194,1044,-46,17,10,28926,-3,3,6,0,36917,95,24,144,0,0,0,0,0,0,0,0,-32296,0,0,0,4331,0,21710,0
17139,-354,-8188,1056,-48,17,8,28924,-9,-3,5,0,36919,94,24,144,0,0,0,0,0,0,0,0,-32297,0,0,0,4330,0,21730,0
17149,-370,-8172,1068,-51,20,10,28924,-6,-3,5,0,36919,90,24,144,0,0,0,0,0,0,0,0,-32296,0,0,0,4330,0,21750,0
17159,-376,-8172,1060,-51,16,7,28927,0,3,3,0,36928,92,24,144,0,0,0,0,0,0,0,0,-32296,0,0,0,4329,0,21770,0
17169,-360,-8166,1064,-48,14,13,28925,7,-3,5,0,36926,89,24,144,0,0,0,0,0,0,0,0,-32296,0,0,0,4331,0,21790,0
17179,-352,-8178,1052,-48,14,10,28927,2,6,6,0,36931,94,24,144,0,0,0,0,0,0,0,0,-32296,0,0,0,4331,0,21810,0
17189,-398,-8142,1056,-53,12,10,28925,0,-6,5,0,36921,87,24,144,0,0,0,0,0,0,0,0,-32296,0,0,0,4330,0,21830,0
17199,-380,-8124,1026,-54,18,11,28923,-7,-4,4,0,36918,75,24,144,0,0,0,0,0,0,0,0,-32296,0,0,0,4331,0,21850,0
17209,-388,-8172,1040,-48,13,7,28925,0,2,5,0,36919,75,24,144,0,0,0,0,0,0,0,0,-32297,0,0,0,4331,0,21870,0
17219,-364,-8162,1022,-39,11,9,28927,0,8,5,0,36920,89,24,144,0,0,0,0,0,0,0,0,-32297,0,0,0,4331,0,21890,0
17229,-396,-8158,1034,-39,16,14,28925,-6,-2,6,0,36916,90,24,144,0,0,0,0,0,0,0,0,-32296,0,0,0,4330,0,21910,0
17239,-400,-8176,1042,-41,14,3,28925,1,0,3,0,36912,90,24,144,0,0,0,0,0,0,0,0,-32296,0,0,0,4329,0,21930,0
17249,-366,-8144,1074,-49,18,4,28925,-4,0,3,0,36910,86,24,144,0,0,0,0,0,0,0,0,-32296,0,0,0,4329,0,21950,0
17259,-358,-8152,1078,-44,11,10,28924,-3,-4,6,0,36912,94,24,144,0,0,0,0,0,0,0,0,-32296,0,0,0,4329,0,21970,0
17269,-408,-8152,1078,-52,17,2,28925,-3,1,4,0,36913,101,24,144,0,0,0,0,0,0,0,0,-32296,0,0,0,4329,0,21990,0
17279,-380,-8154,1074,-49,18,4,28925,5,1,5,0,36913,102,24,144,0,0,0,0,0,0,0,0,-32296,0,0,0,4330,0,22010,0
17289,-374,-8160,1010,-51,11,2,28927,9,7,5,0,36911,109,24,144,0,0,0,0,0,0,0,0,-32296,0,0,0,4329,0,22030,0
17299,-386,-8180,1030,-52,10,5,28924,-2,-4,4,0,36910,103,24,144,0,0,0,0,0,0,0,0,-32296,0,0,0,4330,0,22050,0
17309,-368,-8158,1046,-47,6,3,28925,3,5,5,0,36908,104,24,144,0,0,0,0,0,0,0,0,-32296,0,0,0,4329,0,22070,0
17319,-384,-8170,1074,-46,15,0,28924,-5,-1,6,0,36909,95,24,144,0,0,0,0,0,0,0,0,-32296,0,0,0,4331,0,22090,0
17329,-388,-8178,1040,-51,13,-5,28924,-3,-1,7,0,36907,103,24,144,0,0,0,0,0,0,0,0,-32296,0,0,0,4330,0,22110,0
17339,-384,-8172,1048,-51,11,-1,28925,1,1,5,0,36909,93,24,144,0,0,0,0,0,0,0,0,-32296,0,0,0,4330,0,22130,0
17349,-382,-8136,1036,-49,11,3,28926,2,2,7,0,36910,89,24,144,0,0,0,0,0,0,0,0,-32296,0,0,0,4331,0,22150,0
17359,-356,-8186,1056,-51,14,6,28924,0,1,7,0,36911,92,24,144,0,0,0,0,0,0,0,0,-32296,0,0,0,4331,0,22170,0
17369,-366,-8184,1040,-53,10,4,28924,-4,1,5,0,36908,88,24,144,0,0,0,0,0,0,0,0,-32296,0,0,0,4330,0,22190,0
17379,-368,-8152,1028,-50,11,3,28924,1,0,6,0,36906,88,24,144,0,0,0,0,0,0,0,0,-32296,0,0,0,4329,0,22210,0
17389,-358,-8190,1052,-49,12,9,28925,0,3,6,0,36918,82,24,144,0,0,0,0,0,0,0,0,-32296,0,0,0,4330,0,22230,0
17399,-370,-8148,1060,-52,12,7,28924,-5,-3,5,0,36920,83,24,144,0,0,0,0,0,0,0,0,-32296,0,0,0,4331,0,22250,0
17409,-366,-8154,1036,-54,14,3,28925,3,2,5,0,36923,93,24,144,0,0,0,0,0,0,0,0,-32296,0,0,0,4329,0,22270,0
17419,-356,-8184,1034,-56,18,8,28924,-7,0,6,0,36915,100,24,144,0,0,0,0,0,0,0,0,-32296,0,0,0,4329,0,22290,0
17429,-386,-8174,1056,-50,17,9,28925,0,-2,7,0,36914,108,24,144,0,0,0,0,0,0,0,0,-32296,0,0,0,4331,0,22310,0
17439,-376,-8168,1044,-49,17,9,28924,-4,0,5,0,36912,101,24,144,0,0,0,0,0,0,0,0,-32296,0,0,0,4329,0,22330,0
17449,-368,-8180,1036,-54,14,6,28924,-6,0,5,0,36910,98,24,144,0,0,0,0,0,0,0,0,-32296,0,0,0,4330,0,22350,0
17459,-372,-8160,1034,-53,17,8,28926,7,7,5,0,36907,94,24,144,0,0,0,0,0,0,0,0,-32296,0,0,0,4330,0,22370,0
17469,-398,-8172,1066,-48,14,8,28925,2,-2,5,0,36906,97,24,144,0,0,0,0,0,0,0,0,-32296,0,0,0,4331,0,22390,0
17479,-404,-8288,1070,-51,16,10,28923,-6,0,6,0,36909,96,24,144,0,0,0,0,0,0,0,0,-32296,0,0,0,4329,0,22410,0
17489,-360,-8040,1086,-59,17,-5,28923,-2,-4,4,0,36911,95,24,144,0,0,0,0,0,0,0,0,-32296,0,0,0,4330,0,22430,0
17499,-368,-8104,1052,-52,19,6,28924,-2,-1,6,0,36909,102,24,144,0,0,0,0,0,0,0,0,-32296,0,0,0,4330,0,22450,0
17509,-334,-8162,904,-41,6,9,28923,0,-1,4,0,36908,105,24,144,0,0,0,0,0,0,0,0,-32296,0,0,0,4329,0,22470,0
17519,-414,-8126,966,-31,14,0,28924,-2,0,5,0,36911,103,24,144,0,0,0,0,0,0,0,0,-32296,0,0,0,4331,0,22490,0
17529,-406,-8122,1090,-34,15,2,28923,1,-1,4,0,36912,98,24,144,0,0,0,0,0,0,0,0,-32296,0,0,0,4331,0,22510,0
17539,-358,-8194,1094,-44,17,11,28923,-4,1,6,0,36915,93,24,144,0,0,0,0,0,0,0,0,-32297,0,0,0,4330,0,22530,0
17549,-300,-8120,1032,-31,15,6,28924,2,0,4,0,36911,101,24,144,0,0,0,0,0,0,0,0,-32296,0,0,0,4330,0,22550,0
17559,-358,-8254,1072,-35,18,7,28924,-2,3,6,0,36911,102,24,144,0,0,0,0,0,0,0,0,-32296,0,0,0,4329,0,22570,0
17569,-388,-8250,1226,-45,18,16,28923,-6,-2,3,0,36915,106,24,144,0,0,0,0,0,0,0,0,-32297,0,0,0,4330,0,22590,0
17579,-324,-8204,1170,-59,19,9,28924,-2,3,4,0,36920,117,24,144,0,0,0,0,0,0,0,0,-32296,0,0,0,4329,0,22610,0
17589,-300,-8216,992,-60,23,26,28923,-7,2,3,0,36918,111,24,144,0,0,0,0,0,0,0,0,-32296,0,0,0,4329,0,22630,0
17599,-282,-8192,920,-45,17,32,28925,9,3,3,0,36911,103,24,144,0,0,0,0,0,0,0,0,-32296,0,0,0,4329,0,22650,0
17609,-394,-8144,890,-27,16,28,28925,3,4,4,0,36915,104,24,144,0,0,0,0,0,0,0,0,-32296,0,0,0,4329,0,22670,0
17619,-416,-8150,916,-26,17,25,28925,1,3,3,0,36923,108,24,144,0,0,0,0,0,0,0,0,-32296,0,0,0,4330,0,22690,0
17629,-442,-8198,1054,-19,13,29,28924,-4,-2,3,0,36923,116,24,144,0,0,0,0,0,0,0,0,-32296,0,0,0,4331,0,22710,0
17639,-434,-8148,1160,-12,14,24,28925,5,5,5,0,36916,108,24,144,0,0,0,0,0,0,0,0,-32296,0,0,0,4331,0,22730,0
17649,-464,-8118,1158,-29,8,4,28924,-3,4,4,0,36914,104,24,144,0,0,0,0,0,0,0,0,-32296,0,0,0,4331,0,22750,0
17659,-526,-8190,1232,-47,17,2,28925,2,0,5,0,36919,109,24,144,0,0,0,0,0,0,0,0,-32296,0,0,0,4331,0,22770,0
17669,-426,-8142,1130,-50,15,-8,28924,-4,-4,5,0,36921,111,24,144,0,0,0,0,0,0,0,0,-32296,0,0,0,4330,0,22790,0
17679,-348,-8180,1026,-52,19,-10,28925,0,-3,8,0,36916,106,24,144,0,0,0,0,0,0,0,0,-32296,0,0,0,4330,0,22810,0
17689,-302,-8174,1016,-37,12,1,28924,3,0,5,0,36913,99,24,144,0,0,0,0,0,0,0,0,-32296,0,0,0,4331,0,22830,0
17699,-290,-8206,966,-43,12,6,28924,0,4,4,0,36918,108,24,144,0,0,0,0,0,0,0,0,-32296,0,0,0,4331,0,22850,0
17709,-290,-8164,1060,-39,17,11,28924,-1,0,5,0,36925,117,24,144,0,0,0,0,0,0,0,0,-32297,0,0,0,4331,0,22870,0
17719,-306,-8130,1094,-36,15,9,28924,2,-2,5,0,36923,117,24,144,0,0,0,0,0,0,0,0,-32297,0,0,0,4329,0,22890,0
17729,-328,-8218,1136,-39,16,29,28924,-1,3,2,0,36920,110,24,144,0,0,0,0,0,0,0,0,-32296,0,0,0,4331,0,22910,0
17739,-368,-8170,1150,-46,14,26,28925,7,-1,6,0,36919,116,24,144,0,0,0,0,0,0,0,0,-32296,0,0,0,4331,0,22930,0
17749,-364,-8158,1046,-52,19,27,28926,1,3,3,0,36922,115,24,144,0,0,0,0,0,0,0,0,-32296,0,0,0,4330,0,22950,0
17759,-404,-8196,1024,-45,17,35,28923,0,-3,3,0,36925,115,24,144,0,0,0,0,0,0,0,0,-32296,0,0,0,4329,0,22970,0
17769,-464,-8154,962,-27,13,25,28926,8,4,3,0,36923,109,24,144,0,0,0,0,0,0,0,0,-32296,0,0,0,4330,0,22990,0
17779,-426,-8108,1012,-28,12,18,28926,10,0,6,0,36922,107,24,144,0,0,0,0,0,0,0,0,-32296,0,0,0,4330,0,23010,0
17789,-462,-8202,1068,-30,12,19,28924,-2,-2,5,0,36927,110,24,144,0,0,0,0,0,0,0,0,-32297,0,0,0,4329,0,23030,0
17799,-408,-8146,1068,-28,12,13,28925,1,-2,3,0,36929,118,24,144,0,0,0,0,0,0,0,0,-32296,0,0,0,4331,0,23050,0
17809,-434,-8154,1116,-40,10,-5,28925,6,-1,5,0,36926,117,24,144,0,0,0,0,0,0,0,0,-32296,0,0,0,4331,0,23070,0
17819,-426,-8202,1148,-43,12,1,28926,5,0,6,0,36926,111,24,144,0,0,0,0,0,0,0,0,-32296,0,0,0,4331,0,23091,0
17829,-384,-8158,1126,-60,13,-11,28925,0,-4,5,0,36931,117,24,144,0,0,0,0,0,0,0,0,-32296,0,0,0,4330,0,23111,0
17839,-360,-8142,1072,-56,15,-10,28925,2,-2,6,0,36936,122,24,144,0,0,0,0,0,0,0,0,-32297,0,0,0,4331,0,23131,0
17849,-376,-8196,1096,-49,11,-4,28924,5,-4,4,0,36930,115,24,144,0,0,0,0,0,0,0,0,-32296,0,0,0,4329,0,23151,0
17859,-360,-8184,1086,-55,7,4,28924,0,-2,6,0,36925,104,24,144,0,0,0,0,0,0,0,0,-32296,0,0,0,4331,0,23171,0
17869,-370,-8136,1070,-60,10,-5,28924,-6,0,6,0,36926,105,24,144,0,0,0,0,0,0,0,0,-32296,0,0,0,4330,0,23191,0
17879,-394,-8202,1030,-58,12,2,28924,2,2,3,0,36933,103,24,144,0,0,0,0,0,0,0,0,-32296,0,0,0,4330,0,23212,0
17889,-378,-8138,1044,-53,10,1,28925,0,2,5,0,36931,107,24,144,0,0,0,0,0,0,0,0,-32296,0,0,0,4331,0,23232,0
17899,-382,-8168,1024,-52,8,3,28925,1,2,5,0,36925,111,24,144,0,0,0,0,0,0,0,0,-32296,0,0,0,4331,0,23251,0
17909,-384,-8168,1056,-55,16,-3,28924,-2,-2,7,0,36925,114,24,144,0,0,0,0,0,0,0,0,-32296,0,0,0,4331,0,23272,0
17919,-372,-8192,1028,-51,14,5,28924,4,-2,8,0,36934,127,24,144,0,0,0,0,0,0,0,0,-32296,0,0,0,4331,0,23292,0
17929,-370,-8150,1070,-43,14,2,28924,-10,1,4,0,36937,124,24,144,0,0,0,0,0,0,0,0,-32296,0,0,0,4331,0,23312,0
17939,-354,-8138,1066,-46,13,1,28925,1,-1,6,0,36932,120,24,144,0,0,0,0,0,0,0,0,-32296,0,0,0,4331,0,23332,0
17949,-390,-8190,1148,-56,15,12,28925,-2,7,3,0,36930,112,24,144,0,0,0,0,0,0,0,0,-32296,0,0,0,4331,0,23352,0
17959,-342,-8166,1108,-54,14,4,28923,-5,-5,2,0,36933,112,24,144,0,0,0,0,0,0,0,0,-32296,0,0,0,4331,0,23372,0
17969,-378,-8134,1060,-56,16,8,28924,5,3,4,0,36934,105,24,144,0,0,0,0,0,0,0,0,-32296,0,0,0,4331,0,23392,0
17979,-400,-8204,1052,-55,10,13,28925,0,3,4,0,36932,98,24,144,0,0,0,0,0,0,0,0,-32296,0,0,0,4329,0,23412,0
17989,-400,-8160,1040,-59,12,5,28924,4,-1,5,0,36929,98,24,144,0,0,0,0,0,0,0,0,-32296,0,0,0,4330,0,23432,0
17999,-396,-8110,1002,-61,16,-1,28924,0,4,3,0,36932,100,24,144,0,0,0,0,0,0,0,0,-32296,0,0,0,4329,0,23452,0
18009,-412,-8194,1054,-54,8,7,28925,6,1,5,0,36937,102,24,144,0,0,0,0,0,0,0,0,-32296,0,0,0,4331,0,23475,0
18019,-384,-8144,1078,-52,6,0,28924,0,2,7,0,36948,96,24,144,0,0,0,0,0,0,0,0,-32296,0,0,0,4330,0,23492,0
18029,-380,-8150,1064,-52,11,-9,28924,-1,1,5,0,36944,107,24,144,0,0,0,0,0,0,0,0,-32297,0,0,0,4331,0,23512,0
18039,-396,-8180,1064,-62,14,0,28924,-3,3,7,0,36939,92,24,144,0,0,0,0,0,0,0,0,-32296,0,0,0,4330,0,23532,0
18049,-346,-8180,1092,-63,17,4,28922,0,-5,3,0,36938,106,24,144,0,0,0,0,0,0,0,0,-32296,0,0,0,4331,0,23552,0
18059,-340,-8150,1076,-50,14,0,28923,-10,2,5,0,36938,118,24,144,0,0,0,0,0,0,0,0,-32296,0,0,0,4329,0,23573,0
18069,-350,-8208,1058,-50,17,6,28925,5,-1,5,0,36934,121,24,144,0,0,0,0,0,0,0,0,-32296,0,0,0,4331,0,23593,0
18079,-368,-8190,1088,-62,18,14,28923,-3,3,3,0,36929,119,24,144,0,0,0,0,0,0,0,0,-32296,0,0,0,4330,0,23613,0
18089,-364,-8164,1030,-58,19,6,28924,5,-2,5,0,36928,117,24,144,0,0,0,0,0,0,0,0,-32296,0,0,0,4330,0,23633,0
18099,-374,-8168,1046,-49,15,9,28924,-4,2,4,0,36934,113,24,144,0,0,0,0,0,0,0,0,-32296,0,0,0,4330,0,23653,0
18109,-390,-8148,1070,-54,19,18,28923,-2,-5,3,0,36934,117,24,144,0,0,0,0,0,0,0,0,-32296,0,0,0,4331,0,23673,0
18119,-424,-8146,1052,-61,20,6,28922,-11,-4,6,0,36930,102,24,144,0,0,0,0,0,0,0,0,-32296,0,0,0,4330,0,23693,0
18129,-394,-8198,1040,-59,18,-1,28924,-11,-2,4,0,36936,91,24,144,0,0,0,0,0,0,0,0,-32296,0,0,0,4331,0,23713,0
18139,-386,-8158,1070,-58,13,5,28924,0,-1,6,0,36939,93,24,144,0,0,0,0,0,0,0,0,-32296,0,0,0,4331,0,23733,0
18149,-378,-8148,1076,-49,9,5,28924,2,2,4,0,36943,101,24,144,0,0,0,0,0,0,0,0,-32296,0,0,0,4331,0,23753,0
18159,-356,-8160,1078,-52,14,-3,28923,-3,-3,4,0,36937,107,24,144,0,0,0,0,0,0,0,0,-32297,0,0,0,4330,0,23773,0
18169,-380,-8180,1060,-58,13,5,28925,13,6,6,0,36930,102,24,144,0,0,0,0,0,0,0,0,-32296,0,0,0,4329,0,23793,0
18179,-370,-8150,1048,-54,18,3,28923,0,5,6,0,36930,91,24,144,0,0,0,0,0,0,0,0,-32296,0,0,0,4329,0,23813,0
18189,-394,-8188,1000,-57,16,2,28924,3,0,8,0,36928,91,24,144,0,0,0,0,0,0,0,0,-32296,0,0,0,4329,0,23833,0
18199,-362,-8180,1070,-52,11,3,28923,-6,-1,4,0,36929,95,24,144,0,0,0,0,0,0,0,0,-32296,0,0,0,4329,0,23853,0
18209,-350,-8164,1076,-57,14,6,28922,-2,-4,4,0,36932,101,24,144,0,0,0,0,0,0,0,0,-32296,0,0,0,4329,0,23873,0
18219,-372,-8198,1056,-57,18,0,28924,3,4,6,0,36937,102,24,144,0,0,0,0,0,0,0,0,-32296,0,0,0,4329,0,23893,0
18229,-362,-8160,1054,-52,15,8,28924,3,0,4,0,36937,107,24,144,0,0,0,0,0,0,0,0,-32296,0,0,0,4331,0,23913,0
18239,-396,-8184,1078,-53,20,6,28923,0,2,5,0,36937,120,24,144,0,0,0,0,0,0,0,0,-32296,0,0,0,4329,0,23933,0
18249,-404,-8188,1062,-55,20,2,28924,2,1,5,0,36932,132,24,144,0,0,0,0,0,0,0,0,-32296,0,0,0,4330,0,23953,0
18259,-388,-8202,1040,-51,18,6,28923,-5,2,5,0,36935,113,24,144,0,0,0,0,0,0,0,0,-32296,0,0,0,4331,0,23974,0
18269,-414,-8136,1056,-51,8,4,28924,1,2,6,0,36933,91,24,144,0,0,0,0,0,0,0,0,-32296,0,0,0,4329,0,23994,0
18279,-362,-8150,1070,-51,13,-2,28923,-1,-1,5,0,36931,96,24,144,0,0,0,0,0,0,0,0,-32296,0,0,0,4331,0,24014,0
18289,-372,-8152,1054,-55,15,3,28923,-1,1,7,0,36929,107,24,144,0,0,0,0,0,0,0,0,-32297,0,0,0,4331,0,24034,0
18299,-384,-8172,1054,-54,12,6,28922,0,-4,4,0,36931,115,24,144,0,0,0,0,0,0,0,0,-32296,0,0,0,4330,0,24054,0
18309,-338,-8144,1060,-49,9,0,28923,6,4,7,0,36934,105,24,144,0,0,0,0,0,0,0,0,-32296,0,0,0,4329,0,24074,0
18319,-396,-8194,1080,-49,11,-1,28923,1,2,7,0,36934,95,24,144,0,0,0,0,0,0,0,0,-32296,0,0,0,4329,0,24094,0
18329,-356,-8166,1062,-49,15,9,28922,1,-1,4,0,36929,102,24,144,0,0,0,0,0,0,0,0,-32296,0,0,0,4329,0,24114,0
18339,-372,-8170,1068,-51,15,3,28923,7,4,7,0,36929,93,24,144,0,0,0,0,0,0,0,0,-32296,0,0,0,4329,0,24134,0
18349,-370,-8178,1058,-48,19,8,28923,-1,0,4,0,36932,88,24,144,0,0,0,0,0,0,0,0,-32297,0,0,0,4329,0,24154,0
18359,-362,-8176,1046,-51,12,8,28922,1,-2,4,0,36937,93,24,144,0,0,0,0,0,0,0,0,-32296,0,0,0,4330,0,24174,0
18369,-366,-8162,1052,-53,14,6,28922,8,4,7,0,36936,96,24,144,0,0,0,0,0,0,0,0,-32296,0,0,0,4332,0,24194,0
18379,-362,-8182,1038,-53,16,6,28921,-5,-1,5,0,36928,104,24,144,0,0,0,0,0,0,0,0,-32296,0,0,0,4329,0,24214,0
18389,-376,-8160,1082,-49,15,11,28921,-5,-4,5,0,36926,102,24,144,0,0,0,0,0,0,0,0,-32297,0,0,0,4330,0,24234,0
18399,-360,-8144,1080,-50,16,14,28923,0,2,4,0,36935,98,24,144,0,0,0,0,0,0,0,0,-32296,0,0,0,4330,0,24254,0
18409,-366,-8180,1038,-49,18,4,28921,-5,-5,3,0,36938,107,24,144,0,0,0,0,0,0,0,0,-32297,0,0,0,4330,0,24274,0
18419,-370,-8162,1066,-57,12,10,28922,-4,-1,6,0,36935,97,24,144,0,0,0,0,0,0,0,0,-32296,0,0,0,4330,0,24294,0
18429,-374,-8152,1046,-48,11,17,28922,-1,-1,5,0,36934,94,24,144,0,0,0,0,0,0,0,0,-32296,0,0,0,4329,0,24314,0
18439,-364,-8162,1044,-47,14,7,28922,0,-1,7,0,36949,97,24,144,0,0,0,0,0,0,0,0,-32296,0,0,0,4330,0,24334,0
18449,-382,-8186,1070,-47,18,12,28923,-1,2,6,0,36959,106,24,144,0,0,0,0,0,0,0,0,-32296,0,0,0,4330,0,24354,0
18459,-388,-8198,1058,-47,15,17,28922,3,0,4,0,36958,121,24,144,0,0,0,0,0,0,0,0,-32296,0,0,0,4330,0,24374,0
18469,-384,-8148,1074,-50,15,8,28922,-3,1,5,0,36942,115,24,144,0,0,0,0,0,0,0,0,-32296,0,0,0,4330,0,24394,0
18479,-370,-8150,1064,-50,12,12,28922,1,-7,5,0,36933,102,24,144,0,0,0,0,0,0,0,0,-32297,0,0,0,4331,0,24414,0
18489,-362,-8168,1050,-46,12,12,28922,0,1,5,0,36932,89,24,144,0,0,0,0,0,0,0,0,-32296,0,0,0,4329,0,24434,0
18499,-362,-8146,1034,-49,20,13,28921,-4,-1,2,0,36933,104,24,144,0,0,0,0,0,0,0,0,-32296,0,0,0,4331,0,24454,0
18509,-366,-8206,1062,-49,13,12,28922,0,1,4,0,36931,109,24,144,0,0,0,0,0,0,0,0,-32296,0,0,0,4330,0,24474,0
18519,-378,-8162,1068,-47,16,13,28922,-7,-4,6,0,36934,88,24,144,0,0,0,0,0,0,0,0,-32296,0,0,0,4331,0,24494,0
18529,-370,-8154,1084,-50,14,13,28923,-3,-2,5,0,36937,94,24,144,0,0,0,0,0,0,0,0,-32296,0,0,0,4329,0,24514,0
18539,-382,-8188,1046,-45,14,9,28922,-2,-3,5,0,36939,111,24,144,0,0,0,0,0,0,0,0,-32296,0,0,0,4331,0,24534,0
18549,-376,-8148,1066,-44,14,19,28922,-3,-3,4,0,36937,125,24,144,0,0,0,0,0,0,0,0,-32296,0,0,0,4331,0,24554,0
18559,-392,-8170,1044,-42,17,14,28923,0,0,3,0,36937,116,24,144,0,0,0,0,0,0,0,0,-32296,0,0,0,4331,0,24574,0
18569,-410,-8192,1064,-47,14,7,28922,-3,-4,6,0,36939,94,24,144,0,0,0,0,0,0,0,0,-32296,0,0,0,4331,0,24594,0
18579,-390,-8164,1064,-49,17,13,28922,0,-2,5,0,36940,88,24,144,0,0,0,0,0,0,0,0,-32296,0,0,0,4330,0,24614,0
18589,-414,-8158,1084,-46,10,8,28923,-9,3,5,0,36935,104,24,144,0,0,0,0,0,0,0,0,-32296,0,0,0,4329,0,24634,0
18599,-384,-8156,1054,-50,21,9,28923,5,-1,3,0,36937,103,24,144,0,0,0,0,0,0,0,0,-32296,0,0,0,4330,0,24654,0
18609,-372,-8162,1070,-51,17,5,28922,-5,-1,3,0,36940,87,24,144,0,0,0,0,0,0,0,0,-32296,0,0,0,4330,0,24674,0
18619,-370,-8190,1042,-55,15,5,28923,1,2,7,0,36943,80,24,144,0,0,0,0,0,0,0,0,-32296,0,0,0,4331,0,24694,0
18629,-364,-8142,1066,-46,20,1,28923,0,4,4,0,36944,93,24,144,0,0,0,0,0,0,0,0,-32296,0,0,0,4330,0,24714,0
18639,-374,-8154,1048,-47,12,6,28922,-1,2,5,0,36942,102,24,144,0,0,0,0,0,0,0,0,-32296,0,0,0,4331,0,24734,0
18649,-386,-8192,1052,-50,16,9,28922,-3,4,6,0,36938,90,24,144,0,0,0,0,0,0,0,0,-32296,0,0,0,4329,0,24754,0
18659,-352,-8182,1050,-47,19,12,28922,-1,-1,2,0,36943,85,24,144,0,0,0,0,0,0,0,0,-32296,0,0,0,4330,0,24774,0
18669,-402,-8172,1050,-57,16,14,28922,-2,-2,6,0,36952,100,24,144,0,0,0,0,0,0,0,0,-32296,0,0,0,4329,0,24794,0
18679,-384,-8182,1056,-45,16,5,28924,0,2,3,0,36948,103,24,144,0,0,0,0,0,0,0,0,-32296,0,0,0,4330,0,24814,0
18689,-390,-8138,1074,-49,16,7,28921,-1,-5,5,0,36947,106,24,144,0,0,0,0,0,0,0,0,-32296,0,0,0,4330,0,24834,0
18699,-380,-8178,1072,-50,18,6,28923,3,2,5,0,36943,99,24,144,0,0,0,0,0,0,0,0,-32296,0,0,0,4331,0,24854,0
18709,-346,-8176,1028,-49,10,7,28923,3,-1,5,0,36946,98,24,144,0,0,0,0,0,0,0,0,-32296,0,0,0,4331,0,24874,0
18719,-376,-8154,1042,-47,13,7,28923,-3,1,7,0,36945,90,24,144,0,0,0,0,0,0,0,0,-32296,0,0,0,4331,0,24894,0
18729,-392,-8180,1046,-47,16,8,28923,2,-2,3,0,36942,100,24,144,0,0,0,0,0,0,0,0,-32296,0,0,0,4331,0,24914,0
18739,-402,-8188,1076,-50,12,5,28923,-6,-1,5,0,36946,90,24,144,0,0,0,0,0,0,0,0,-32296,0,0,0,4331,0,24934,0
18749,-392,-8172,1092,-56,16,7,28923,-2,-2,5,0,36949,101,24,144,0,0,0,0,0,0,0,0,-32296,0,0,0,4330,0,24954,0
18759,-394,-8172,1086,-52,11,1,28923,1,1,3,0,36948,105,24,144,0,0,0,0,0,0,0,0,-32295,0,0,0,4331,0,24974,0
18769,-372,-8192,1078,-55,14,1,28922,-7,-1,3,0,36946,107,24,144,0,0,0,0,0,0,0,0,-32296,0,0,0,4330,0,24994,0
18779,-374,-8130,1064,-55,15,0,28924,-2,2,5,0,36945,101,24,144,0,0,0,0,0,0,0,0,-32296,0,0,0,4331,0,25014,0
18789,-376,-8190,1042,-60,12,6,28924,4,-3,4,0,36949,89,24,144,0,0,0,0,0,0,0,0,-32296,0,0,0,4331,0,25034,0
18799,-356,-8174,1048,-52,17,2,28923,-1,-1,1,0,36948,81,24,144,0,0,0,0,0,0,0,0,-32297,0,0,0,4330,0,25054,0
18809,-366,-8154,1028,-49,15,2,28923,-2,-2,1,0,36948,87,24,144,0,0,0,0,0,0,0,0,-32296,0,0,0,4330,0,25074,0
18819,-336,-8156,1058,-54,17,0,28922,2,1,6,0,36946,74,24,144,0,0,0,0,0,0,0,0,-32296,0,0,0,4331,0,25094,0
18829,-362,-8202,1046,-51,9,9,28924,2,4,4,0,36942,80,24,144,0,0,0,0,0,0,0,0,-32296,0,0,0,4329,0,25114,0
18839,-334,-8176,1082,-50,18,8,28923,-1,-3,5,0,36947,94,24,144,0,0,0,0,0,0,0,0,-32296,0,0,0,4330,0,25134,0
18849,-364,-8166,1058,-49,14,12,28922,0,3,6,0,36948,109,24,144,0,0,0,0,0,0,0,0,-32296,0,0,0,4331,0,25154,0
18859,-370,-8170,1054,-47,16,16,28922,2,2,4,0,36946,105,24,144,0,0,0,0,0,0,0,0,-32296,0,0,0,4330,0,25174,0
18869,-374,-8158,1082,-56,19,17,28922,-2,-4,5,0,36946,87,24,144,0,0,0,0,0,0,0,0,-32296,0,0,0,4331,0,25195,0
18879,-338,-8170,1064,-52,16,13,28921,-8,0,7,0,36952,78,24,144,0,0,0,0,0,0,0,0,-32296,0,0,0,4331,0,25215,0
18889,-372,-8186,1050,-51,19,11,28924,0,-2,8,0,36953,94,24,144,0,0,0,0,0,0,0,0,-32296,0,0,0,4332,0,25235,0
18899,-382,-8188,1048,-52,16,13,28923,4,1,5,0,36955,95,24,144,0,0,0,0,0,0,0,0,-32297,0,0,0,4330,0,25255,0
18909,-400,-8178,1054,-50,18,6,28923,0,4,4,0,36944,90,24,144,0,0,0,0,0,0,0,0,-32296,0,0,0,4332,0,25275,0
18919,-358,-8162,1054,-52,12,12,28922,-4,0,5,0,36939,79,24,144,0,0,0,0,0,0,0,0,-32297,0,0,0,4331,0,25295,0
18929,-366,-8214,1056,-50,16,17,28923,3,-1,4,0,36937,74,24,144,0,0,0,0,0,0,0,0,-32296,0,0,0,4331,0,25315,0
18939,-376,-8156,1078,-49,13,13,28923,-3,0,6,0,36932,85,24,144,0,0,0,0,0,0,0,0,-32296,0,0,0,4330,0,25335,0
18949,-390,-8154,1072,-48,20,10,28923,2,-5,4,0,36928,85,24,144,0,0,0,0,0,0,0,0,-32296,0,0,0,4331,0,25355,0
18959,-370,-8180,1046,-55,18,14,28923,5,0,3,0,36928,79,24,144,0,0,0,0,0,0,0,0,-32297,0,0,0,4331,0,25376,0
18969,-380,-8176,1062,-49,14,10,28924,6,3,8,0,36929,76,24,144,0,0,0,0,0,0,0,0,-32296,0,0,0,4331,0,25396,0
18979,-390,-8152,1050,-51,20,9,28922,-3,-3,4,0,36938,75,24,144,0,0,0,0,0,0,0,0,-32296,0,0,0,4331,0,25417,0
18989,-396,-8172,1068,-52,15,12,28924,3,-1,5,0,36939,80,24,144,0,0,0,0,0,0,0,0,-32296,0,0,0,4332,0,25436,0
18999,-398,-8156,1088,-54,12,15,28923,2,-2,4,0,36940,85,24,144,0,0,0,0,0,0,0,0,-32296,0,0,0,4330,0,25456,0
19009,-428,-8152,1084,-49,15,8,28923,1,3,4,0,36933,76,24,144,0,0,0,0,0,0,0,0,-32297,0,0,0,4331,0,25476,0
19019,-390,-8184,1082,-54,15,7,28924,0,5,6,0,36931,78,24,144,0,0,0,0,0,0,0,0,-32296,0,0,0,4330,0,25496,0
19029,-382,-8150,1064,-58,12,8,28923,0,0,4,0,36929,82,24,144,0,0,0,0,0,0,0,0,-32297,0,0,0,4331,0,25516,0
19039,-386,-8150,1044,-55,13,6,28922,3,-2,5,0,36929,92,24,144,0,0,0,0,0,0,0,0,-32296,0,0,0,4331,0,25536,0
19049,-388,-8202,1062,-53,12,4,28922,-5,2,4,0,36929,93,24,144,0,0,0,0,0,0,0,0,-32297,0,0,0,4332,0,25556,0
19059,-368,-8142,1070,-50,11,10,28925,-1,1,5,0,36928,79,24,144,0,0,0,0,0,0,0,0,-32296,0,0,0,4331,0,25576,0
19069,-378,-8142,1054,-46,15,6,28923,-5,-3,6,0,36926,77,24,144,0,0,0,0,0,0,0,0,-32296,0,0,0,4331,0,25596,0
19079,-370,-8160,1060,-49,13,6,28924,2,2,5,0,36926,77,24,144,0,0,0,0,0,0,0,0,-32296,0,0,0,4331,0,25616,0
19089,-354,-8166,1058,-49,10,11,28924,1,7,6,0,36929,80,24,144,0,0,0,0,0,0,0,0,-32296,0,0,0,4331,0,25636,0
19099,-384,-8160,1094,-55,17,8,28924,0,2,3,0,36928,79,24,144,0,0,0,0,0,0,0,0,-32296,0,0,0,4331,0,25656,0
19109,-368,-8184,1074,-57,13,10,28925,0,3,4,0,36926,81,24,144,0,0,0,0,0,0,0,0,-32296,0,0,0,4332,0,25676,0
19119,-378,-8172,1062,-54,16,11,28923,2,-1,7,0,36923,81,24,144,0,0,0,0,0,0,0,0,-32296,0,0,0,4331,0,25696,0
19129,-380,-8152,1054,-54,13,4,28922,-8,4,4,0,36923,75,24,144,0,0,0,0,0,0,0,0,-32296,0,0,0,4330,0,25716,0
19139,-358,-8174,1046,-57,16,6,28923,0,-1,6,0,36923,83,24,144,0,0,0,0,0,0,0,0,-32296,0,0,0,4331,0,25736,0
19149,-392,-8156,1064,-53,18,9,28925,-1,1,5,0,36923,91,24,144,0,0,0,0,0,0,0,0,-32297,0,0,0,4330,0,25756,0
19159,-360,-8160,1064,-55,11,9,28923,-1,-2,2,0,36921,84,24,144,0,0,0,0,0,0,0,0,-32296,0,0,0,4331,0,25776,0
19169,-404,-8154,1046,-53,15,0,28923,-3,-1,6,0,36920,74,24,144,0,0,0,0,0,0,0,0,-32296,0,0,0,4331,0,25796,0
19179,-398,-8176,1072,-50,11,4,28923,-3,0,4,0,36923,80,24,144,0,0,0,0,0,0,0,0,-32296,0,0,0,4332,0,25816,0
19189,-388,-8168,1058,-55,12,10,28923,0,2,2,0,36922,87,24,144,0,0,0,0,0,0,0,0,-32296,0,0,0,4332,0,25836,0
19199,-368,-8162,1054,-55,9,10,28924,-1,3,5,0,36923,85,24,144,0,0,0,0,0,0,0,0,-32296,0,0,0,4331,0,25856,0
19209,-360,-8178,1020,-47,19,8,28924,5,-1,4,0,36923,78,24,144,0,0,0,0,0,0,0,0,-32296,0,0,0,4332,0,25876,0
19219,-372,-8156,1058,-47,18,8,28924,8,1,4,0,36925,75,24,144,0,0,0,0,0,0,0,0,-32296,0,0,0,4332,0,25896,0
19229,-356,-8182,1054,-51,18,12,28925,14,6,3,0,36920,86,24,144,0,0,0,0,0,0,0,0,-32296,0,0,0,4332,0,25916,0
19239,-374,-8178,1050,-48,17,7,28922,-5,2,5,0,36917,91,24,144,0,0,0,0,0,0,0,0,-32296,0,0,0,4330,0,25936,0
19249,-394,-8172,1100,-48,13,9,28923,1,0,4,0,36915,90,24,144,0,0,0,0,0,0,0,0,-32296,0,0,0,4331,0,25956,0
19259,-390,-8180,1090,-51,12,10,28922,-2,-5,4,0,36918,82,24,144,0,0,0,0,0,0,0,0,-32296,0,0,0,4331,0,25976,0
19269,-402,-8192,1030,-48,12,12,28922,-2,-2,5,0,36919,78,24,144,0,0,0,0,0,0,0,0,-32296,0,0,0,4331,0,25996,0
19279,-410,-8180,1050,-55,15,2,28923,6,0,4,0,36918,84,24,144,0,0,0,0,0,0,0,0,-32296,0,0,0,4331,0,26017,0
19289,-400,-8172,1032,-55,13,2,28923,0,2,5,0,36917,86,24,144,0,0,0,0,0,0,0,0,-32296,0,0,0,4331,0,26036,0
19299,-402,-8164,1066,-46,12,-5,28923,-4,-3,5,0,36922,84,24,144,0,0,0,0,0,0,0,0,-32296,0,0,0,4331,0,26056,0
19309,-374,-8154,1074,-50,10,1,28923,0,-3,4,0,36923,83,24,144,0,0,0,0,0,0,0,0,-32296,0,0,0,4331,0,26077,0
19319,-376,-8164,1066,-48,11,-2,28924,1,3,7,0,36923,85,24,144,0,0,0,0,0,0,0,0,-32296,0,0,0,4331,0,26097,0
19329,-366,-8184,1082,-50,17,1,28923,-4,0,5,0,36919,85,24,144,0,0,0,0,0,0,0,0,-32296,0,0,0,4331,0,26117,0
19339,-372,-8142,1068,-56,13,-1,28923,0,-1,5,0,36914,88,24,144,0,0,0,0,0,0,0,0,-32296,0,0,0,4330,0,26137,0
19349,-316,-8162,1060,-48,13,5,28922,-1,0,5,0,36915,83,24,144,0,0,0,0,0,0,0,0,-32296,0,0,0,4331,0,26157,0
19359,-326,-8156,1042,-58,16,4,28923,4,4,6,0,36915,83,24,144,0,0,0,0,0,0,0,0,-32296,0,0,0,4330,0,26177,0
19369,-340,-8186,1034,-53,14,14,28922,-8,0,6,0,36915,92,24,144,0,0,0,0,0,0,0,0,-32296,0,0,0,4331,0,26197,0
19379,-340,-8146,1008,-57,14,12,28923,4,0,4,0,36914,90,24,144,0,0,0,0,0,0,0,0,-32296,0,0,0,4332,0,26217,0
19389,-360,-8158,1012,-48,16,13,28923,-1,-2,5,0,36914,83,24,144,0,0,0,0,0,0,0,0,-32296,0,0,0,4331,0,26237,0
19399,-358,-8154,1052,-49,16,10,28923,0,0,4,0,36918,70,24,144,0,0,0,0,0,0,0,0,-32296,0,0,0,4331,0,26257,0
19409,-360,-8166,1090,-46,15,14,28924,3,3,3,0,36919,69,24,144,0,0,0,0,0,0,0,0,-32296,0,0,0,4331,0,26277,0
19419,-374,-8178,1074,-48,13,15,28924,6,5,5,0,36921,78,24,144,0,0,0,0,0,0,0,0,-32296,0,0,0,4331,0,26297,0
19429,-366,-8158,1080,-45,11,23,28924,5,5,4,0,36920,80,24,144,0,0,0,0,0,0,0,0,-32296,0,0,0,4331,0,26317,0
19439,-376,-8192,1056,-46,12,24,28925,10,5,4,0,36916,90,24,144,0,0,0,0,0,0,0,0,-32296,0,0,0,4330,0,26337,0
19449,-394,-8164,1062,-47,14,20,28926,11,8,4,0,36915,86,24,144,0,0,0,0,0,0,0,0,-32296,0,0,0,4329,0,26357,0
19459,-374,-8156,1048,-48,14,16,28924,1,2,2,0,36909,78,24,144,0,0,0,0,0,0,0,0,-32296,0,0,0,4331,0,26377,0
19469,-406,-8156,1052,-44,16,19,28922,-4,0,5,0,36907,70,24,144,0,0,0,0,0,0,0,0,-32296,0,0,0,4331,0,26397,0
19479,-400,-8168,1062,-44,20,16,28924,1,3,4,0,36912,80,24,144,0,0,0,0,0,0,0,0,-32296,0,0,0,4331,0,26417,0
19489,-402,-8186,1076,-53,19,11,28925,0,3,4,0,36914,87,24,144,0,0,0,0,0,0,0,0,-32296,0,0,0,4331,0,26437,0
19499,-412,-8158,1090,-43,14,8,28924,2,-3,6,0,36912,93,24,144,0,0,0,0,0,0,0,0,-32296,0,0,0,4330,0,26457,0
19509,-404,-8176,1092,-54,12,9,28923,-2,2,5,0,36912,89,24,144,0,0,0,0,0,0,0,0,-32297,0,0,0,4330,0,26477,0
19519,-404,-8172,1076,-51,17,6,28923,-10,-3,5,0,36911,88,24,144,0,0,0,0,0,0,0,0,-32296,0,0,0,4331,0,26497,0
19529,-374,-8182,1066,-49,16,8,28923,-9,-4,4,0,36912,101,24,144,0,0,0,0,0,0,0,0,-32296,0,0,0,4330,0,26517,0
19539,-404,-8160,1056,-49,14,7,28923,-3,-2,4,0,36910,96,24,144,0,0,0,0,0,0,0,0,-32297,0,0,0,4331,0,26537,0
19549,-388,-8190,1028,-51,15,9,28923,3,-2,5,0,36909,88,24,144,0,0,0,0,0,0,0,0,-32296,0,0,0,4331,0,26557,0
19559,-370,-8188,1038,-43,14,9,28923,-3,3,4,0,36910,77,24,144,0,0,0,0,0,0,0,0,-32296,0,0,0,4330,0,26577,0
19569,-378,-8154,1050,-46,14,10,28922,-2,-4,5,0,36914,73,24,144,0,0,0,0,0,0,0,0,-32296,0,0,0,4331,0,26597,0
19579,-376,-8154,1060,-45,13,11,28923,-2,-2,4,0,36915,80,24,144,0,0,0,0,0,0,0,0,-32296,0,0,0,4331,0,26617,0
19589,-394,-8146,1062,-42,15,7,28924,1,2,6,0,36916,79,24,144,0,0,0,0,0,0,0,0,-32296,0,0,0,4332,0,26637,0
19599,-412,-8178,1064,-42,14,6,28924,0,1,3,0,36915,70,24,144,0,0,0,0,0,0,0,0,-32296,0,0,0,4332,0,26657,0
19609,-364,-8148,1078,-45,14,5,28924,1,0,4,0,36916,69,24,144,0,0,0,0,0,0,0,0,-32297,0,0,0,4331,0,26677,0
19619,-382,-8156,1078,-44,13,2,28923,4,-2,5,0,36919,78,24,144,0,0,0,0,0,0,0,0,-32296,0,0,0,4331,0,26697,0
19629,-360,-8170,1076,-54,16,4,28924,-2,5,5,0,36920,93,24,144,0,0,0,0,0,0,0,0,-32296,0,0,0,4331,0,26717,0
19639,-384,-8160,1074,-46,11,4,28923,0,-2,4,0,36915,84,24,144,0,0,0,0,0,0,0,0,-32296,0,0,0,4331,0,26737,0
19649,-382,-8164,1080,-53,18,3,28923,-7,1,6,0,36912,79,24,144,0,0,0,0,0,0,0,0,-32296,0,0,0,4331,0,26757,0
19659,-382,-8166,1090,-52,18,7,28924,-2,-3,4,0,36910,77,24,144,0,0,0,0,0,0,0,0,-32297,0,0,0,4331,0,26777,0
