state_time,accelx,accely,accelz,gyrox,gyroy,gyroz,mot_ang,mot_vel,mot_acc,mot_cur,mot_volt,batt_volt,batt_curr,temperature,status_mn,status_ex,status_re,genvar_0,genvar_1,genvar_2,genvar_3,genvar_4,genvar_5,genvar_6,genvar_7,genvar_8,genvar_9,ank_ang,ank_vel,sys_time,event flags
8897,296,-8218,924,-47,34,6,12797,-3,-2,0,0,37291,301,25,79,0,0,0,0,0,0,0,0,-32318,0,0,0,3881,0,6736,0
8907,318,-8252,922,-45,43,5,12798,6,-1,0,0,37291,307,25,79,0,0,0,0,0,0,0,0,-32318,0,0,0,3881,0,8917,0
8917,314,-8222,912,-47,47,5,12798,6,-3,-1,0,37291,320,25,79,0,0,0,0,0,0,0,0,-32318,0,0,0,3881,0,8937,0
8927,308,-8252,928,-44,42,5,12798,-4,1,-1,0,37292,321,25,79,0,0,0,0,0,0,0,0,-32318,0,0,0,3881,0,8957,0
8937,330,-8226,944,-55,37,8,12796,-5,-10,0,0,37291,321,25,79,0,0,0,0,0,0,0,0,-32318,0,0,0,3881,0,8977,0
8947,332,-8232,906,-52,37,13,12796,-9,-3,-1,0,37292,310,25,79,0,0,0,0,0,0,0,0,-32318,0,0,0,3882,0,8997,0
8957,334,-8254,896,-51,42,12,12798,2,-4,-1,0,37292,314,25,79,0,0,0,0,0,0,0,0,-32318,0,0,0,3880,0,9017,0
8967,312,-8236,910,-48,42,14,12799,5,-3,-2,0,37296,316,25,79,0,0,0,0,0,0,0,0,-32318,0,0,0,3880,0,9039,0
8977,296,-8226,918,-51,40,14,12797,0,-4,-1,0,37295,315,25,79,0,0,0,0,0,0,0,0,-32318,0,0,0,3882,0,9059,0
8987,314,-8226,938,-51,47,17,12797,4,-2,0,0,37295,317,25,79,0,0,0,0,0,0,0,0,-32319,0,0,0,3880,0,9081,0
8997,320,-8232,910,-54,38,20,12797,-1,-1,-1,0,37289,320,25,79,0,0,0,0,0,0,0,0,-32318,0,0,0,3881,0,9102,0
9007,330,-8232,910,-51,38,14,12798,4,2,0,0,37290,316,25,79,0,0,0,0,0,0,0,0,-32318,0,0,0,3880,0,9122,0
9017,310,-8250,916,-46,45,19,12797,-3,1,0,0,37288,316,25,79,0,0,0,0,0,0,0,0,-32318,0,0,0,3882,0,9141,0
9027,298,-8196,894,-49,42,21,12798,0,1,-3,0,37288,310,25,79,0,0,0,0,0,0,0,0,-32318,0,0,0,3880,0,9161,0
9037,300,-8240,912,-49,41,17,12797,1,1,-1,0,37287,302,25,79,0,0,0,0,0,0,0,0,-32317,0,0,0,3882,0,9182,0
9047,326,-8242,900,-49,40,17,12798,6,6,-2,0,37286,301,25,79,0,0,0,0,0,0,0,0,-32318,0,0,0,3882,0,9202,0
9057,338,-8248,944,-52,41,21,12797,-3,3,0,0,37291,303,25,79,0,0,0,0,0,0,0,0,-32318,0,0,0,3882,0,9222,0
9067,336,-8216,942,-55,42,20,12798,1,6,-2,0,37297,311,25,79,0,0,0,0,0,0,0,0,-32317,0,0,0,3882,0,9242,0
9077,300,-8244,928,-51,45,19,12797,-4,-2,-2,0,37302,308,25,79,0,0,0,0,0,0,0,0,-32318,0,0,0,3881,0,9262,0
9087,310,-8264,920,-55,41,16,12797,3,1,0,0,37300,309,25,79,0,0,0,0,0,0,0,0,-32318,0,0,0,3882,0,9282,0
9097,292,-8230,880,-51,38,21,12799,9,2,0,0,37297,310,25,79,0,0,0,0,0,0,0,0,-32318,0,0,0,3881,0,9302,0
9107,298,-8216,886,-52,41,19,12798,1,5,-1,0,37289,308,25,79,0,0,0,0,0,0,0,0,-32318,0,0,0,3882,0,9322,0
9117,310,-8254,900,-53,42,15,12800,6,5,0,0,37289,308,25,79,0,0,0,0,0,0,0,0,-32318,0,0,0,3882,0,9342,0
9127,302,-8214,886,-44,40,10,12797,-1,-4,-3,0,37289,317,25,79,0,0,0,0,0,0,0,0,-32318,0,0,0,3882,0,9362,0
9137,324,-8248,884,-45,42,11,12798,1,-1,0,0,37286,325,25,79,0,0,0,0,0,0,0,0,-32318,0,0,0,3881,0,9382,0
9147,322,-8244,910,-50,44,12,12798,6,-1,-2,0,37281,318,25,79,0,0,0,0,0,0,0,0,-32318,0,0,0,3881,0,9402,0
9157,310,-8246,914,-44,38,15,12798,1,1,0,0,37280,318,25,79,0,0,0,0,0,0,0,0,-32318,0,0,0,3881,0,9422,0
9167,296,-8244,916,-43,35,13,12798,-3,1,0,0,37282,315,25,79,0,0,0,0,0,0,0,0,-32318,0,0,0,3880,0,9442,0
9177,330,-8258,944,-47,42,7,12796,-4,-8,0,0,37287,310,25,79,0,0,0,0,0,0,0,0,-32318,0,0,0,3881,0,9462,0
9187,358,-8220,952,-49,45,8,12798,4,-3,0,0,37287,303,25,79,0,0,0,0,0,0,0,0,-32318,0,0,0,3880,0,9482,0
9197,326,-8206,928,-63,41,16,12797,3,1,-1,0,37283,299,25,79,0,0,0,0,0,0,0,0,-32318,0,0,0,3881,0,9502,0
9207,314,-8234,954,-56,42,19,12798,4,-3,-2,0,37283,310,25,79,0,0,0,0,0,0,0,0,-32318,0,0,0,3881,0,9522,0
9217,330,-8224,902,-57,44,19,12797,-2,-1,0,0,37283,313,25,79,0,0,0,0,0,0,0,0,-32318,0,0,0,3881,0,9542,0
9227,296,-8206,894,-50,42,18,12799,8,-4,-1,0,37283,314,25,79,0,0,0,0,0,0,0,0,-32318,0,0,0,3880,0,9562,0
9237,274,-8246,892,-51,50,14,12797,-6,-5,-1,0,37280,311,25,79,0,0,0,0,0,0,0,0,-32318,0,0,0,3881,0,9582,0
9247,298,-8234,906,-47,43,17,12798,2,-1,0,0,37280,313,25,79,0,0,0,0,0,0,0,0,-32318,0,0,0,3881,0,9602,0
9257,298,-8236,936,-49,42,8,12799,0,-5,0,0,37281,313,25,79,0,0,0,0,0,0,0,0,-32318,0,0,0,3881,0,9622,0
9267,292,-8236,924,-45,45,11,12799,0,-1,0,0,37282,317,25,79,0,0,0,0,0,0,0,0,-32318,0,0,0,3881,0,9642,0
9277,312,-8246,914,-50,40,15,12798,3,3,0,0,37283,311,25,79,0,0,0,0,0,0,0,0,-32318,0,0,0,3880,0,9662,0
9287,294,-8258,902,-48,37,12,12797,-3,2,2,0,37288,315,25,79,0,0,0,0,0,0,0,0,-32318,0,0,0,3881,0,9683,0
9297,312,-8220,900,-46,40,13,12797,-3,1,0,0,37288,319,25,79,0,0,0,0,0,0,0,0,-32318,0,0,0,3881,0,9702,0
9307,272,-8232,906,-47,37,8,12798,6,5,-1,0,37288,328,25,79,0,0,0,0,0,0,0,0,-32318,0,0,0,3880,0,9722,0
9317,292,-8268,916,-46,41,10,12798,0,0,0,0,37282,326,25,79,0,0,0,0,0,0,0,0,-32318,0,0,0,3881,0,9742,0
9327,296,-8232,928,-45,39,5,12799,6,-4,0,0,37278,313,25,79,0,0,0,0,0,0,0,0,-32318,0,0,0,3881,0,9762,0
9337,308,-8250,948,-50,40,4,12799,8,-1,-1,0,37276,305,25,79,0,0,0,0,0,0,0,0,-32318,0,0,0,3880,0,9785,0
9347,296,-8238,914,-53,42,8,12798,0,1,0,0,37278,299,25,79,0,0,0,0,0,0,0,0,-32318,0,0,0,3880,0,9803,0
9357,294,-8272,918,-56,44,6,12799,0,0,0,0,37280,310,25,79,0,0,0,0,0,0,0,0,-32318,0,0,0,3880,0,9823,0
9367,360,-8236,916,-52,42,4,12798,1,-2,-1,0,37281,313,25,79,0,0,0,0,0,0,0,0,-32318,0,0,0,3882,0,9843,0
9377,356,-8228,910,-49,38,13,12798,3,2,-1,0,37279,311,25,79,0,0,0,0,0,0,0,0,-32318,0,0,0,3880,0,9863,0
9387,328,-8234,930,-53,39,16,12798,4,0,-1,0,37284,305,25,79,0,0,0,0,0,0,0,0,-32318,0,0,0,3880,0,9883,0
9397,324,-8244,920,-58,39,10,12798,1,-2,0,0,37283,297,25,79,0,0,0,0,0,0,0,0,-32318,0,0,0,3880,0,9903,0
9407,312,-8232,894,-54,44,17,12797,-6,-7,0,0,37283,300,25,79,0,0,0,0,0,0,0,0,-32318,0,0,0,3880,0,9923,0
9417,288,-8216,912,-54,42,17,12798,6,0,0,0,37283,302,25,79,0,0,0,0,0,0,0,0,-32318,0,0,0,3880,0,9943,0
9427,308,-8258,912,-56,45,15,12797,1,1,-2,0,37280,310,25,79,0,0,0,0,0,0,0,0,-32318,0,0,0,3880,0,9963,0
9437,328,-8220,916,-51,42,20,12797,0,2,-1,0,37277,312,25,79,0,0,0,0,0,0,0,0,-32318,0,0,0,3880,0,9983,0
9447,300,-8230,910,-55,44,22,12798,3,0,0,0,37286,314,25,79,0,0,0,0,0,0,0,0,-32318,0,0,0,3880,0,10003,0
9457,286,-8244,868,-55,39,21,12796,-1,0,-1,0,37291,317,25,79,0,0,0,0,0,0,0,0,-32318,0,0,0,3880,0,10023,0
9467,282,-8228,882,-53,42,18,12798,2,0,-1,0,37291,317,25,79,0,0,0,0,0,0,0,0,-32318,0,0,0,3880,0,10043,0
9477,288,-8232,890,-52,33,16,12797,0,5,-2,0,37282,310,25,79,0,0,0,0,0,0,0,0,-32318,0,0,0,3880,0,10063,0
9487,274,-8240,916,-48,41,15,12797,-3,-3,0,0,37273,306,25,79,0,0,0,0,0,0,0,0,-32318,0,0,0,3881,0,10084,0
9497,294,-8208,924,-40,44,9,12798,1,5,0,0,37278,306,25,79,0,0,0,0,0,0,0,0,-32318,0,0,0,3881,0,10103,0
9507,352,-8218,916,-46,43,6,12798,1,-1,0,0,37280,317,25,79,0,0,0,0,0,0,0,0,-32318,0,0,0,3880,0,10123,0
9517,290,-8260,916,-49,40,4,12798,3,1,-2,0,37280,318,25,79,0,0,0,0,0,0,0,0,-32318,0,0,0,3880,0,10143,0
9527,306,-8226,926,-46,38,4,12797,-1,-2,-1,0,37276,312,25,79,0,0,0,0,0,0,0,0,-32318,0,0,0,3880,0,10163,0
9537,292,-8242,888,-53,45,8,12797,-2,-2,-1,0,37278,305,25,79,0,0,0,0,0,0,0,0,-32318,0,0,0,3880,0,10183,0
9547,342,-8270,912,-51,40,10,12798,-6,0,0,0,37280,307,25,79,0,0,0,0,0,0,0,0,-32318,0,0,0,3880,0,10203,0
9557,362,-8234,932,-51,43,9,12798,1,-2,-1,0,37280,308,25,79,0,0,0,0,0,0,0,0,-32318,0,0,0,3880,0,10223,0
9567,328,-8228,878,-50,42,16,12799,0,-3,0,0,37279,316,25,79,0,0,0,0,0,0,0,0,-32317,0,0,0,3879,0,10243,0
9577,332,-8210,904,-49,41,21,12797,-1,0,-2,0,37280,321,25,79,0,0,0,0,0,0,0,0,-32318,0,0,0,3879,0,10263,0
9587,308,-8274,912,-50,43,21,12796,-5,0,0,0,37279,320,25,79,0,0,0,0,0,0,0,0,-32318,0,0,0,3879,0,10283,0
9597,286,-8262,934,-52,37,22,12797,-1,5,0,0,37289,319,25,79,0,0,0,0,0,0,0,0,-32318,0,0,0,3880,0,10303,0
9607,306,-8240,916,-52,40,17,12799,3,-1,-1,0,37287,313,25,79,0,0,0,0,0,0,0,0,-32318,0,0,0,3880,0,10323,0
9617,310,-8236,902,-51,46,19,12797,0,1,0,0,37288,320,25,79,0,0,0,0,0,0,0,0,-32318,0,0,0,3880,0,10343,0
9627,310,-8236,924,-51,44,15,12798,3,2,-1,0,37281,320,25,79,0,0,0,0,0,0,0,0,-32318,0,0,0,3880,0,10363,0
9637,338,-8260,932,-53,40,19,12797,0,-2,-1,0,37284,314,25,79,0,0,0,0,0,0,0,0,-32318,0,0,0,3880,0,10383,0
9647,322,-8262,930,-54,48,18,12797,-6,-3,-2,0,37283,308,25,79,0,0,0,0,0,0,0,0,-32318,0,0,0,3880,0,10403,0
9657,326,-8224,908,-56,43,26,12797,0,1,-1,0,37282,309,25,79,0,0,0,0,0,0,0,0,-32318,0,0,0,3880,0,10423,0
9667,310,-8224,908,-62,41,27,12799,9,2,-1,0,37281,303,25,79,0,0,0,0,0,0,0,0,-32318,0,0,0,3880,0,10443,0
9677,308,-8326,908,-56,42,25,12797,-3,-1,-1,0,37284,303,25,79,0,0,0,0,0,0,0,0,-32318,0,0,0,3880,0,10463,0
9687,334,-8026,964,-49,41,18,12798,0,-2,0,0,37286,301,25,79,0,0,0,0,0,0,0,0,-32318,0,0,0,3880,0,10483,0
9697,320,-8192,1026,-49,31,16,12798,-4,-4,-1,0,37289,306,25,79,0,0,0,0,0,0,0,0,-32318,0,0,0,3880,0,10503,0
9707,184,-8246,746,-64,42,19,12798,1,1,0,0,37289,308,25,79,0,0,0,0,0,0,0,0,-32318,0,0,0,3880,0,10523,0
9717,234,-8404,674,-35,43,6,12797,-3,-2,0,0,37291,314,25,79,0,0,0,0,0,0,0,0,-32318,0,0,0,3880,0,10543,0
9727,346,-8258,842,-28,41,17,12796,-3,3,-2,0,37291,323,25,79,0,0,0,0,0,0,0,0,-32318,0,0,0,3880,0,10563,0
9737,318,-8536,1040,-38,32,30,12798,0,3,0,0,37289,323,25,79,0,0,0,0,0,0,0,0,-32318,0,0,0,3880,0,10583,0
9747,276,-7968,1042,-50,28,18,12798,4,-2,-1,0,37287,328,25,79,0,0,0,0,0,0,0,0,-32318,0,0,0,3880,0,10603,0
9757,272,-7958,964,-46,40,-10,12798,7,5,-1,0,37287,322,25,79,0,0,0,0,0,0,0,0,-32318,0,0,0,3879,0,10623,0
9767,234,-8268,950,-48,38,5,12799,8,4,0,0,37285,320,25,79,0,0,0,0,0,0,0,0,-32318,0,0,0,3880,0,10643,0
9777,386,-8130,938,-41,38,-22,12797,-1,5,-2,0,37281,313,25,79,0,0,0,0,0,0,0,0,-32318,0,0,0,3880,0,10663,0
9787,310,-8184,946,-41,42,-25,12798,0,-1,0,0,37280,310,25,79,0,0,0,0,0,0,0,0,-32318,0,0,0,3879,0,10683,0
9797,254,-8108,974,-47,27,-12,12798,0,-3,1,0,37283,315,25,79,0,0,0,0,0,0,0,0,-32318,0,0,0,3879,0,10703,0
9807,336,-8694,754,-59,50,-24,12797,-1,1,0,0,37291,328,25,79,0,0,0,0,0,0,0,0,-32318,0,0,0,3879,0,10723,0
9817,290,-8400,724,-49,45,-24,12798,-2,1,0,0,37291,321,25,79,0,0,0,0,0,0,0,0,-32318,0,0,0,3877,0,10743,0
9827,316,-8178,796,-29,48,-23,12798,5,0,-1,0,37288,315,25,79,0,0,0,0,0,0,0,0,-32318,0,0,0,3879,0,10763,0
9837,304,-8376,768,-28,50,-29,12798,0,-6,-2,0,37284,309,25,79,0,0,0,0,0,0,0,0,-32318,0,0,0,3877,0,10783,0
9847,464,-8126,916,-21,57,-33,12797,-4,5,-1,0,37286,308,25,79,0,0,0,0,0,0,0,0,-32318,0,0,0,3876,0,10803,0
9857,514,-8038,1080,-31,52,-12,12797,-1,1,-1,0,37287,311,25,79,0,0,0,0,0,0,0,0,-32318,0,0,0,3876,0,10823,0
9867,470,-8274,1152,-51,33,11,12797,-4,1,-1,0,37287,309,25,79,0,0,0,0,0,0,0,0,-32317,0,0,0,3875,0,10843,0
9877,582,-8262,1046,-63,37,24,12797,-1,-1,-1,0,37287,317,25,79,0,0,0,0,0,0,0,0,-32318,0,0,0,3874,0,10863,0
9887,498,-8118,1032,-72,41,46,12798,6,2,0,0,37288,313,25,79,0,0,0,0,0,0,0,0,-32318,0,0,0,3876,0,10883,0
9897,436,-8160,1072,-83,49,72,12798,-3,5,-1,0,37289,315,25,79,0,0,0,0,0,0,0,0,-32318,0,0,0,3876,0,10903,0
9907,392,-8310,1000,-93,46,82,12796,-3,-3,-1,0,37292,316,25,79,0,0,0,0,0,0,0,0,-32317,0,0,0,3877,0,10923,0
9917,260,-8262,938,-101,45,80,12798,2,4,0,0,37293,318,25,79,0,0,0,0,0,0,0,0,-32318,0,0,0,3877,0,10943,0
9927,170,-8216,844,-100,36,92,12797,3,4,-1,0,37292,315,25,79,0,0,0,0,0,0,0,0,-32318,0,0,0,3879,0,10963,0
9937,270,-8180,816,-103,25,68,12797,2,0,-1,0,37295,309,25,79,0,0,0,0,0,0,0,0,-32318,0,0,0,3880,0,10983,0
9947,138,-8384,962,-95,36,48,12798,5,2,-1,0,37293,317,25,79,0,0,0,0,0,0,0,0,-32318,0,0,0,3880,0,11003,0
9957,150,-8198,726,-81,42,30,12798,1,-3,0,0,37291,313,25,79,0,0,0,0,0,0,0,0,-32318,0,0,0,3880,0,11023,0
9967,174,-8260,736,-62,47,16,12798,10,3,0,0,37289,312,25,79,0,0,0,0,0,0,0,0,-32318,0,0,0,3880,0,11043,0
9977,268,-8254,880,-54,46,-7,12797,-3,4,0,0,37287,304,25,79,0,0,0,0,0,0,0,0,-32317,0,0,0,3880,0,11063,0
9987,330,-8256,914,-44,43,-18,12798,4,1,0,0,37289,304,25,79,0,0,0,0,0,0,0,0,-32319,0,0,0,3880,0,11083,0
9997,356,-8232,860,-48,38,2,12798,-7,5,-2,0,37290,314,25,79,0,0,0,0,0,0,0,0,-32318,0,0,0,3879,0,11103,0
10007,380,-8214,950,-52,30,5,12796,-9,-6,0,0,37288,315,25,79,0,0,0,0,0,0,0,0,-32318,0,0,0,3880,0,11123,0
10017,328,-8124,938,-48,41,10,12798,2,4,0,0,37294,318,25,79,0,0,0,0,0,0,0,0,-32318,0,0,0,3880,0,11143,0
10027,314,-8272,850,-53,45,8,12797,-2,-1,-2,0,37295,314,25,79,0,0,0,0,0,0,0,0,-32318,0,0,0,3878,0,11163,0
10037,326,-8230,894,-55,45,14,12796,-2,-2,0,0,37295,309,25,79,0,0,0,0,0,0,0,0,-32318,0,0,0,3879,0,11183,0
10047,318,-8224,930,-54,43,6,12797,8,-3,0,0,37287,317,25,79,0,0,0,0,0,0,0,0,-32318,0,0,0,3878,0,11203,0
10057,288,-8286,880,-50,36,14,12798,0,2,-1,0,37288,317,25,79,0,0,0,0,0,0,0,0,-32318,0,0,0,3879,0,11223,0
10067,314,-8224,896,-51,35,3,12797,4,-2,0,0,37288,318,25,79,0,0,0,0,0,0,0,0,-32318,0,0,0,3880,0,11243,0
10077,290,-8188,904,-51,35,-6,12798,3,2,-2,0,37286,310,25,79,0,0,0,0,0,0,0,0,-32318,0,0,0,3879,0,11263,0
10087,322,-8222,898,-55,35,0,12797,7,-2,-1,0,37285,306,25,79,0,0,0,0,0,0,0,0,-32318,0,0,0,3879,0,11284,0
10097,352,-8314,932,-48,41,-4,12797,-3,1,0,0,37285,315,25,79,0,0,0,0,0,0,0,0,-32318,0,0,0,3879,0,11304,0
10107,350,-8182,962,-51,48,-5,12799,1,-2,-2,0,37286,316,25,79,0,0,0,0,0,0,0,0,-32318,0,0,0,3878,0,11324,0
10117,324,-8226,938,-63,42,10,12797,1,-3,2,0,37286,319,25,79,0,0,0,0,0,0,0,0,-32318,0,0,0,3878,0,11344,0
10127,344,-8240,874,-61,36,9,12797,0,0,-1,0,37286,315,25,79,0,0,0,0,0,0,0,0,-32318,0,0,0,3879,0,11364,0
10137,350,-8260,880,-59,41,12,12796,-11,-3,0,0,37286,314,25,79,0,0,0,0,0,0,0,0,-32318,0,0,0,3877,0,11384,0
10147,310,-8218,876,-62,41,23,12798,0,4,-2,0,37284,309,25,79,0,0,0,0,0,0,0,0,-32318,0,0,0,3879,0,11404,0
10157,338,-8260,880,-60,35,23,12798,4,3,-1,0,37281,307,25,79,0,0,0,0,0,0,0,0,-32318,0,0,0,3879,0,11424,0
10167,336,-8218,896,-54,42,21,12797,-1,3,0,0,37283,312,25,79,0,0,0,0,0,0,0,0,-32318,0,0,0,3877,0,11444,0
10177,324,-8186,898,-52,42,18,12796,-6,-3,-2,0,37286,314,25,79,0,0,0,0,0,0,0,0,-32318,0,0,0,3877,0,11464,0
10187,320,-8260,898,-54,38,25,12797,5,1,1,0,37285,306,25,79,0,0,0,0,0,0,0,0,-32318,0,0,0,3879,0,11484,0
10197,290,-8274,916,-56,44,12,12798,6,-1,-1,0,37282,304,25,79,0,0,0,0,0,0,0,0,-32318,0,0,0,3879,0,11504,0
10207,300,-8200,930,-57,45,17,12798,5,2,-1,0,37282,310,25,79,0,0,0,0,0,0,0,0,-32318,0,0,0,3877,0,11524,0
10217,284,-8234,880,-52,40,18,12797,-4,2,-1,0,37288,313,25,79,0,0,0,0,0,0,0,0,-32318,0,0,0,3878,0,11544,0
10227,338,-8260,890,-55,36,12,12798,4,-4,0,0,37289,313,25,79,0,0,0,0,0,0,0,0,-32318,0,0,0,3877,0,11564,0
10237,320,-8228,902,-56,37,15,12798,0,2,0,0,37289,309,25,79,0,0,0,0,0,0,0,0,-32318,0,0,0,3877,0,11584,0
10247,302,-8212,880,-60,37,18,12798,8,-4,-1,0,37285,317,25,79,0,0,0,0,0,0,0,0,-32318,0,0,0,3878,0,11604,0
10257,324,-8268,882,-58,44,14,12798,-5,-2,-1,0,37282,319,25,79,0,0,0,0,0,0,0,0,-32318,0,0,0,3878,0,11624,0
10267,342,-8198,894,-49,42,7,12798,4,-1,-1,0,37279,317,25,79,0,0,0,0,0,0,0,0,-32318,0,0,0,3879,0,11644,0
10277,340,-8246,886,-53,40,25,12797,3,3,0,0,37280,307,25,79,0,0,0,0,0,0,0,0,-32318,0,0,0,3879,0,11664,0
10287,334,-8264,868,-53,37,22,12797,-5,-6,0,0,37281,307,25,79,0,0,0,0,0,0,0,0,-32317,0,0,0,3879,0,11684,0
10297,310,-8194,876,-46,39,14,12799,7,-1,-1,0,37282,309,25,79,0,0,0,0,0,0,0,0,-32318,0,0,0,3879,0,11705,0
10307,296,-8248,862,-44,39,20,12798,3,-2,0,0,37280,310,25,79,0,0,0,0,0,0,0,0,-32318,0,0,0,3880,0,11725,0
10317,298,-8244,922,-48,42,17,12799,0,3,0,0,37281,311,25,79,0,0,0,0,0,0,0,0,-32318,0,0,0,3879,0,11744,0
10327,306,-8208,908,-45,45,9,12797,-6,-1,-5,0,37285,302,25,79,0,0,0,0,0,0,0,0,-32318,0,0,0,3879,0,11764,0
10337,296,-8244,876,-48,44,8,12797,4,-3,0,0,37284,297,25,79,0,0,0,0,0,0,0,0,-32318,0,0,0,3879,0,11785,0
10347,308,-8258,888,-47,36,12,12797,1,2,-1,0,37285,292,25,79,0,0,0,0,0,0,0,0,-32318,0,0,0,3879,0,11805,0
10357,312,-8254,904,-43,46,1,12798,-4,1,-1,0,37283,307,25,79,0,0,0,0,0,0,0,0,-32318,0,0,0,3879,0,11825,0
10367,356,-8220,890,-45,42,4,12798,3,1,0,0,37285,308,25,79,0,0,0,0,0,0,0,0,-32318,0,0,0,3879,0,11845,0
10377,374,-8252,902,-43,42,16,12798,0,-2,0,0,37284,307,25,79,0,0,0,0,0,0,0,0,-32318,0,0,0,3877,0,11865,0
10387,386,-8286,906,-48,40,14,12797,-3,0,0,0,37281,310,25,79,0,0,0,0,0,0,0,0,-32318,0,0,0,3877,0,11885,0
10397,346,-8246,922,-48,49,18,12797,-7,0,0,0,37283,319,25,79,0,0,0,0,0,0,0,0,-32318,0,0,0,3879,0,11905,0
10407,318,-8252,892,-54,38,20,12799,5,1,-2,0,37282,329,25,79,0,0,0,0,0,0,0,0,-32318,0,0,0,3879,0,11925,0
10417,340,-8244,888,-57,43,25,12797,-3,5,0,0,37279,321,25,79,0,0,0,0,0,0,0,0,-32318,0,0,0,3879,0,11945,0
10427,306,-8242,920,-52,39,22,12799,11,1,0,0,37276,312,25,79,0,0,0,0,0,0,0,0,-32317,0,0,0,3878,0,11965,0
10437,288,-8226,874,-50,41,24,12797,1,5,0,0,37275,314,25,79,0,0,0,0,0,0,0,0,-32318,0,0,0,3880,0,11985,0
10447,294,-8248,872,-51,45,19,12797,2,5,0,0,37275,318,25,79,0,0,0,0,0,0,0,0,-32318,0,0,0,3878,0,12005,0
10457,304,-8214,888,-47,41,17,12798,5,4,-1,0,37277,314,25,79,0,0,0,0,0,0,0,0,-32318,0,0,0,3880,0,12025,0
10467,322,-8222,892,-53,43,16,12797,0,-3,0,0,37275,314,25,79,0,0,0,0,0,0,0,0,-32318,0,0,0,3880,0,12045,0
10477,332,-8248,886,-45,46,18,12798,4,-3,-2,0,37275,305,25,79,0,0,0,0,0,0,0,0,-32318,0,0,0,3879,0,12065,0
10487,322,-8236,886,-46,42,16,12798,3,1,0,0,37275,302,25,79,0,0,0,0,0,0,0,0,-32318,0,0,0,3880,0,12085,0
10497,332,-8222,906,-51,40,22,12799,-1,-1,0,0,37275,309,25,79,0,0,0,0,0,0,0,0,-32318,0,0,0,3879,0,12105,0
10507,364,-8256,898,-49,39,23,12799,1,0,0,0,37278,313,25,79,0,0,0,0,0,0,0,0,-32318,0,0,0,3879,0,12125,0
10517,348,-8256,910,-46,40,21,12797,0,8,0,0,37278,315,25,79,0,0,0,0,0,0,0,0,-32318,0,0,0,3879,0,12145,0
10527,278,-8220,928,-56,41,25,12797,3,1,-1,0,37278,314,25,79,0,0,0,0,0,0,0,0,-32318,0,0,0,3879,0,12165,0
10537,302,-8242,898,-56,40,22,12798,0,3,1,0,37284,316,25,79,0,0,0,0,0,0,0,0,-32318,0,0,0,3879,0,12185,0
10547,286,-8238,856,-53,42,12,12796,-4,-2,0,0,37287,323,25,79,0,0,0,0,0,0,0,0,-32318,0,0,0,3880,0,12205,0
10557,286,-8250,864,-49,43,14,12796,-2,-2,0,0,37286,322,25,79,0,0,0,0,0,0,0,0,-32318,0,0,0,3880,0,12225,0
10567,306,-8230,864,-46,42,14,12798,0,1,0,0,37277,311,25,79,0,0,0,0,0,0,0,0,-32317,0,0,0,3880,0,12245,0
10577,330,-8238,890,-41,39,2,12797,-7,4,-1,0,37278,315,25,79,0,0,0,0,0,0,0,0,-32318,0,0,0,3880,0,12265,0
10587,316,-8256,932,-43,43,11,12798,1,4,0,0,37282,318,25,79,0,0,0,0,0,0,0,0,-32318,0,0,0,3879,0,12285,0
10597,286,-8240,924,-47,44,15,12798,3,-4,0,0,37285,313,25,79,0,0,0,0,0,0,0,0,-32318,0,0,0,3879,0,12305,0
10607,342,-8226,936,-47,41,13,12798,0,1,-1,0,37279,310,25,79,0,0,0,0,0,0,0,0,-32318,0,0,0,3879,0,12325,0
10617,332,-8252,912,-53,38,18,12798,-5,-3,0,0,37278,307,25,79,0,0,0,0,0,0,0,0,-32318,0,0,0,3879,0,12345,0
10627,332,-8230,906,-54,45,20,12798,1,-2,-1,0,37280,309,25,79,0,0,0,0,0,0,0,0,-32318,0,0,0,3879,0,12365,0
10637,296,-8236,910,-52,42,14,12798,0,-2,0,0,37283,306,25,79,0,0,0,0,0,0,0,0,-32317,0,0,0,3879,0,12385,0
10647,308,-8256,890,-51,46,11,12797,-5,-4,1,0,37288,312,25,79,0,0,0,0,0,0,0,0,-32318,0,0,0,3880,0,12405,0
10657,306,-8208,896,-49,39,21,12797,-4,-1,-1,0,37286,322,25,79,0,0,0,0,0,0,0,0,-32318,0,0,0,3879,0,12425,0
10667,326,-8236,884,-50,38,18,12797,-3,-2,0,0,37286,325,25,79,0,0,0,0,0,0,0,0,-32318,0,0,0,3879,0,12445,0
10677,308,-8260,908,-47,40,10,12798,7,5,-1,0,37282,318,25,79,0,0,0,0,0,0,0,0,-32318,0,0,0,3880,0,12465,0
10687,310,-8226,882,-50,37,12,12797,-2,-1,0,0,37284,315,25,79,0,0,0,0,0,0,0,0,-32318,0,0,0,3879,0,12485,0
10697,298,-8246,854,-46,38,11,12797,-5,-3,0,0,37285,316,25,79,0,0,0,0,0,0,0,0,-32318,0,0,0,3879,0,12505,0
10707,298,-8244,886,-43,41,7,12798,-1,2,0,0,37284,318,25,79,0,0,0,0,0,0,0,0,-32317,0,0,0,3879,0,12525,0
10717,304,-8232,902,-45,40,10,12797,-2,-1,0,0,37285,317,25,79,0,0,0,0,0,0,0,0,-32318,0,0,0,3880,0,12545,0
10727,310,-8214,946,-46,45,11,12797,0,1,0,0,37298,314,25,79,0,0,0,0,0,0,0,0,-32318,0,0,0,3879,0,12565,0
10737,342,-8246,914,-48,40,6,12798,-1,1,0,0,37309,315,25,79,0,0,0,0,0,0,0,0,-32318,0,0,0,3880,0,12585,0
10747,342,-8236,894,-48,41,11,12798,-2,-1,0,0,37319,310,25,79,0,0,0,0,0,0,0,0,-32318,0,0,0,3878,0,12605,0
10757,360,-8246,890,-53,38,19,12798,-4,5,-1,0,37311,311,25,79,0,0,0,0,0,0,0,0,-32318,0,0,0,3879,0,12625,0
10767,336,-8230,884,-59,44,12,12798,2,-4,0,0,37301,310,25,79,0,0,0,0,0,0,0,0,-32318,0,0,0,3879,0,12645,0
10777,326,-8212,866,-50,43,17,12798,0,-3,-1,0,37291,305,25,79,0,0,0,0,0,0,0,0,-32318,0,0,0,3879,0,12665,0
10787,340,-8244,874,-54,40,18,12797,0,-2,1,0,37286,304,25,79,0,0,0,0,0,0,0,0,-32318,0,0,0,3879,0,12685,0
10797,298,-8254,858,-49,37,20,12797,-2,-2,0,0,37284,303,25,79,0,0,0,0,0,0,0,0,-32318,0,0,0,3879,0,12705,0
10807,284,-8246,898,-56,36,20,12797,7,6,0,0,37285,311,25,79,0,0,0,0,0,0,0,0,-32318,0,0,0,3879,0,12725,0
10817,308,-8228,886,-49,41,17,12798,-1,3,1,0,37286,312,25,79,0,0,0,0,0,0,0,0,-32318,0,0,0,3879,0,12745,0
10827,296,-8212,902,-51,46,13,12798,3,-7,0,0,37286,307,25,79,0,0,0,0,0,0,0,0,-32318,0,0,0,3879,0,12765,0
10837,328,-8244,926,-61,44,16,12797,1,3,-3,0,37286,307,25,79,0,0,0,0,0,0,0,0,-32318,0,0,0,3879,0,12785,0
10847,294,-8240,936,-57,40,16,12797,-2,-3,2,0,37293,310,25,79,0,0,0,0,0,0,0,0,-32318,0,0,0,3879,0,12805,0
10857,318,-8260,898,-62,47,14,12798,7,2,0,0,37293,314,25,79,0,0,0,0,0,0,0,0,-32317,0,0,0,3879,0,12825,0
10867,324,-8264,908,-60,40,14,12797,-7,-4,-1,0,37291,315,25,79,0,0,0,0,0,0,0,0,-32318,0,0,0,3879,0,12845,0
10877,320,-8220,860,-58,48,22,12797,-5,-1,-1,0,37288,315,25,79,0,0,0,0,0,0,0,0,-32318,0,0,0,3879,0,12865,0
10887,302,-8220,848,-52,38,18,12797,-4,0,0,0,37288,318,25,79,0,0,0,0,0,0,0,0,-32318,0,0,0,3879,0,12885,0
10897,302,-8258,860,-50,44,17,12799,9,6,-1,0,37291,313,25,79,0,0,0,0,0,0,0,0,-32317,0,0,0,3879,0,12905,0
10907,256,-8210,870,-44,38,15,12798,-3,2,0,0,37289,314,25,79,0,0,0,0,0,0,0,0,-32318,0,0,0,3879,0,12925,0
10917,272,-8214,892,-47,34,9,12797,2,-5,-1,0,37288,309,25,79,0,0,0,0,0,0,0,0,-32318,0,0,0,3880,0,12945,0
10927,290,-8224,902,-50,38,8,12798,8,1,0,0,37288,301,25,79,0,0,0,0,0,0,0,0,-32317,0,0,0,3879,0,12965,0
10937,304,-8236,902,-49,40,7,12798,-1,0,0,0,37289,297,25,79,0,0,0,0,0,0,0,0,-32318,0,0,0,3880,0,12985,0
10947,330,-8206,900,-52,42,12,12796,-1,-7,-1,0,37289,303,25,79,0,0,0,0,0,0,0,0,-32317,0,0,0,3879,0,13005,0
10957,376,-8252,922,-53,42,13,12797,4,2,1,0,37296,311,25,79,0,0,0,0,0,0,0,0,-32318,0,0,0,3879,0,13025,0
10967,320,-8196,908,-50,40,14,12798,-1,3,0,0,37296,315,25,79,0,0,0,0,0,0,0,0,-32318,0,0,0,3879,0,13045,0
10977,310,-8252,902,-59,41,15,12797,-4,-12,0,0,37294,317,25,79,0,0,0,0,0,0,0,0,-32318,0,0,0,3879,0,13065,0
10987,302,-8256,888,-51,37,15,12797,-4,-2,-1,0,37288,313,25,79,0,0,0,0,0,0,0,0,-32319,0,0,0,3879,0,13085,0
10997,296,-8224,888,-50,40,17,12798,4,-1,-1,0,37288,310,25,79,0,0,0,0,0,0,0,0,-32317,0,0,0,3879,0,13105,0
11007,296,-8244,886,-50,40,18,12797,-3,-3,0,0,37287,305,25,79,0,0,0,0,0,0,0,0,-32318,0,0,0,3879,0,13125,0
11017,296,-8234,908,-50,44,16,12799,7,2,0,0,37286,303,25,79,0,0,0,0,0,0,0,0,-32318,0,0,0,3879,0,13145,0
11027,310,-8216,882,-51,42,13,12797,-8,-2,-1,0,37285,309,25,79,0,0,0,0,0,0,0,0,-32318,0,0,0,3880,0,13165,0
11037,298,-8262,914,-54,37,18,12797,-7,1,0,0,37287,307,25,79,0,0,0,0,0,0,0,0,-32318,0,0,0,3880,0,13185,0
11047,308,-8246,910,-53,42,17,12798,-1,-1,-1,0,37289,311,25,79,0,0,0,0,0,0,0,0,-32318,0,0,0,3880,0,13205,0
11057,318,-8240,918,-52,39,15,12798,1,2,0,0,37290,309,25,79,0,0,0,0,0,0,0,0,-32318,0,0,0,3879,0,13225,0
11067,302,-8218,904,-50,39,16,12798,-2,-3,0,0,37293,318,25,79,0,0,0,0,0,0,0,0,-32318,0,0,0,3879,0,13245,0
11077,288,-8226,892,-49,41,16,12796,-1,-6,0,0,37293,318,25,79,0,0,0,0,0,0,0,0,-32318,0,0,0,3878,0,13265,0
11087,288,-8248,902,-51,44,15,12797,-9,0,0,0,37294,316,25,79,0,0,0,0,0,0,0,0,-32318,0,0,0,3880,0,13287,0
11097,316,-8204,878,-52,42,17,12798,7,-2,-1,0,37290,317,25,79,0,0,0,0,0,0,0,0,-32318,0,0,0,3879,0,13306,0
11107,326,-8252,892,-51,36,19,12797,-1,0,0,0,37286,327,25,79,0,0,0,0,0,0,0,0,-32318,0,0,0,3879,0,13326,0
11117,320,-8260,920,-51,43,18,12797,0,2,-1,0,37282,323,25,79,0,0,0,0,0,0,0,0,-32317,0,0,0,3879,0,13346,0
11127,294,-8222,880,-53,37,23,12798,6,-1,-1,0,37282,321,25,79,0,0,0,0,0,0,0,0,-32318,0,0,0,3880,0,13366,0
11137,256,-8248,854,-52,37,18,12798,-1,3,-1,0,37285,321,25,79,0,0,0,0,0,0,0,0,-32318,0,0,0,3879,0,13386,0
11147,248,-8238,852,-47,41,16,12799,-1,3,0,0,37284,323,25,79,0,0,0,0,0,0,0,0,-32317,0,0,0,4547,0,13407,0
11157,286,-8220,860,-41,42,9,12797,-6,-7,0,0,37280,320,25,79,0,0,0,0,0,0,0,0,-32317,0,0,0,3880,0,13426,0
11167,312,-8234,902,-40,37,3,12798,2,-3,0,0,37286,310,25,79,0,0,0,0,0,0,0,0,-32318,0,0,0,3880,0,13446,0
11177,292,-8234,922,-42,38,2,12799,11,3,-2,0,37287,313,25,79,0,0,0,0,0,0,0,0,-32318,0,0,0,3880,0,13466,0
11187,288,-8218,922,-45,41,0,12797,0,-5,0,0,37289,311,25,79,0,0,0,0,0,0,0,0,-32318,0,0,0,3879,0,13486,0
11197,316,-8244,900,-47,43,3,12798,-1,-4,-1,0,37281,322,25,79,0,0,0,0,0,0,0,0,-32318,0,0,0,3879,0,13506,0
11207,328,-8244,918,-47,40,6,12798,1,-7,0,0,37279,318,25,79,0,0,0,0,0,0,0,0,-32318,0,0,0,3879,0,13526,0
11217,328,-8228,878,-49,42,6,12798,-2,-2,0,0,37281,318,25,79,0,0,0,0,0,0,0,0,-32318,0,0,0,3879,0,13546,0
11227,334,-8246,860,-47,38,11,12798,6,0,0,0,37282,315,25,79,0,0,0,0,0,0,0,0,-32318,0,0,0,3880,0,13566,0
11237,336,-8258,900,-53,41,12,12798,6,-5,0,0,37282,309,25,79,0,0,0,0,0,0,0,0,-32317,0,0,0,3879,0,13586,0
11247,348,-8216,914,-50,38,17,12797,3,-3,-1,0,37279,310,25,79,0,0,0,0,0,0,0,0,-32318,0,0,0,3879,0,13606,0
11257,326,-8270,900,-50,38,14,12798,-2,1,0,0,37278,316,25,79,0,0,0,0,0,0,0,0,-32318,0,0,0,3879,0,13626,0
11267,314,-8246,904,-50,43,15,12798,2,1,1,0,37287,315,25,79,0,0,0,0,0,0,0,0,-32318,0,0,0,3879,0,13646,0
11277,310,-8236,884,-50,38,15,12798,0,1,-1,0,37289,314,25,79,0,0,0,0,0,0,0,0,-32318,0,0,0,3879,0,13666,0
11287,276,-8256,884,-47,45,13,12797,0,-5,0,0,37288,315,25,79,0,0,0,0,0,0,0,0,-32318,0,0,0,3879,0,13686,0
11297,312,-8252,900,-51,41,15,12798,6,0,0,0,37280,313,25,79,0,0,0,0,0,0,0,0,-32317,0,0,0,3879,0,13706,0
11307,314,-8240,912,-49,41,16,12796,-3,-3,0,0,37276,310,25,79,0,0,0,0,0,0,0,0,-32318,0,0,0,3879,0,13726,0
11317,326,-8264,912,-54,40,22,12796,-7,6,0,0,37277,313,25,79,0,0,0,0,0,0,0,0,-32318,0,0,0,3879,0,13746,0
11327,320,-8252,924,-50,38,19,12798,3,-1,-2,0,37279,322,25,79,0,0,0,0,0,0,0,0,-32317,0,0,0,3879,0,13766,0
11337,326,-8234,908,-49,40,18,12799,8,4,0,0,37280,323,25,79,0,0,0,0,0,0,0,0,-32318,0,0,0,3879,0,13786,0
11347,322,-8244,892,-53,43,19,12798,0,-1,-1,0,37278,317,25,79,0,0,0,0,0,0,0,0,-32317,0,0,0,3880,0,13806,0
11357,316,-8238,878,-52,43,20,12797,5,-1,1,0,37275,319,25,79,0,0,0,0,0,0,0,0,-32318,0,0,0,3879,0,13826,0
11367,300,-8238,882,-50,40,16,12796,0,-4,-1,0,37275,321,25,79,0,0,0,0,0,0,0,0,-32318,0,0,0,3879,0,13846,0
11377,316,-8244,890,-44,48,17,12798,0,1,-1,0,37279,316,25,79,0,0,0,0,0,0,0,0,-32318,0,0,0,3880,0,13866,0
11387,298,-8242,908,-43,39,19,12799,1,-2,0,0,37281,308,25,79,0,0,0,0,0,0,0,0,-32318,0,0,0,3879,0,13887,0
11397,288,-8232,896,-45,40,11,12798,6,-1,-2,0,37280,308,25,79,0,0,0,0,0,0,0,0,-32317,0,0,0,3879,0,13907,0
11407,292,-8230,872,-41,36,14,12798,2,3,0,0,37273,309,25,79,0,0,0,0,0,0,0,0,-32318,0,0,0,3879,0,13927,0
11417,316,-8246,874,-45,37,13,12798,0,-5,-1,0,37274,309,25,79,0,0,0,0,0,0,0,0,-32317,0,0,0,3879,0,13947,0
11427,310,-8254,902,-44,40,13,12798,-1,1,-3,0,37271,307,25,79,0,0,0,0,0,0,0,0,-32317,0,0,0,3879,0,13967,0
11437,306,-8214,894,-45,36,10,12798,-2,-3,0,0,37274,304,25,79,0,0,0,0,0,0,0,0,-32317,0,0,0,3879,0,13987,0
11447,314,-8240,918,-42,47,16,12797,4,4,-1,0,37275,313,25,79,0,0,0,0,0,0,0,0,-32317,0,0,0,3879,0,14007,0
11457,346,-8224,938,-53,42,15,12799,0,-4,0,0,37275,311,25,79,0,0,0,0,0,0,0,0,-32318,0,0,0,3879,0,14027,0
11467,318,-8224,912,-55,43,17,12798,-2,4,0,0,37274,318,25,79,0,0,0,0,0,0,0,0,-32318,0,0,0,3880,0,14047,0
11477,338,-8244,892,-55,44,23,12796,-7,-2,0,0,37280,317,25,79,0,0,0,0,0,0,0,0,-32318,0,0,0,3879,0,14067,0
11487,332,-8234,898,-57,43,21,12798,-3,-1,0,0,37281,308,25,79,0,0,0,0,0,0,0,0,-32318,0,0,0,3879,0,14087,0
11497,316,-8238,878,-54,41,25,12797,0,7,0,0,37280,308,25,79,0,0,0,0,0,0,0,0,-32318,0,0,0,3879,0,14107,0
11507,310,-8266,886,-50,42,25,12796,-6,4,0,0,37282,308,25,79,0,0,0,0,0,0,0,0,-32318,0,0,0,3879,0,14127,0
11517,300,-8234,906,-50,42,22,12796,-7,0,0,0,37277,315,25,79,0,0,0,0,0,0,0,0,-32318,0,0,0,3879,0,14147,0
11527,312,-8230,864,-53,40,20,12797,-6,1,0,0,37276,314,25,79,0,0,0,0,0,0,0,0,-32318,0,0,0,3879,0,14167,0
11537,292,-8248,882,-52,41,17,12798,-3,-2,0,0,37275,315,25,79,0,0,0,0,0,0,0,0,-32318,0,0,0,3880,0,14187,0
11547,294,-8220,882,-49,40,19,12797,0,0,-2,0,37276,309,25,79,0,0,0,0,0,0,0,0,-32317,0,0,0,3879,0,14207,0
11557,282,-8238,890,-46,37,12,12797,5,0,-1,0,37278,311,25,79,0,0,0,0,0,0,0,0,-32318,0,0,0,3879,0,14227,0
11567,286,-8250,882,-49,38,7,12797,0,4,0,0,37278,311,25,79,0,0,0,0,0,0,0,0,-32318,0,0,0,3879,0,14247,0
11577,342,-8246,930,-47,42,12,12796,-12,1,-1,0,37277,308,25,79,0,0,0,0,0,0,0,0,-32318,0,0,0,3879,0,14267,0
11587,354,-8218,916,-47,47,15,12798,1,-3,-1,0,37283,311,25,79,0,0,0,0,0,0,0,0,-32318,0,0,0,3879,0,14287,0
11597,332,-8260,938,-55,46,17,12797,-2,2,-1,0,37286,308,25,79,0,0,0,0,0,0,0,0,-32318,0,0,0,3879,0,14307,0
11607,316,-8228,900,-52,41,17,12799,3,-3,0,0,37285,311,25,79,0,0,0,0,0,0,0,0,-32317,0,0,0,3880,0,14327,0
11617,280,-8196,872,-51,45,16,12797,1,3,0,0,37278,314,25,79,0,0,0,0,0,0,0,0,-32318,0,0,0,3879,0,14347,0
11627,284,-8246,876,-51,42,8,12796,-7,-2,-1,0,37278,314,25,79,0,0,0,0,0,0,0,0,-32318,0,0,0,3880,0,14367,0
11637,304,-8244,858,-55,38,8,12797,5,4,0,0,37280,312,25,79,0,0,0,0,0,0,0,0,-32317,0,0,0,3879,0,14387,0
11647,312,-8246,914,-46,43,6,12796,-6,3,0,0,37282,309,25,79,0,0,0,0,0,0,0,0,-32318,0,0,0,3879,0,14407,0
11657,306,-8234,904,-47,43,5,12797,-5,3,-1,0,37281,314,25,79,0,0,0,0,0,0,0,0,-32318,0,0,0,3879,0,14427,0
11667,316,-8244,908,-47,38,8,12797,-6,-2,-1,0,37279,323,25,79,0,0,0,0,0,0,0,0,-32318,0,0,0,3879,0,14447,0
11677,330,-8252,886,-45,39,2,12798,1,-2,-1,0,37281,323,25,79,0,0,0,0,0,0,0,0,-32318,0,0,0,3879,0,14467,0
11687,360,-8258,878,-51,37,9,12798,0,2,-3,0,37285,315,25,79,0,0,0,0,0,0,0,0,-32318,0,0,0,3879,0,14487,0
11697,334,-8268,906,-49,41,10,12798,2,2,-2,0,37286,313,25,79,0,0,0,0,0,0,0,0,-32318,0,0,0,3879,0,14507,0
11707,322,-8216,906,-49,43,12,12798,0,0,0,0,37284,311,25,79,0,0,0,0,0,0,0,0,-32318,0,0,0,3879,0,14527,0
11717,364,-8228,898,-56,40,11,12799,2,-1,0,0,37283,311,25,79,0,0,0,0,0,0,0,0,-32318,0,0,0,3879,0,14547,0
11727,340,-8260,908,-54,38,20,12797,6,6,-2,0,37283,311,25,79,0,0,0,0,0,0,0,0,-32318,0,0,0,3880,0,14567,0
11737,328,-8224,890,-49,39,17,12798,1,-2,0,0,37285,303,25,79,0,0,0,0,0,0,0,0,-32318,0,0,0,3879,0,14587,0
11747,302,-8252,916,-57,41,19,12799,-4,1,0,0,37287,300,25,79,0,0,0,0,0,0,0,0,-32317,0,0,0,3879,0,14607,0
11757,302,-8256,894,-56,43,17,12798,0,-1,-1,0,37287,303,25,79,0,0,0,0,0,0,0,0,-32317,0,0,0,3879,0,14627,0
11767,320,-8236,902,-58,46,13,12799,1,3,0,0,37289,313,25,79,0,0,0,0,0,0,0,0,-32317,0,0,0,3879,0,14647,0
11777,288,-8228,890,-51,40,17,12797,1,3,-1,0,37291,313,25,79,0,0,0,0,0,0,0,0,-32318,0,0,0,3879,0,14667,0
11787,292,-8238,862,-53,36,18,12798,5,1,0,0,37291,312,25,79,0,0,0,0,0,0,0,0,-32318,0,0,0,3879,0,14687,0
11797,304,-8248,872,-47,37,14,12798,0,0,-1,0,37292,318,25,79,0,0,0,0,0,0,0,0,-32317,0,0,0,3879,0,14707,0
11807,294,-8220,846,-41,41,11,12798,1,0,0,0,37292,327,25,79,0,0,0,0,0,0,0,0,-32318,0,0,0,3879,0,14727,0
11817,308,-8236,914,-47,40,10,12797,0,-3,0,0,37291,332,25,79,0,0,0,0,0,0,0,0,-32317,0,0,0,3879,0,14747,0
11827,320,-8230,922,-50,41,10,12797,-1,2,-3,0,37283,319,25,79,0,0,0,0,0,0,0,0,-32317,0,0,0,3879,0,14767,0
11837,352,-8260,940,-54,39,14,12798,2,-3,0,0,37281,321,25,79,0,0,0,0,0,0,0,0,-32317,0,0,0,3879,0,14787,0
11847,318,-8254,910,-57,44,10,12797,5,-3,0,0,37282,328,25,79,0,0,0,0,0,0,0,0,-32317,0,0,0,3879,0,14807,0
11857,304,-8222,874,-58,40,13,12797,2,4,-1,0,37286,328,25,79,0,0,0,0,0,0,0,0,-32318,0,0,0,3879,0,14827,0
11867,308,-8234,856,-54,39,15,12796,-5,-2,0,0,37287,325,25,79,0,0,0,0,0,0,0,0,-32317,0,0,0,3879,0,14847,0
11877,314,-8246,876,-50,42,19,12797,6,-1,-2,0,37286,313,25,79,0,0,0,0,0,0,0,0,-32318,0,0,0,3880,0,14867,0
11887,300,-8232,882,-54,42,13,12797,2,3,0,0,37285,316,25,79,0,0,0,0,0,0,0,0,-32317,0,0,0,3880,0,14887,0
11897,314,-8228,902,-49,38,12,12797,-3,-3,-1,0,37285,319,25,79,0,0,0,0,0,0,0,0,-32317,0,0,0,3879,0,14907,0
11907,324,-8258,924,-48,44,16,12797,-10,-2,0,0,37293,314,25,79,0,0,0,0,0,0,0,0,-32318,0,0,0,3880,0,14927,0
11917,304,-8250,900,-54,40,11,12798,6,-3,-1,0,37295,318,25,79,0,0,0,0,0,0,0,0,-32318,0,0,0,3879,0,14947,0
11927,330,-8254,918,-55,41,9,12798,5,5,0,0,37296,314,25,79,0,0,0,0,0,0,0,0,-32317,0,0,0,3879,0,14967,0
11937,320,-8252,894,-53,37,15,12798,3,2,-1,0,37289,317,25,79,0,0,0,0,0,0,0,0,-32317,0,0,0,3879,0,14987,0
11947,328,-8250,886,-47,42,15,12799,-6,0,0,0,37289,313,25,79,0,0,0,0,0,0,0,0,-32318,0,0,0,3878,0,15007,0
11957,302,-8242,906,-52,34,13,12797,-10,-5,-1,0,37289,316,25,79,0,0,0,0,0,0,0,0,-32317,0,0,0,3879,0,15027,0
11967,332,-8250,870,-51,43,17,12797,-10,-5,0,0,37288,317,25,79,0,0,0,0,0,0,0,0,-32317,0,0,0,3879,0,15047,0
11977,310,-8250,884,-49,42,14,12798,-7,-4,-1,0,37287,322,25,79,0,0,0,0,0,0,0,0,-32318,0,0,0,3879,0,15067,0
11987,316,-8248,898,-52,42,16,12798,2,2,0,0,37289,322,25,79,0,0,0,0,0,0,0,0,-32318,0,0,0,3879,0,15087,0
11997,304,-8240,890,-51,40,14,12797,-7,-3,-1,0,37289,324,25,79,0,0,0,0,0,0,0,0,-32317,0,0,0,3879,0,15107,0
12007,318,-8256,904,-54,41,15,12796,-4,-3,-1,0,37299,322,25,79,0,0,0,0,0,0,0,0,-32318,0,0,0,3879,0,15127,0
12017,298,-8224,884,-52,38,13,12798,-1,4,-1,0,37303,329,25,79,0,0,0,0,0,0,0,0,-32317,0,0,0,3879,0,15147,0
12027,286,-8222,880,-48,38,9,12798,1,1,-1,0,37303,322,25,79,0,0,0,0,0,0,0,0,-32317,0,0,0,3878,0,15167,0
12037,284,-8216,904,-46,44,14,12797,-9,4,0,0,37295,326,25,79,0,0,0,0,0,0,0,0,-32317,0,0,0,3878,0,15187,0
12047,278,-8214,898,-43,38,8,12797,-5,-2,-1,0,37288,317,25,79,0,0,0,0,0,0,0,0,-32318,0,0,0,3879,0,15207,0
12057,328,-8238,928,-41,35,8,12797,-4,2,-1,0,37286,323,25,79,0,0,0,0,0,0,0,0,-32317,0,0,0,3879,0,15227,0
12067,298,-8256,912,-39,48,3,12797,-1,-3,-1,0,37283,327,25,79,0,0,0,0,0,0,0,0,-32318,0,0,0,3879,0,15247,0
12077,332,-8236,932,-46,40,9,12798,5,-1,0,0,37282,320,25,79,0,0,0,0,0,0,0,0,-32318,0,0,0,3877,0,15267,0
12087,378,-8264,946,-52,45,9,12798,0,-1,0,0,37283,318,25,79,0,0,0,0,0,0,0,0,-32317,0,0,0,3879,0,15287,0
12097,366,-8268,950,-61,42,22,12797,-1,-2,-1,0,37284,316,25,79,0,0,0,0,0,0,0,0,-32317,0,0,0,3878,0,15308,0
12107,300,-8234,892,-57,38,20,12797,1,1,0,0,37285,324,25,79,0,0,0,0,0,0,0,0,-32317,0,0,0,3878,0,15328,0
12117,316,-8272,882,-55,41,18,12797,-4,5,-1,0,37283,331,25,79,0,0,0,0,0,0,0,0,-32317,0,0,0,3879,0,15348,0
12127,310,-8218,870,-51,46,14,12797,0,1,-3,0,37282,325,25,79,0,0,0,0,0,0,0,0,-32318,0,0,0,3878,0,15368,0
12137,322,-8232,858,-49,45,10,12798,2,1,0,0,37282,328,25,79,0,0,0,0,0,0,0,0,-32317,0,0,0,3879,0,15388,0
12147,314,-8218,852,-46,41,14,12798,0,-1,-1,0,37284,325,25,79,0,0,0,0,0,0,0,0,-32317,0,0,0,3879,0,15408,0
12157,254,-8226,892,-42,34,4,12797,-5,0,-1,0,37282,327,25,79,0,0,0,0,0,0,0,0,-32318,0,0,0,3877,0,15428,0
12167,236,-8242,898,-39,42,-1,12797,-4,-2,0,0,37280,321,25,79,0,0,0,0,0,0,0,0,-32318,0,0,0,3879,0,15448,0
12177,306,-8240,896,-44,45,-5,12796,-8,-3,-1,0,37281,316,25,79,0,0,0,0,0,0,0,0,-32317,0,0,0,3879,0,15468,0
12187,336,-8228,906,-47,47,-3,12797,-9,-6,0,0,37282,314,25,79,0,0,0,0,0,0,0,0,-32318,0,0,0,3878,0,15488,0
12197,334,-8244,916,-48,49,0,12798,-1,0,-1,0,37282,315,25,79,0,0,0,0,0,0,0,0,-32317,0,0,0,3879,0,15508,0
12207,336,-8236,946,-58,44,1,12798,7,2,0,0,37279,314,25,79,0,0,0,0,0,0,0,0,-32317,0,0,0,3878,0,15528,0
12217,354,-8232,910,-51,44,7,12797,0,4,0,0,37279,305,25,79,0,0,0,0,0,0,0,0,-32317,0,0,0,3878,0,15548,0
12227,360,-8240,880,-55,43,11,12797,-5,2,-2,0,37280,303,25,79,0,0,0,0,0,0,0,0,-32318,0,0,0,3877,0,15568,0
12237,342,-8232,888,-50,41,19,12797,-2,3,0,0,37282,309,25,79,0,0,0,0,0,0,0,0,-32318,0,0,0,3877,0,15588,0
12247,344,-8252,914,-52,45,21,12799,0,-2,-2,0,37283,314,25,79,0,0,0,0,0,0,0,0,-32317,0,0,0,3879,0,15608,0
12257,350,-8238,902,-57,39,22,12797,-7,2,0,0,37278,316,25,79,0,0,0,0,0,0,0,0,-32318,0,0,0,3879,0,15628,0
12267,302,-8258,904,-53,40,22,12798,-5,-3,-1,0,37276,318,25,79,0,0,0,0,0,0,0,0,-32317,0,0,0,3877,0,15648,0
12277,324,-8230,930,-56,40,21,12798,1,0,0,0,37277,314,25,79,0,0,0,0,0,0,0,0,-32318,0,0,0,3877,0,15668,0
12287,302,-8232,918,-60,40,20,12796,-11,1,0,0,37278,313,25,79,0,0,0,0,0,0,0,0,-32317,0,0,0,3879,0,15688,0
12297,304,-8258,918,-57,43,26,12797,-1,-3,-1,0,37279,315,25,79,0,0,0,0,0,0,0,0,-32317,0,0,0,3878,0,15708,0
12307,328,-8242,896,-66,42,26,12798,2,0,0,0,37276,325,25,79,0,0,0,0,0,0,0,0,-32318,0,0,0,3878,0,15728,0
12317,354,-8256,882,-59,40,27,12799,6,-1,0,0,37277,323,25,79,0,0,0,0,0,0,0,0,-32317,0,0,0,3879,0,15748,0
12327,314,-8240,870,-62,44,33,12796,-10,-3,0,0,37283,322,25,79,0,0,0,0,0,0,0,0,-32317,0,0,0,3879,0,15768,0
12337,310,-8266,870,-61,39,24,12798,3,5,-1,0,37283,314,25,79,0,0,0,0,0,0,0,0,-32317,0,0,0,3879,0,15789,0
12347,294,-8258,878,-57,47,18,12798,2,-10,-2,0,37281,314,25,79,0,0,0,0,0,0,0,0,-32318,0,0,0,3879,0,15808,0
12357,304,-8240,854,-49,39,17,12797,0,-2,-2,0,37274,310,25,79,0,0,0,0,0,0,0,0,-32318,0,0,0,3879,0,15828,0
12367,292,-8248,870,-48,38,19,12799,10,-2,0,0,37275,306,25,79,0,0,0,0,0,0,0,0,-32318,0,0,0,3879,0,15848,0
12377,244,-8246,856,-40,41,13,12797,-9,-2,0,0,37277,306,25,79,0,0,0,0,0,0,0,0,-32317,0,0,0,3879,0,15868,0
12387,220,-8208,852,-41,42,5,12799,1,-2,-1,0,37277,298,25,79,0,0,0,0,0,0,0,0,-32317,0,0,0,3879,0,15889,0
12397,266,-8246,882,-43,36,-4,12798,3,-2,-1,0,37277,306,25,79,0,0,0,0,0,0,0,0,-32318,0,0,0,3879,0,15909,0
12407,286,-8256,916,-39,39,0,12797,1,-2,-1,0,37280,306,25,79,0,0,0,0,0,0,0,0,-32317,0,0,0,3878,0,15929,0
12417,326,-8222,930,-39,38,-7,12798,-1,-5,0,0,37279,303,25,79,0,0,0,0,0,0,0,0,-32317,0,0,0,3879,0,15949,0
12427,328,-8262,928,-44,40,1,12798,-4,-3,-2,0,37282,298,25,79,0,0,0,0,0,0,0,0,-32317,0,0,0,3879,0,15969,0
12437,354,-8228,918,-50,40,5,12797,-6,0,-1,0,37280,302,25,79,0,0,0,0,0,0,0,0,-32318,0,0,0,3877,0,15989,0
12447,358,-8226,906,-50,40,7,12799,7,-2,-1,0,37281,313,25,79,0,0,0,0,0,0,0,0,-32317,0,0,0,3877,0,16009,0
12457,340,-8280,910,-56,39,12,12799,2,1,0,0,37275,321,25,79,0,0,0,0,0,0,0,0,-32317,0,0,0,3877,0,16029,0
12467,336,-8238,896,-52,38,14,12796,-11,1,0,0,37273,326,25,79,0,0,0,0,0,0,0,0,-32317,0,0,0,3877,0,16049,0
12477,318,-8222,864,-51,41,18,12797,-1,0,-2,0,37271,322,25,79,0,0,0,0,0,0,0,0,-32317,0,0,0,3877,0,16069,0
12487,310,-8252,894,-51,44,24,12799,-1,1,0,0,37272,321,25,79,0,0,0,0,0,0,0,0,-32317,0,0,0,3877,0,16090,0
12497,322,-8222,872,-53,44,15,12798,-6,4,-2,0,37274,318,25,79,0,0,0,0,0,0,0,0,-32317,0,0,0,3877,0,16110,0
12507,310,-8254,884,-51,42,21,12799,3,-4,0,0,37275,314,25,79,0,0,0,0,0,0,0,0,-32317,0,0,0,3878,0,16130,0
12517,312,-8272,906,-47,40,15,12797,-3,-4,0,0,37276,305,25,79,0,0,0,0,0,0,0,0,-32317,0,0,0,3878,0,16150,0
12527,312,-8260,904,-54,40,14,12797,-1,1,-2,0,37277,300,25,79,0,0,0,0,0,0,0,0,-32317,0,0,0,3879,0,16170,0
12537,316,-8268,924,-51,35,11,12798,6,1,-1,0,37279,303,25,79,0,0,0,0,0,0,0,0,-32318,0,0,0,3878,0,16190,0
12547,326,-8236,908,-57,43,18,12798,1,-2,0,0,37282,306,25,79,0,0,0,0,0,0,0,0,-32317,0,0,0,3878,0,16210,0
12557,330,-8242,898,-56,40,13,12796,-5,4,0,0,37283,315,25,79,0,0,0,0,0,0,0,0,-32318,0,0,0,3877,0,16230,0
12567,338,-8234,904,-55,40,17,12797,-2,1,0,0,37280,322,25,79,0,0,0,0,0,0,0,0,-32317,0,0,0,3877,0,16250,0
12577,328,-8262,900,-53,42,21,12798,-3,-3,0,0,37277,315,25,79,0,0,0,0,0,0,0,0,-32317,0,0,0,3878,0,16270,0
12587,346,-8260,884,-55,35,19,12797,3,2,-1,0,37278,315,25,79,0,0,0,0,0,0,0,0,-32318,0,0,0,3877,0,16290,0
12597,330,-8220,890,-59,41,20,12797,-2,-1,-3,0,37278,315,25,79,0,0,0,0,0,0,0,0,-32317,0,0,0,3879,0,16310,0
12607,296,-8268,860,-54,36,22,12799,8,-2,0,0,37280,314,25,79,0,0,0,0,0,0,0,0,-32318,0,0,0,3878,0,16330,0
12617,288,-8248,856,-56,44,21,12798,-5,-3,0,0,37280,313,25,79,0,0,0,0,0,0,0,0,-32318,0,0,0,3877,0,16350,0
12627,306,-8226,906,-58,43,15,12797,0,-2,-3,0,37280,318,25,79,0,0,0,0,0,0,0,0,-32318,0,0,0,3879,0,16370,0
12637,296,-8244,864,-49,45,14,12797,4,2,0,0,37286,317,25,79,0,0,0,0,0,0,0,0,-32318,0,0,0,3878,0,16390,0
12647,284,-8254,870,-50,40,8,12797,1,7,-2,0,37287,317,25,79,0,0,0,0,0,0,0,0,-32317,0,0,0,3877,0,16410,0
12657,296,-8238,894,-49,37,6,12798,1,0,0,0,37287,311,25,79,0,0,0,0,0,0,0,0,-32317,0,0,0,3879,0,16430,0
12667,316,-8260,898,-48,34,4,12797,-1,1,0,0,37283,312,25,79,0,0,0,0,0,0,0,0,-32317,0,0,0,3878,0,16450,0
12677,318,-8234,892,-50,43,7,12799,3,-1,-1,0,37281,309,25,79,0,0,0,0,0,0,0,0,-32318,0,0,0,3878,0,16470,0
12687,322,-8254,908,-52,35,8,12797,-8,-2,0,0,37282,307,25,79,0,0,0,0,0,0,0,0,-32317,0,0,0,3877,0,16490,0
12697,318,-8226,866,-52,38,7,12797,0,-4,-1,0,37283,307,25,79,0,0,0,0,0,0,0,0,-32318,0,0,0,3877,0,16510,0
12707,306,-8260,896,-53,39,10,12798,0,-2,0,0,37283,309,25,79,0,0,0,0,0,0,0,0,-32318,0,0,0,3878,0,16530,0
12717,342,-8224,864,-50,37,7,12796,-3,3,0,0,37281,308,25,79,0,0,0,0,0,0,0,0,-32317,0,0,0,3877,0,16550,0
12727,332,-8246,876,-47,39,8,12798,0,0,-1,0,37283,306,25,79,0,0,0,0,0,0,0,0,-32318,0,0,0,3877,0,16570,0
12737,348,-8242,926,-48,39,9,12797,-1,-1,-2,0,37290,317,25,79,0,0,0,0,0,0,0,0,-32317,0,0,0,3877,0,16590,0
12747,334,-8222,928,-48,43,10,12798,12,2,-2,0,37290,322,25,79,0,0,0,0,0,0,0,0,-32318,0,0,0,3877,0,16610,0
12757,336,-8218,880,-50,37,4,12797,-3,2,-2,0,37288,330,25,79,0,0,0,0,0,0,0,0,-32318,0,0,0,3877,0,16630,0
12767,288,-8272,884,-52,43,11,12798,-2,-1,0,0,37283,321,25,79,0,0,0,0,0,0,0,0,-32318,0,0,0,3877,0,16650,0
12777,324,-8266,890,-49,45,0,12798,7,1,-2,0,37284,319,25,79,0,0,0,0,0,0,0,0,-32318,0,0,0,3877,0,16670,0
12787,318,-8228,902,-43,42,3,12799,1,-5,0,0,37286,317,25,79,0,0,0,0,0,0,0,0,-32317,0,0,0,3876,0,16690,0
12797,356,-8262,894,-51,44,7,12796,-5,3,-1,0,37285,321,25,79,0,0,0,0,0,0,0,0,-32317,0,0,0,3877,0,16710,0
12807,340,-8244,878,-48,40,14,12796,-11,-3,0,0,37285,323,25,79,0,0,0,0,0,0,0,0,-32318,0,0,0,3877,0,16730,0
12817,360,-8238,926,-51,44,16,12799,0,5,0,0,37287,319,25,79,0,0,0,0,0,0,0,0,-32318,0,0,0,3877,0,16750,0
12827,382,-8238,918,-53,38,21,12797,0,4,-1,0,37287,311,25,79,0,0,0,0,0,0,0,0,-32318,0,0,0,3877,0,16770,0
12837,338,-8228,900,-62,40,28,12798,2,0,-1,0,37289,308,25,79,0,0,0,0,0,0,0,0,-32317,0,0,0,3876,0,16790,0
12847,316,-8230,898,-61,44,29,12796,-14,-1,0,0,37290,306,25,79,0,0,0,0,0,0,0,0,-32317,0,0,0,3877,0,16810,0
12857,362,-8244,906,-64,45,28,12798,-3,2,-1,0,37290,311,25,79,0,0,0,0,0,0,0,0,-32317,0,0,0,3877,0,16830,0
12867,334,-8236,904,-60,41,24,12798,-1,-1,-2,0,37290,313,25,79,0,0,0,0,0,0,0,0,-32318,0,0,0,3877,0,16850,0
12877,356,-8242,894,-60,45,32,12799,14,6,-1,0,37286,310,25,79,0,0,0,0,0,0,0,0,-32318,0,0,0,3877,0,16870,0
12887,324,-8242,876,-60,40,29,12797,-8,1,1,0,37287,310,25,79,0,0,0,0,0,0,0,0,-32317,0,0,0,3877,0,16890,0
12897,302,-8260,852,-56,34,26,12797,-2,-3,-1,0,37290,318,25,79,0,0,0,0,0,0,0,0,-32318,0,0,0,3877,0,16910,0
12907,288,-8238,850,-51,39,24,12797,-3,-3,0,0,37290,318,25,79,0,0,0,0,0,0,0,0,-32318,0,0,0,3877,0,16930,0
12917,266,-8238,876,-52,38,21,12798,-1,1,0,0,37289,319,25,79,0,0,0,0,0,0,0,0,-32317,0,0,0,3877,0,16950,0
12927,276,-8230,878,-48,40,17,12798,-1,2,-1,0,37287,314,25,79,0,0,0,0,0,0,0,0,-32318,0,0,0,3876,0,16970,0
12937,308,-8214,922,-48,45,9,12798,0,2,0,0,37290,318,25,79,0,0,0,0,0,0,0,0,-32317,0,0,0,3878,0,16990,0
12947,294,-8244,918,-48,45,12,12797,-3,0,0,0,37295,320,25,79,0,0,0,0,0,0,0,0,-32317,0,0,0,3876,0,17010,0
12957,322,-8236,924,-58,36,19,12798,1,0,-2,0,37295,322,25,79,0,0,0,0,0,0,0,0,-32317,0,0,0,3878,0,17030,0
12967,350,-8214,902,-62,44,15,12797,-1,-4,0,0,37293,312,25,79,0,0,0,0,0,0,0,0,-32317,0,0,0,3877,0,17050,0
12977,322,-8254,876,-54,40,20,12798,-3,-3,-1,0,37285,308,25,79,0,0,0,0,0,0,0,0,-32318,0,0,0,3877,0,17070,0
12987,326,-8228,858,-51,41,15,12798,-4,-3,0,0,37286,304,25,79,0,0,0,0,0,0,0,0,-32317,0,0,0,3877,0,17096,0
12997,314,-8242,864,-51,38,21,12796,-8,-7,-1,0,37288,309,25,79,0,0,0,0,0,0,0,0,-32317,0,0,0,3877,0,17116,0
13007,304,-8224,860,-50,35,23,12798,3,-1,0,0,37291,307,25,79,0,0,0,0,0,0,0,0,-32318,0,0,0,3877,0,17136,0
13017,304,-8240,890,-53,39,20,12798,0,2,0,0,37291,304,25,79,0,0,0,0,0,0,0,0,-32318,0,0,0,3877,0,17156,0
13027,280,-8252,912,-44,43,14,12799,7,2,-1,0,37289,297,25,79,0,0,0,0,0,0,0,0,-32317,0,0,0,3877,0,17176,0
13037,302,-8284,902,-51,41,11,12798,0,2,0,0,37289,301,25,79,0,0,0,0,0,0,0,0,-32318,0,0,0,3878,0,17196,0
13047,322,-8236,880,-49,37,10,12798,-1,-1,-2,0,37295,317,25,79,0,0,0,0,0,0,0,0,-32318,0,0,0,3877,0,17216,0
13057,326,-8246,882,-47,43,10,12797,-8,-4,-2,0,37295,318,25,79,0,0,0,0,0,0,0,0,-32317,0,0,0,3877,0,17236,0
13067,296,-8248,886,-44,39,8,12799,3,1,0,0,37292,318,25,79,0,0,0,0,0,0,0,0,-32318,0,0,0,3877,0,17256,0
13077,312,-8258,898,-47,37,8,12798,1,-1,0,0,37285,310,25,79,0,0,0,0,0,0,0,0,-32318,0,0,0,3877,0,17276,0
13087,304,-8244,902,-50,43,10,12797,0,-2,1,0,37283,316,25,79,0,0,0,0,0,0,0,0,-32318,0,0,0,3877,0,17296,0
13097,338,-8226,898,-54,40,17,12798,-2,3,-2,0,37282,318,25,79,0,0,0,0,0,0,0,0,-32317,0,0,0,3877,0,17316,0
13107,336,-8258,892,-51,46,16,12798,4,0,0,0,37282,316,25,79,0,0,0,0,0,0,0,0,-32318,0,0,0,3877,0,17336,0
13117,320,-8224,890,-52,43,14,12798,9,0,0,0,37280,314,25,79,0,0,0,0,0,0,0,0,-32317,0,0,0,3877,0,17356,0
13127,316,-8246,886,-55,49,18,12798,-6,0,0,0,37280,315,25,79,0,0,0,0,0,0,0,0,-32317,0,0,0,3877,0,17377,0
13137,322,-8234,866,-51,40,15,12796,-3,-5,0,0,37282,313,25,79,0,0,0,0,0,0,0,0,-32318,0,0,0,3877,0,17397,0
13147,290,-8268,832,-45,40,11,12798,-1,-1,-4,0,37286,321,25,79,0,0,0,0,0,0,0,0,-32317,0,0,0,3877,0,17417,0
13157,290,-8244,860,-46,42,10,12796,-4,-7,0,0,37286,321,25,79,0,0,0,0,0,0,0,0,-32317,0,0,0,3877,0,17437,0
13167,306,-8254,896,-46,42,10,12797,-4,3,0,0,37282,315,25,79,0,0,0,0,0,0,0,0,-32318,0,0,0,3877,0,17457,0
13177,312,-8266,914,-52,36,3,12799,0,-1,0,0,37280,307,25,79,0,0,0,0,0,0,0,0,-32317,0,0,0,3877,0,17477,0
13187,340,-8192,908,-49,45,8,12798,0,6,-1,0,37282,307,25,79,0,0,0,0,0,0,0,0,-32318,0,0,0,3877,0,17497,0
13197,356,-8276,934,-50,39,17,12798,-2,-2,-2,0,37285,312,25,79,0,0,0,0,0,0,0,0,-32317,0,0,0,3877,0,17517,0
13207,344,-8244,918,-51,46,16,12798,3,0,-1,0,37284,315,25,79,0,0,0,0,0,0,0,0,-32317,0,0,0,3877,0,17537,0
13217,370,-8234,882,-54,42,20,12798,-2,-5,0,0,37281,315,25,79,0,0,0,0,0,0,0,0,-32318,0,0,0,3877,0,17557,0
13227,324,-8242,854,-59,35,18,12798,0,3,-1,0,37280,314,25,79,0,0,0,0,0,0,0,0,-32317,0,0,0,3877,0,17577,0
13237,306,-8226,878,-50,44,21,12797,2,0,0,0,37282,319,25,79,0,0,0,0,0,0,0,0,-32317,0,0,0,3877,0,17597,0
13247,312,-8250,838,-54,41,19,12797,-2,-1,-1,0,37283,317,25,79,0,0,0,0,0,0,0,0,-32317,0,0,0,3877,0,17617,0
13257,324,-8232,830,-47,39,20,12798,2,-2,-4,0,37287,315,25,79,0,0,0,0,0,0,0,0,-32317,0,0,0,3877,0,17637,0
13267,288,-8226,838,-44,38,14,12798,6,1,0,0,37286,310,25,79,0,0,0,0,0,0,0,0,-32317,0,0,0,3877,0,17657,0
13277,276,-8226,876,-41,43,14,12798,3,-2,-1,0,37284,305,25,79,0,0,0,0,0,0,0,0,-32318,0,0,0,3877,0,17677,0
13287,294,-8240,922,-42,42,11,12799,9,5,-1,0,37293,310,25,79,0,0,0,0,0,0,0,0,-32317,0,0,0,3877,0,17697,0
13297,310,-8234,928,-46,39,12,12798,-3,4,-2,0,37301,309,25,79,0,0,0,0,0,0,0,0,-32318,0,0,0,3877,0,17717,0
13307,316,-8214,928,-51,40,10,12796,-6,4,1,0,37309,316,25,79,0,0,0,0,0,0,0,0,-32318,0,0,0,3877,0,17737,0
13317,342,-8252,918,-49,40,15,12798,-2,-7,0,0,37300,307,25,79,0,0,0,0,0,0,0,0,-32318,0,0,0,3877,0,17757,0
13327,354,-8252,898,-56,44,12,12798,0,-2,0,0,37288,305,25,79,0,0,0,0,0,0,0,0,-32318,0,0,0,3877,0,17777,0
13337,348,-8230,886,-51,44,16,12797,0,3,-1,0,37278,306,25,79,0,0,0,0,0,0,0,0,-32318,0,0,0,3877,0,17797,0
13347,324,-8256,880,-50,40,15,12797,-1,-4,0,0,37276,313,25,79,0,0,0,0,0,0,0,0,-32318,0,0,0,3877,0,17817,0
13357,302,-8270,876,-43,38,21,12798,-1,3,0,0,37274,310,25,79,0,0,0,0,0,0,0,0,-32317,0,0,0,3877,0,17837,0
13367,330,-8232,876,-53,42,19,12798,3,-5,1,0,37279,314,25,79,0,0,0,0,0,0,0,0,-32318,0,0,0,3877,0,17857,0
13377,320,-8266,866,-49,37,16,12799,6,-5,0,0,37282,310,25,79,0,0,0,0,0,0,0,0,-32317,0,0,0,3877,0,17877,0
13387,306,-8262,868,-48,41,21,12797,0,0,0,0,37283,312,25,79,0,0,0,0,0,0,0,0,-32318,0,0,0,3876,0,17897,0
13397,292,-8218,888,-48,37,16,12798,2,-3,-1,0,37276,306,25,79,0,0,0,0,0,0,0,0,-32317,0,0,0,3877,0,17917,0
13407,280,-8260,890,-44,37,17,12798,3,-2,0,0,37274,311,25,79,0,0,0,0,0,0,0,0,-32318,0,0,0,3877,0,17937,0
13417,292,-8264,882,-47,37,10,12798,-1,1,0,0,37273,315,25,79,0,0,0,0,0,0,0,0,-32317,0,0,0,3877,0,17957,0
13427,292,-8238,904,-46,39,7,12798,1,-1,0,0,37274,318,25,79,0,0,0,0,0,0,0,0,-32317,0,0,0,3877,0,17977,0
13437,310,-8248,908,-48,43,8,12798,-3,5,0,0,37274,316,25,79,0,0,0,0,0,0,0,0,-32317,0,0,0,3877,0,17997,0
13447,320,-8234,904,-52,41,11,12797,0,0,0,0,37275,312,25,79,0,0,0,0,0,0,0,0,-32317,0,0,0,3878,0,18017,0
13457,322,-8228,900,-50,41,11,12799,7,-3,-1,0,37275,311,25,79,0,0,0,0,0,0,0,0,-32317,0,0,0,3877,0,18037,0
13467,356,-8246,880,-46,46,8,12798,0,2,-1,0,37274,307,25,79,0,0,0,0,0,0,0,0,-32318,0,0,0,3877,0,18057,0
13477,346,-8216,866,-48,36,15,12799,7,3,1,0,37283,303,25,79,0,0,0,0,0,0,0,0,-32318,0,0,0,3877,0,18077,0
13487,830,-8252,760,-50,36,31,12754,-183,-78,-892,-768,37284,316,25,79,0,0,0,0,0,0,0,0,-32318,0,0,0,3877,0,18098,0
13497,116,-8112,956,-55,28,11,12581,-460,-344,-925,-1528,37280,315,25,79,0,0,0,0,0,0,0,0,-32317,0,0,0,3877,0,18117,0
13507,212,-8128,928,-60,24,11,12279,-738,-491,-1028,-2192,37262,332,25,79,0,0,0,0,0,0,0,0,-32318,0,0,0,3877,0,18137,0
13517,308,-8224,860,-60,29,0,11859,-1004,-477,-1020,-2840,37253,347,25,79,0,0,0,0,0,0,0,0,-32317,0,0,0,3877,0,18157,0
13527,362,-8206,800,-62,41,4,11329,-1253,-446,-991,-3400,37245,363,25,79,0,0,0,0,0,0,0,0,-32318,0,0,0,3877,0,18177,0
13537,312,-8202,908,-69,40,2,10668,-1544,-456,-1013,-4080,37237,381,25,79,0,0,0,0,0,0,0,0,-32317,0,0,0,3877,0,18198,0
13547,280,-8234,844,-90,45,10,9851,-1916,-543,-1007,-4896,37225,396,25,79,0,0,0,0,0,0,0,0,-32318,0,0,0,3877,0,18218,0
13557,294,-8188,872,-71,74,1,8859,-2291,-638,-1047,-5568,37211,428,25,79,0,0,0,0,0,0,0,0,-32318,0,0,0,3877,0,18238,0
13567,420,-8236,824,-71,77,-2,7742,-2511,-583,-1010,-5976,37199,456,25,79,0,0,0,0,0,0,0,0,-32317,0,0,0,3877,0,18258,0
13577,380,-8234,970,-28,77,9,6600,-2503,-290,-890,-6504,37192,466,25,79,0,0,0,0,0,0,0,0,-32318,0,0,0,3876,0,18278,0
13587,398,-8238,898,-17,70,11,5461,-2523,-25,-937,-6808,37183,480,25,79,0,0,0,0,0,0,0,0,-32318,0,0,0,3876,0,18298,0
13597,360,-8218,998,-8,57,10,4253,-2714,-119,-1094,-6984,37177,490,25,79,0,0,0,0,0,0,0,0,-32318,0,0,0,3877,0,18318,0
13607,366,-8242,858,-1,34,19,2948,-2943,-326,-1027,-7424,37170,501,25,79,0,0,0,0,0,0,0,0,-32317,0,0,0,3876,0,18338,0
13617,378,-8164,930,33,-5,30,1502,-3298,-449,-1109,-7744,37157,511,25,79,0,0,0,0,0,0,0,0,-32317,0,0,0,3877,0,18358,0
13627,390,-8260,912,7,-37,24,-92,-3566,-562,-1178,-7600,37146,527,25,79,0,0,0,0,0,0,0,0,-32317,0,0,0,3876,0,18378,0
13637,-66,-8128,1000,-52,5,20,-1633,-3279,-200,-700,-8088,37146,525,25,79,0,0,0,0,0,0,0,0,-32318,0,0,0,3876,0,18398,0
13647,268,-8160,918,-82,-15,12,-3053,-3108,364,-851,-8440,37150,517,25,79,0,0,0,0,0,0,0,0,-32318,0,0,0,3877,0,18418,0
13657,242,-8236,766,-91,37,19,-4496,-3218,185,-1087,-8296,37156,500,25,79,0,0,0,0,0,0,0,0,-32318,0,0,0,3877,0,18438,0
13667,476,-8296,898,-130,48,17,-6022,-3446,-209,-1045,-8600,37150,510,25,79,0,0,0,0,0,0,0,0,-32318,0,0,0,3877,0,18458,0
13677,454,-8204,916,-96,86,23,-7732,-3892,-511,-1148,-8896,37135,553,25,79,0,0,0,0,0,0,0,0,-32317,0,0,0,3877,0,18478,0
13687,66,-8234,860,-86,114,22,-9516,-3863,-524,-900,-9280,37134,569,25,79,0,0,0,0,0,0,0,0,-32317,0,0,0,3877,0,18498,0
13697,192,-8192,1036,-11,94,-9,-11190,-3662,99,-791,-9856,37129,560,25,79,0,0,0,0,0,0,0,0,-32317,0,0,0,3876,0,18518,0
13707,424,-8276,776,-4,77,-76,-12895,-3773,151,-1227,-8952,37119,571,25,79,0,0,0,0,0,0,0,0,-32316,0,0,0,3867,-2,18538,0
13717,-7070,-8462,2396,-535,3980,-3362,-14233,-2434,552,-1289,-4240,37109,559,25,79,0,0,0,0,0,0,0,0,-32317,0,0,0,3743,-10,18558,0
13727,-12922,-11862,5992,-465,2176,-1998,-14569,23,2641,-766,152,37128,513,25,79,0,0,0,0,0,0,0,0,-32317,0,0,0,3695,-1,18578,0
13737,18858,-5552,-4866,-8,-954,986,-14032,1458,3707,-638,1776,37173,415,25,79,0,0,0,0,0,0,0,0,-32317,0,0,0,3726,4,18598,0
13747,13810,-7536,-858,455,-1672,2004,-13382,1294,1884,-843,616,37230,301,25,79,0,0,0,0,0,0,0,0,-32317,0,0,0,3775,4,18618,0
13757,376,-8584,3506,542,-3912,1255,-13056,434,-443,-1340,-272,37255,258,25,79,0,0,0,0,0,0,0,0,-32316,0,0,0,3832,6,18638,0
13767,-9338,-5456,842,-101,778,663,-13074,-129,-1321,-1003,-464,37257,254,25,79,0,0,0,0,0,0,0,0,-32317,0,0,0,3843,0,18658,0
13777,-6084,-5722,2988,-282,308,-369,-13102,-19,-675,-1048,-256,37257,261,25,79,0,0,0,0,0,0,0,0,-32317,0,0,0,3840,0,18678,0
13787,2130,-6990,104,-467,955,-456,-13107,-44,53,-978,-368,37262,273,25,79,0,0,0,0,0,0,0,0,-32317,0,0,0,3832,-1,18698,0
13797,1870,-7274,-1078,-146,1188,-305,-13167,-180,-69,-945,-656,37262,276,25,79,0,0,0,0,0,0,0,0,-32317,0,0,0,3805,-2,18718,0
13807,2694,-8700,-174,269,24,-185,-13277,-238,-206,-1027,-648,37259,286,25,79,0,0,0,0,0,0,0,0,-32317,0,0,0,3796,0,18738,0
13817,-648,-8218,3196,72,-145,-63,-13344,-90,-10,-1058,-368,37257,292,25,79,0,0,0,0,0,0,0,0,-32318,0,0,0,3793,0,18758,0
13827,-898,-8348,3316,-194,156,-93,-13343,20,227,-1017,-256,37263,290,25,79,0,0,0,0,0,0,0,0,-32317,0,0,0,3793,0,18778,0
13837,880,-7882,606,-322,191,-163,-13343,-26,126,-985,-336,37269,278,25,79,0,0,0,0,0,0,0,0,-32317,0,0,0,3793,0,18798,0
13847,1478,-8074,-414,-279,110,-130,-13367,-52,-63,-1008,-344,37267,282,25,79,0,0,0,0,0,0,0,0,-32318,0,0,0,3790,0,18818,0
13857,1252,-7900,-992,-22,-39,26,-13376,0,-10,-1010,-280,37269,285,25,79,0,0,0,0,0,0,0,0,-32318,0,0,0,3789,0,18838,0
13867,480,-8070,-40,86,-64,100,-13371,12,64,-994,-280,37271,291,25,79,0,0,0,0,0,0,0,0,-32317,0,0,0,3788,0,18858,0
13877,-184,-8390,1532,89,19,30,-13369,-1,18,-999,-288,37272,291,25,79,0,0,0,0,0,0,0,0,-32318,0,0,0,3790,0,18878,0
13887,-60,-8070,2054,13,99,-17,-13371,-1,-14,-1001,-296,37272,287,25,79,0,0,0,0,0,0,0,0,-32318,0,0,0,3790,0,18898,0
13897,670,-8182,1680,-98,107,-4,-13372,2,-2,-999,-296,37277,289,25,79,0,0,0,0,0,0,0,0,-32318,0,0,0,3790,0,18918,0
13907,892,-8332,1114,-119,20,31,-13371,2,6,-998,-272,37278,287,25,79,0,0,0,0,0,0,0,0,-32317,0,0,0,3790,0,18938,0
13917,394,-8262,706,-115,4,37,-13373,-10,1,-1002,-288,37278,283,25,79,0,0,0,0,0,0,0,0,-32318,0,0,0,3789,0,18958,0
13927,102,-8236,554,-99,30,28,-13371,-1,-1,-1001,-296,37274,287,25,79,0,0,0,0,0,0,0,0,-32318,0,0,0,3790,0,18978,0
13937,290,-8326,460,-68,67,-10,-13371,3,-1,-1002,-296,37276,290,25,79,0,0,0,0,0,0,0,0,-32317,0,0,0,3791,0,18998,0
13947,632,-8198,482,-35,59,-13,-13372,-1,-5,-1001,-288,37278,291,25,79,0,0,0,0,0,0,0,0,-32317,0,0,0,3790,0,19018,0
13957,544,-8042,862,1,29,22,-13372,-1,4,-1001,-288,37277,289,25,79,0,0,0,0,0,0,0,0,-32317,0,0,0,3791,0,19038,0
13967,268,-8310,1082,-12,21,21,-13372,1,-1,-999,-280,37277,282,25,79,0,0,0,0,0,0,0,0,-32317,0,0,0,3789,0,19058,0
13977,236,-8242,1208,-52,34,-15,-13372,2,1,-996,-288,37277,282,25,79,0,0,0,0,0,0,0,0,-32317,0,0,0,3791,0,19078,0
13987,408,-8196,1058,-68,39,-16,-13372,10,4,-1003,-296,37277,285,25,79,0,0,0,0,0,0,0,0,-32318,0,0,0,3790,0,19098,0
13997,528,-8298,788,-56,23,3,-13374,-7,2,-1001,-288,37281,287,25,79,0,0,0,0,0,0,0,0,-32318,0,0,0,3790,0,19118,0
14007,570,-8240,818,-55,27,3,-13376,-5,-3,-1003,-296,37286,291,25,79,0,0,0,0,0,0,0,0,-32317,0,0,0,3789,0,19138,0
14017,470,-8156,912,-60,40,10,-13376,-6,-2,-1000,-288,37287,291,25,79,0,0,0,0,0,0,0,0,-32318,0,0,0,3789,0,19158,0
14027,430,-8256,906,-57,43,23,-13375,5,-2,-1000,-296,37285,289,25,79,0,0,0,0,0,0,0,0,-32317,0,0,0,3791,0,19178,0
14037,534,-8294,866,-66,40,16,-13375,2,1,-1000,-288,37276,292,25,79,0,0,0,0,0,0,0,0,-32317,0,0,0,3790,0,19198,0
14047,488,-8168,880,-61,39,29,-13376,-2,0,-1000,-296,37277,293,25,79,0,0,0,0,0,0,0,0,-32317,0,0,0,3789,0,19218,0
14057,318,-8282,876,-56,39,36,-13373,7,5,-1000,-272,37277,296,25,79,0,0,0,0,0,0,0,0,-32318,0,0,0,3790,0,19238,0
14067,338,-8248,830,-63,44,22,-13374,-1,1,-1002,-296,37275,293,25,79,0,0,0,0,0,0,0,0,-32318,0,0,0,3790,0,19258,0
14077,404,-8158,852,-51,49,14,-13375,-1,-5,-1000,-280,37274,293,25,79,0,0,0,0,0,0,0,0,-32318,0,0,0,3790,0,19278,0
14087,446,-8300,816,-42,51,17,-13375,-5,-2,-1001,-296,37274,292,25,79,0,0,0,0,0,0,0,0,-32318,0,0,0,3789,0,19298,0
14097,436,-8308,888,-48,39,15,-13374,0,1,-1001,-288,37275,295,25,79,0,0,0,0,0,0,0,0,-32318,0,0,0,3790,0,19318,0
14107,534,-8214,934,-40,43,6,-13376,-4,-1,-1003,-288,37281,287,25,79,0,0,0,0,0,0,0,0,-32318,0,0,0,3789,0,19338,0
14117,508,-8234,900,-46,38,25,-13375,6,2,-1001,-288,37281,289,25,79,0,0,0,0,0,0,0,0,-32318,0,0,0,3790,0,19358,0
14127,444,-8238,872,-48,39,25,-13376,-2,0,-1005,-296,37280,290,25,79,0,0,0,0,0,0,0,0,-32318,0,0,0,3790,0,19378,0
14137,426,-8222,912,-45,45,15,-13376,-6,-1,-1002,-280,37272,288,25,79,0,0,0,0,0,0,0,0,-32317,0,0,0,3789,0,19398,0
14147,346,-8210,914,-53,46,16,-13374,3,2,-1000,-280,37273,292,25,79,0,0,0,0,0,0,0,0,-32318,0,0,0,3791,0,19418,0
14157,408,-8242,870,-51,42,12,-13374,1,0,-998,-288,37276,294,25,79,0,0,0,0,0,0,0,0,-32318,0,0,0,3791,0,19439,0
14167,434,-8188,882,-49,39,9,-13374,-4,-2,-1003,-288,37274,291,25,79,0,0,0,0,0,0,0,0,-32318,0,0,0,3789,0,19459,0
14177,432,-8208,890,-50,49,14,-13373,11,0,-1000,-288,37271,286,25,79,0,0,0,0,0,0,0,0,-32318,0,0,0,3789,0,19479,0
14187,480,-8258,854,-49,40,27,-13374,1,-2,-1000,-296,37272,286,25,79,0,0,0,0,0,0,0,0,-32318,0,0,0,3790,0,19499,0
14197,474,-8238,818,-48,41,18,-13374,-2,-2,-998,-280,37273,293,25,79,0,0,0,0,0,0,0,0,-32318,0,0,0,3790,0,19519,0
14207,514,-8264,846,-38,40,20,-13375,-3,-3,-1000,-288,37279,292,25,79,0,0,0,0,0,0,0,0,-32317,0,0,0,3790,0,19539,0
14217,452,-8222,890,-39,36,25,-13374,0,-3,-1007,-288,37275,288,25,79,0,0,0,0,0,0,0,0,-32317,0,0,0,3791,0,19559,0
14227,428,-8258,912,-41,47,14,-13374,0,1,-1002,-280,37274,283,25,79,0,0,0,0,0,0,0,0,-32318,0,0,0,3789,0,19579,0
14237,442,-8226,898,-45,45,13,-13374,3,-1,-1000,-296,37274,296,25,79,0,0,0,0,0,0,0,0,-32318,0,0,0,3790,0,19599,0
14247,352,-8226,878,-45,40,24,-13374,1,0,-1000,-288,37277,291,25,79,0,0,0,0,0,0,0,0,-32318,0,0,0,3789,0,19619,0
14257,380,-8268,890,-43,42,20,-13374,-2,0,-1002,-288,37277,286,25,79,0,0,0,0,0,0,0,0,-32318,0,0,0,3790,0,19639,0
14267,398,-8210,898,-47,45,7,-13374,0,1,-1001,-288,37274,283,25,79,0,0,0,0,0,0,0,0,-32317,0,0,0,3790,0,19659,0
14277,420,-8194,860,-46,39,22,-13374,2,1,-1001,-288,37276,277,25,79,0,0,0,0,0,0,0,0,-32317,0,0,0,3791,0,19679,0
14287,474,-8276,884,-47,49,21,-13374,1,-2,-1000,-288,37277,288,25,79,0,0,0,0,0,0,0,0,-32317,0,0,0,3791,0,19699,0
14297,442,-8228,934,-43,48,27,-13375,0,3,-999,-288,37276,296,25,79,0,0,0,0,0,0,0,0,-32318,0,0,0,3790,0,19719,0
14307,458,-8236,928,-48,46,28,-13374,-1,1,-1004,-296,37277,303,25,79,0,0,0,0,0,0,0,0,-32317,0,0,0,3790,0,19739,0
14317,442,-8280,900,-53,39,21,-13373,0,2,-998,-280,37275,297,25,79,0,0,0,0,0,0,0,0,-32317,0,0,0,3790,0,19759,0
14327,414,-8230,862,-58,41,19,-13373,1,1,-1001,-296,37273,289,25,79,0,0,0,0,0,0,0,0,-32317,0,0,0,3791,0,19779,0
14337,374,-8206,882,-41,45,25,-13374,-6,3,-1000,-296,37274,286,25,79,0,0,0,0,0,0,0,0,-32317,0,0,0,3790,0,19799,0
14347,384,-8230,884,-48,45,24,-13373,0,1,-998,-296,37269,288,25,79,0,0,0,0,0,0,0,0,-32318,0,0,0,3790,0,19819,0
14357,406,-8232,878,-47,44,14,-13373,0,1,-1004,-296,37268,282,25,79,0,0,0,0,0,0,0,0,-32317,0,0,0,3791,0,19839,0
14367,374,-8230,850,-44,49,18,-13373,0,6,-1004,-280,37268,281,25,79,0,0,0,0,0,0,0,0,-32318,0,0,0,3791,0,19859,0
14377,432,-8250,860,-42,39,20,-13374,-3,-3,-998,-288,37268,293,25,79,0,0,0,0,0,0,0,0,-32317,0,0,0,3791,0,19879,0
14387,388,-8238,920,-45,38,14,-13373,1,0,-1002,-288,37270,303,25,79,0,0,0,0,0,0,0,0,-32317,0,0,0,3791,0,19899,0
14397,446,-8228,912,-45,45,21,-13374,-1,0,-1000,-288,37268,297,25,79,0,0,0,0,0,0,0,0,-32317,0,0,0,3791,0,19919,0
14407,424,-8240,918,-46,42,17,-13373,2,-1,-1003,-296,37266,287,25,79,0,0,0,0,0,0,0,0,-32318,0,0,0,3791,0,19939,0
14417,422,-8262,902,-50,39,21,-13373,-1,-3,-1003,-288,37272,281,25,79,0,0,0,0,0,0,0,0,-32317,0,0,0,3791,0,19959,0
14427,422,-8212,914,-50,42,15,-13372,-3,-1,-996,-296,37273,282,25,79,0,0,0,0,0,0,0,0,-32318,0,0,0,3791,0,19979,0
14437,402,-8208,930,-55,45,15,-13372,-4,1,-1000,-288,37271,285,25,79,0,0,0,0,0,0,0,0,-32317,0,0,0,3791,0,19999,0
14447,416,-8246,872,-57,44,9,-13372,4,5,-998,-280,37263,295,25,79,0,0,0,0,0,0,0,0,-32318,0,0,0,3791,0,20019,0
14457,488,-8222,862,-51,46,14,-13373,-1,-2,-1003,-296,37264,294,25,79,0,0,0,0,0,0,0,0,-32318,0,0,0,3791,0,20039,0
14467,408,-8220,862,-52,39,26,-13372,0,-2,-1004,-288,37267,291,25,79,0,0,0,0,0,0,0,0,-32318,0,0,0,3791,0,20059,0
14477,374,-8272,898,-45,43,18,-13372,3,2,-1002,-288,37269,279,25,79,0,0,0,0,0,0,0,0,-32318,0,0,0,3791,0,20079,0
14487,476,-8242,882,-51,44,22,-13371,5,-3,-999,-288,37268,277,25,79,0,0,0,0,0,0,0,0,-32317,0,0,0,3791,0,20099,0
14497,454,-8234,874,-47,38,24,-13372,4,0,-1001,-288,37269,286,25,79,0,0,0,0,0,0,0,0,-32318,0,0,0,3790,0,20119,0
14507,404,-8244,894,-47,41,20,-13372,1,-2,-1001,-288,37268,293,25,79,0,0,0,0,0,0,0,0,-32318,0,0,0,3791,0,20139,0
14517,456,-8232,928,-49,38,18,-13371,5,-1,-1000,-288,37276,296,25,79,0,0,0,0,0,0,0,0,-32317,0,0,0,3790,0,20159,0
14527,406,-8216,912,-52,41,16,-13371,3,4,-997,-288,37277,294,25,79,0,0,0,0,0,0,0,0,-32317,0,0,0,3791,0,20179,0
14537,402,-8254,900,-55,40,21,-13372,-2,1,-999,-280,37280,301,25,79,0,0,0,0,0,0,0,0,-32318,0,0,0,3791,0,20199,0
14547,438,-8238,900,-53,41,12,-13372,-3,1,-1001,-296,37275,297,25,79,0,0,0,0,0,0,0,0,-32317,0,0,0,3790,0,20219,0
14557,454,-8214,912,-49,43,12,-13371,-2,3,-999,-288,37269,294,25,79,0,0,0,0,0,0,0,0,-32318,0,0,0,3790,0,20239,0
14567,380,-8254,890,-51,40,21,-13371,5,-1,-1002,-280,37281,295,25,79,0,0,0,0,0,0,0,0,-32318,0,0,0,3790,0,20259,0
14577,426,-8262,880,-52,40,14,-13371,3,-3,-996,-288,37289,294,25,79,0,0,0,0,0,0,0,0,-32317,0,0,0,3791,0,20279,0
14587,384,-8226,870,-51,47,17,-13371,4,2,-1000,-280,37289,287,25,79,0,0,0,0,0,0,0,0,-32317,0,0,0,3791,0,20299,0
14597,432,-8212,848,-47,44,16,-13371,-1,-3,-999,-288,37280,286,25,79,0,0,0,0,0,0,0,0,-32318,0,0,0,3790,0,20319,0
14607,382,-8244,890,-46,40,7,-13372,-2,-2,-1001,-288,37273,286,25,79,0,0,0,0,0,0,0,0,-32318,0,0,0,3790,0,20339,0
14617,422,-8224,884,-53,38,9,-13372,-1,4,-1001,-280,37274,284,25,79,0,0,0,0,0,0,0,0,-32318,0,0,0,3791,0,20359,0
14627,392,-8228,870,-48,37,12,-13372,-3,3,-997,-288,37280,282,25,79,0,0,0,0,0,0,0,0,-32318,0,0,0,3791,0,20379,0
14637,450,-8232,858,-54,35,11,-13373,-2,2,-998,-288,37278,283,25,79,0,0,0,0,0,0,0,0,-32318,0,0,0,3789,0,20400,0
14647,404,-8214,870,-51,36,5,-13373,-5,-2,-1002,-296,37279,289,25,79,0,0,0,0,0,0,0,0,-32318,0,0,0,3790,0,20419,0
14657,456,-8218,884,-48,36,10,-13373,0,-1,-1002,-296,37274,293,25,79,0,0,0,0,0,0,0,0,-32317,0,0,0,3791,0,20439,0
14667,442,-8226,880,-50,40,7,-13373,-5,3,-1000,-288,37275,296,25,79,0,0,0,0,0,0,0,0,-32317,0,0,0,3791,0,20459,0
14677,424,-8258,920,-51,37,10,-13373,3,4,-998,-288,37276,295,25,79,0,0,0,0,0,0,0,0,-32317,0,0,0,3790,0,20479,0
14687,464,-8200,916,-51,38,14,-13373,0,-1,-996,-280,37276,298,25,79,0,0,0,0,0,0,0,0,-32317,0,0,0,3792,0,20500,0
14697,440,-8272,900,-61,39,12,-13372,2,0,-999,-288,37277,294,25,79,0,0,0,0,0,0,0,0,-32318,0,0,0,3790,0,20520,0
14707,474,-8234,904,-60,44,16,-13373,0,-3,-1002,-296,37276,292,25,79,0,0,0,0,0,0,0,0,-32318,0,0,0,3789,0,20540,0
14717,458,-8210,882,-67,39,20,-13372,3,6,-1003,-304,37274,289,25,79,0,0,0,0,0,0,0,0,-32318,0,0,0,3790,0,20560,0
14727,470,-8238,882,-64,43,23,-13372,-5,1,-1004,-296,37275,290,25,79,0,0,0,0,0,0,0,0,-32318,0,0,0,3789,0,20580,0
14737,414,-8286,900,-62,43,17,-13371,3,-4,-1001,-288,37275,295,25,79,0,0,0,0,0,0,0,0,-32318,0,0,0,3791,0,20600,0
14747,428,-8214,874,-62,45,22,-13372,2,-1,-1000,-288,37277,297,25,79,0,0,0,0,0,0,0,0,-32318,0,0,0,3791,0,20620,0
14757,444,-8234,876,-57,43,17,-13372,-7,-1,-1000,-288,37276,294,25,79,0,0,0,0,0,0,0,0,-32318,0,0,0,3792,0,20640,0
14767,330,-8248,852,-52,40,21,-13371,3,-5,-998,-288,37276,291,25,79,0,0,0,0,0,0,0,0,-32318,0,0,0,3790,0,20660,0
14777,382,-8224,888,-51,36,23,-13372,1,-2,-997,-288,37276,284,25,79,0,0,0,0,0,0,0,0,-32318,0,0,0,3792,0,20680,0
14787,410,-8232,876,-60,39,20,-13372,-3,-5,-999,-296,37277,290,25,79,0,0,0,0,0,0,0,0,-32317,0,0,0,3790,0,20700,0
14797,394,-8234,890,-52,35,17,-13371,5,0,-999,-296,37279,294,25,79,0,0,0,0,0,0,0,0,-32318,0,0,0,3790,0,20720,0
14807,434,-8248,902,-55,43,18,-13372,3,0,-1002,-296,37276,294,25,79,0,0,0,0,0,0,0,0,-32318,0,0,0,3791,0,20740,0
14817,456,-8236,890,-59,39,16,-13371,0,0,-1002,-296,37276,294,25,79,0,0,0,0,0,0,0,0,-32318,0,0,0,3791,0,20760,0
14827,406,-8250,892,-58,43,15,-13372,-2,2,-998,-288,37279,291,25,79,0,0,0,0,0,0,0,0,-32317,0,0,0,3791,0,20780,0
14837,420,-8222,866,-57,42,15,-13373,0,1,-997,-280,37281,293,25,79,0,0,0,0,0,0,0,0,-32318,0,0,0,3790,0,20800,0
14847,454,-8218,838,-55,44,22,-13372,0,-2,-998,-296,37280,281,25,79,0,0,0,0,0,0,0,0,-32317,0,0,0,3791,0,20820,0
14857,432,-8196,860,-54,38,18,-13371,0,-1,-1001,-288,37279,283,25,79,0,0,0,0,0,0,0,0,-32318,0,0,0,3791,0,20840,0
14867,368,-8234,858,-60,40,12,-13371,2,4,-1000,-296,37279,283,25,79,0,0,0,0,0,0,0,0,-32318,0,0,0,3790,0,20860,0
14877,384,-8240,856,-51,33,22,-13371,5,5,-1002,-296,37283,288,25,79,0,0,0,0,0,0,0,0,-32318,0,0,0,3791,0,20880,0
14887,426,-8228,872,-51,43,18,-13371,2,-1,-999,-296,37286,286,25,79,0,0,0,0,0,0,0,0,-32318,0,0,0,3791,0,20900,0
14897,394,-8246,872,-53,38,12,-13372,1,1,-1000,-296,37284,284,25,79,0,0,0,0,0,0,0,0,-32318,0,0,0,3791,0,20920,0
14907,430,-8270,882,-53,39,12,-13372,4,-3,-999,-280,37284,285,25,79,0,0,0,0,0,0,0,0,-32317,0,0,0,3791,0,20940,0
14917,434,-8214,876,-49,38,17,-13372,1,0,-998,-296,37284,286,25,79,0,0,0,0,0,0,0,0,-32318,0,0,0,3792,0,20960,0
14927,390,-8212,872,-54,42,18,-13372,2,1,-1001,-296,37287,289,25,79,0,0,0,0,0,0,0,0,-32318,0,0,0,3791,0,20980,0
14937,420,-8228,886,-44,44,10,-13372,-1,1,-1002,-296,37290,296,25,79,0,0,0,0,0,0,0,0,-32318,0,0,0,3790,0,21000,0
14947,438,-8210,896,-56,43,11,-13372,-5,0,-1000,-296,37288,306,25,79,0,0,0,0,0,0,0,0,-32318,0,0,0,3790,0,21020,0
14957,416,-8236,872,-52,38,7,-13373,-11,-2,-1005,-304,37284,305,25,79,0,0,0,0,0,0,0,0,-32318,0,0,0,3790,0,21040,0
14967,428,-8194,850,-54,37,19,-13373,0,-5,-1000,-288,37280,305,25,79,0,0,0,0,0,0,0,0,-32317,0,0,0,3790,0,21060,0
14977,408,-8230,872,-54,41,17,-13372,0,5,-999,-280,37281,295,25,79,0,0,0,0,0,0,0,0,-32317,0,0,0,3791,0,21080,0
14987,454,-8246,876,-53,47,13,-13373,-9,0,-1002,-288,37280,295,25,79,0,0,0,0,0,0,0,0,-32318,0,0,0,3790,0,21100,0
14997,452,-8224,858,-52,38,15,-13371,4,1,-997,-296,37281,291,25,79,0,0,0,0,0,0,0,0,-32319,0,0,0,3789,0,21120,0
15007,418,-8238,864,-51,47,15,-13372,-3,0,-1002,-288,37279,294,25,79,0,0,0,0,0,0,0,0,-32318,0,0,0,3790,0,21140,0
15017,434,-8228,884,-46,43,20,-13370,2,3,-999,-296,37280,291,25,79,0,0,0,0,0,0,0,0,-32317,0,0,0,3791,0,21160,0
15027,444,-8206,870,-50,43,12,-13371,1,-1,-996,-296,37279,289,25,79,0,0,0,0,0,0,0,0,-32318,0,0,0,3790,0,21180,0
15037,414,-8234,852,-52,38,15,-13372,2,0,-999,-296,37283,287,25,79,0,0,0,0,0,0,0,0,-32317,0,0,0,3789,0,21200,0
15047,398,-8244,848,-49,38,16,-13372,5,-1,-999,-288,37281,289,25,79,0,0,0,0,0,0,0,0,-32318,0,0,0,3792,0,21220,0
15057,402,-8228,868,-48,39,15,-13373,-2,-1,-1000,-296,37283,295,25,79,0,0,0,0,0,0,0,0,-32317,0,0,0,3792,0,21240,0
15067,372,-8244,882,-45,41,13,-13372,3,2,-1002,-288,37276,289,25,79,0,0,0,0,0,0,0,0,-32318,0,0,0,3791,0,21260,0
15077,440,-8264,882,-49,34,17,-13372,-3,1,-999,-288,37275,288,25,79,0,0,0,0,0,0,0,0,-32318,0,0,0,3790,0,21280,0
15087,454,-8232,900,-49,43,16,-13373,-5,-5,-1002,-288,37274,285,25,79,0,0,0,0,0,0,0,0,-32318,0,0,0,3791,0,21300,0
15097,446,-8238,896,-54,41,21,-13372,-6,-6,-1000,-288,37274,294,25,79,0,0,0,0,0,0,0,0,-32317,0,0,0,3790,0,21320,0
15107,432,-8244,904,-47,39,13,-13372,0,-2,-1002,-288,37277,298,25,79,0,0,0,0,0,0,0,0,-32317,0,0,0,3791,0,21340,0
15117,456,-8234,890,-56,47,15,-13372,0,3,-1003,-296,37278,289,25,79,0,0,0,0,0,0,0,0,-32317,0,0,0,3791,0,21360,0
15127,430,-8240,854,-53,40,17,-13372,-3,3,-999,-288,37278,293,25,79,0,0,0,0,0,0,0,0,-32317,0,0,0,3791,0,21380,0
15137,418,-8244,894,-46,39,21,-13372,-2,-1,-1004,-280,37282,288,25,79,0,0,0,0,0,0,0,0,-32317,0,0,0,3791,0,21400,0
15147,460,-8220,914,-48,42,19,-13372,-8,2,-1001,-296,37282,289,25,79,0,0,0,0,0,0,0,0,-32318,0,0,0,3791,0,21420,0
15157,424,-8246,868,-52,41,16,-13371,4,0,-1000,-288,37282,293,26,79,0,0,0,0,0,0,0,0,-32318,0,0,0,3792,0,21441,0
15167,354,-8214,862,-52,36,20,-13372,2,-1,-1001,-296,37280,297,25,79,0,0,0,0,0,0,0,0,-32318,0,0,0,3791,0,21461,0
15177,402,-8230,866,-55,37,17,-13372,-6,2,-1001,-296,37276,292,25,79,0,0,0,0,0,0,0,0,-32318,0,0,0,3791,0,21481,0
15187,446,-8244,872,-47,39,19,-13372,1,-3,-1000,-296,37275,291,25,79,0,0,0,0,0,0,0,0,-32318,0,0,0,3791,0,21501,0
15197,426,-8218,898,-46,37,14,-13372,-1,-2,-996,-288,37276,286,25,79,0,0,0,0,0,0,0,0,-32317,0,0,0,3790,0,21521,0
15207,446,-8234,898,-54,40,14,-13372,0,0,-1006,-296,37276,294,25,79,0,0,0,0,0,0,0,0,-32318,0,0,0,3791,0,21541,0
15217,440,-8252,856,-46,41,15,-13372,-3,-1,-1005,-296,37273,290,25,79,0,0,0,0,0,0,0,0,-32318,0,0,0,3791,0,21561,0
15227,410,-8232,888,-48,46,14,-13371,0,0,-1001,-280,37272,281,25,79,0,0,0,0,0,0,0,0,-32317,0,0,0,3791,0,21581,0
15237,410,-8236,908,-56,41,15,-13373,-4,-3,-1004,-296,37273,283,25,79,0,0,0,0,0,0,0,0,-32318,0,0,0,3790,0,21601,0
15247,396,-8234,886,-53,40,14,-13371,2,2,-998,-296,37283,268,25,79,0,0,0,0,0,0,0,0,-32317,0,0,0,3791,0,21621,0
15257,394,-8258,864,-53,35,13,-13371,3,-1,-1000,-296,37283,278,25,79,0,0,0,0,0,0,0,0,-32317,0,0,0,3792,0,21641,0
15267,394,-8212,890,-54,41,16,-13371,5,0,-1002,-288,37280,280,25,79,0,0,0,0,0,0,0,0,-32317,0,0,0,3790,0,21661,0
15277,396,-8238,916,-53,38,9,-13371,0,-3,-998,-280,37270,293,25,79,0,0,0,0,0,0,0,0,-32317,0,0,0,3791,0,21681,0
15287,424,-8256,888,-51,46,12,-13372,-8,0,-998,-296,37270,290,25,79,0,0,0,0,0,0,0,0,-32317,0,0,0,3791,0,21701,0
15297,440,-8250,852,-51,40,12,-13371,7,1,-997,-280,37272,291,25,79,0,0,0,0,0,0,0,0,-32317,0,0,0,3791,0,21721,0
15307,410,-8248,864,-43,43,14,-13371,-1,-4,-1002,-296,37272,289,25,79,0,0,0,0,0,0,0,0,-32317,0,0,0,3790,0,21741,0
15317,430,-8248,870,-47,42,9,-13373,-6,-2,-1004,-296,37272,294,25,79,0,0,0,0,0,0,0,0,-32318,0,0,0,3791,0,21761,0
15327,390,-8218,870,-54,41,7,-13372,0,-3,-1000,-280,37271,296,25,79,0,0,0,0,0,0,0,0,-32317,0,0,0,3790,0,21781,0
15337,392,-8242,866,-45,34,5,-13372,-3,-6,-1000,-288,37269,297,25,79,0,0,0,0,0,0,0,0,-32318,0,0,0,3792,0,21801,0
15347,402,-8256,872,-46,42,12,-13372,-3,4,-1001,-296,37271,302,25,79,0,0,0,0,0,0,0,0,-32318,0,0,0,3792,0,21821,0
15357,360,-8244,892,-43,29,8,-13372,-4,1,-1005,-304,37273,303,25,79,0,0,0,0,0,0,0,0,-32318,0,0,0,3792,0,21841,0
15367,414,-8218,898,-47,41,3,-13372,3,-2,-999,-288,37272,294,25,79,0,0,0,0,0,0,0,0,-32317,0,0,0,3791,0,21861,0
15377,464,-8250,882,-48,35,6,-13372,1,2,-998,-296,37270,291,25,79,0,0,0,0,0,0,0,0,-32317,0,0,0,3792,0,21881,0
15387,432,-8190,904,-47,37,4,-13372,6,0,-1000,-296,37267,296,25,79,0,0,0,0,0,0,0,0,-32317,0,0,0,3791,0,21901,0
15397,462,-8220,914,-46,35,11,-13373,3,0,-997,-296,37268,297,25,79,0,0,0,0,0,0,0,0,-32318,0,0,0,3790,0,21921,0
15407,458,-8274,906,-56,41,8,-13373,0,-3,-999,-288,37268,297,25,79,0,0,0,0,0,0,0,0,-32318,0,0,0,3790,0,21941,0
15417,492,-8276,898,-52,40,9,-13374,-5,0,-1002,-296,37269,284,25,79,0,0,0,0,0,0,0,0,-32317,0,0,0,3790,0,21961,0
15427,388,-8238,858,-54,41,14,-13373,0,1,-998,-280,37269,287,25,79,0,0,0,0,0,0,0,0,-32317,0,0,0,3789,0,21981,0
15437,392,-8224,868,-54,38,10,-13373,3,2,-1004,-296,37269,286,25,79,0,0,0,0,0,0,0,0,-32318,0,0,0,3790,0,22001,0
15447,444,-8214,866,-51,34,10,-13373,-5,-1,-999,-296,37268,288,25,79,0,0,0,0,0,0,0,0,-32318,0,0,0,3791,0,22021,0
15457,436,-8226,868,-50,41,12,-13373,-2,0,-997,-280,37270,292,25,79,0,0,0,0,0,0,0,0,-32317,0,0,0,3790,0,22041,0
15467,452,-8270,874,-52,34,12,-13373,2,1,-1003,-296,37276,291,25,79,0,0,0,0,0,0,0,0,-32317,0,0,0,3790,0,22061,0
15477,414,-8228,898,-52,37,17,-13372,1,-5,-1001,-272,37278,295,25,79,0,0,0,0,0,0,0,0,-32317,0,0,0,3791,0,22081,0
15487,472,-8204,920,-52,41,12,-13373,-1,-2,-1000,-280,37279,289,25,79,0,0,0,0,0,0,0,0,-32317,0,0,0,3791,0,22101,0
15497,482,-8232,892,-53,40,13,-13373,-2,-1,-998,-296,37275,287,25,79,0,0,0,0,0,0,0,0,-32317,0,0,0,3790,0,22121,0
15507,432,-8244,880,-52,44,20,-13373,1,-5,-1003,-296,37275,281,25,79,0,0,0,0,0,0,0,0,-32318,0,0,0,3790,0,22141,0
15517,446,-8188,882,-54,43,11,-13374,1,-4,-1000,-296,37278,275,25,79,0,0,0,0,0,0,0,0,-32317,0,0,0,3790,0,22161,0
15527,404,-8270,864,-53,44,19,-13373,2,-3,-998,-288,37279,277,25,79,0,0,0,0,0,0,0,0,-32318,0,0,0,3790,0,22181,0
15537,388,-8228,882,-55,44,10,-13374,-3,-3,-1003,-296,37281,286,25,79,0,0,0,0,0,0,0,0,-32317,0,0,0,3790,0,22201,0
15547,502,-8230,846,-50,43,22,-13373,0,3,-1000,-296,37279,291,25,79,0,0,0,0,0,0,0,0,-32317,0,0,0,3790,0,22221,0
15557,410,-8218,878,-53,38,19,-13374,-3,-1,-1000,-288,37276,290,25,79,0,0,0,0,0,0,0,0,-32318,0,0,0,3790,0,22241,0
15567,384,-8224,860,-52,37,17,-13372,2,-2,-999,-288,37280,292,25,79,0,0,0,0,0,0,0,0,-32318,0,0,0,3791,0,22261,0
15577,402,-8208,894,-52,42,20,-13373,-3,0,-1000,-280,37281,295,25,79,0,0,0,0,0,0,0,0,-32318,0,0,0,3791,0,22281,0
15587,440,-8234,884,-48,44,12,-13373,0,-1,-999,-280,37280,295,25,79,0,0,0,0,0,0,0,0,-32318,0,0,0,3791,0,22301,0
15597,418,-8246,876,-50,35,19,-13373,0,2,-1001,-296,37271,300,25,79,0,0,0,0,0,0,0,0,-32318,0,0,0,3791,0,22321,0
15607,398,-8236,896,-51,44,16,-13373,1,-2,-1002,-296,37272,299,25,79,0,0,0,0,0,0,0,0,-32317,0,0,0,3790,0,22341,0
15617,460,-8266,908,-53,45,12,-13374,-5,1,-1002,-296,37275,294,25,79,0,0,0,0,0,0,0,0,-32317,0,0,0,3790,0,22361,0
15627,398,-8252,886,-52,45,16,-13374,2,-4,-1000,-280,37276,297,25,79,0,0,0,0,0,0,0,0,-32317,0,0,0,3791,0,22381,0
15637,436,-8214,886,-61,42,15,-13373,6,2,-1003,-296,37275,292,26,79,0,0,0,0,0,0,0,0,-32317,0,0,0,3790,0,22401,0
15647,438,-8204,860,-47,38,19,-13374,-2,6,-999,-296,37274,302,25,79,0,0,0,0,0,0,0,0,-32317,0,0,0,3790,0,22421,0
15657,442,-8264,892,-50,51,18,-13374,-1,-1,-999,-288,37275,297,25,79,0,0,0,0,0,0,0,0,-32317,0,0,0,3790,0,22441,0
15667,412,-8246,884,-51,44,20,-13373,-2,6,-1001,-296,37275,294,25,79,0,0,0,0,0,0,0,0,-32317,0,0,0,3790,0,22461,0
15677,428,-8256,872,-53,42,17,-13372,7,2,-1001,-296,37279,284,25,79,0,0,0,0,0,0,0,0,-32317,0,0,0,3791,0,22481,0
15687,470,-8246,874,-57,43,15,-13373,1,1,-996,-296,37280,290,25,79,0,0,0,0,0,0,0,0,-32318,0,0,0,3790,0,22501,0
15697,466,-8212,872,-50,38,18,-13372,2,-1,-1000,-296,37281,288,25,79,0,0,0,0,0,0,0,0,-32317,0,0,0,3791,0,22521,0
15707,420,-8212,864,-45,40,15,-13374,-5,-1,-1002,-296,37277,287,25,79,0,0,0,0,0,0,0,0,-32317,0,0,0,3790,0,22541,0
15717,490,-8218,858,-54,43,15,-13373,-3,2,-1000,-304,37278,284,25,79,0,0,0,0,0,0,0,0,-32317,0,0,0,3792,0,22561,0
15727,384,-8226,894,-47,40,15,-13373,-1,3,-1001,-280,37277,283,25,79,0,0,0,0,0,0,0,0,-32317,0,0,0,3792,0,22581,0
15737,394,-8222,882,-49,41,13,-13373,-2,-3,-1001,-296,37278,288,25,79,0,0,0,0,0,0,0,0,-32317,0,0,0,3790,0,22601,0
15747,434,-8250,878,-48,45,8,-13374,-3,-1,-1001,-288,37280,297,26,79,0,0,0,0,0,0,0,0,-32317,0,0,0,3790,0,22621,0
15757,416,-8254,868,-50,38,10,-13372,3,-3,-1003,-288,37281,295,25,79,0,0,0,0,0,0,0,0,-32318,0,0,0,3792,0,22641,0
15767,448,-8234,870,-48,41,11,-13372,3,-1,-1002,-296,37280,293,25,79,0,0,0,0,0,0,0,0,-32318,0,0,0,3790,0,22661,0
15777,380,-8232,874,-55,41,15,-13373,1,3,-998,-272,37286,296,25,79,0,0,0,0,0,0,0,0,-32317,0,0,0,3790,0,22681,0
15787,474,-8214,848,-51,42,7,-13374,-5,-1,-998,-296,37287,294,25,79,0,0,0,0,0,0,0,0,-32317,0,0,0,3791,0,22701,0
15797,442,-8220,880,-44,42,11,-13374,-2,2,-998,-296,37289,299,25,79,0,0,0,0,0,0,0,0,-32318,0,0,0,3790,0,22721,0
15807,426,-8246,882,-48,41,6,-13373,6,1,-1002,-272,37281,295,25,79,0,0,0,0,0,0,0,0,-32317,0,0,0,3790,0,22741,0
15817,434,-8248,876,-46,33,10,-13373,0,-1,-1003,-296,37280,288,25,79,0,0,0,0,0,0,0,0,-32318,0,0,0,3792,0,22761,0
15827,408,-8232,894,-51,38,11,-13373,-1,-1,-1001,-288,37280,283,26,79,0,0,0,0,0,0,0,0,-32317,0,0,0,3790,0,22781,0
15837,372,-8242,914,-51,36,14,-13373,0,3,-1000,-288,37282,284,26,79,0,0,0,0,0,0,0,0,-32317,0,0,0,3790,0,22801,0
15847,480,-8236,896,-46,38,15,-13375,-5,-1,-997,-296,37290,289,25,79,0,0,0,0,0,0,0,0,-32317,0,0,0,3791,0,22821,0
15857,438,-8228,896,-55,42,10,-13374,-3,4,-1000,-288,37300,287,26,79,0,0,0,0,0,0,0,0,-32317,0,0,0,3790,0,22841,0
15867,430,-8252,868,-53,40,15,-13372,9,3,-1004,-296,37309,290,25,79,0,0,0,0,0,0,0,0,-32317,0,0,0,3790,0,22861,0
15877,412,-8252,878,-51,39,21,-13374,-4,2,-1004,-280,37309,287,25,79,0,0,0,0,0,0,0,0,-32317,0,0,0,3791,0,22881,0
15887,476,-8220,906,-53,43,14,-13373,10,-2,-998,-288,37298,292,26,79,0,0,0,0,0,0,0,0,-32317,0,0,0,3791,0,22901,0
15897,438,-8238,906,-49,45,18,-13374,1,2,-998,-296,37289,291,25,79,0,0,0,0,0,0,0,0,-32318,0,0,0,3792,0,22921,0
15907,434,-8224,880,-48,47,12,-13374,-4,-2,-1003,-280,37285,294,25,79,0,0,0,0,0,0,0,0,-32317,0,0,0,3792,0,22941,0
15917,406,-8220,850,-50,41,15,-13374,3,-3,-1003,-296,37283,294,25,79,0,0,0,0,0,0,0,0,-32317,0,0,0,3790,0,22961,0
15927,400,-8236,856,-50,37,19,-13374,-1,4,-1000,-272,37283,285,25,79,0,0,0,0,0,0,0,0,-32317,0,0,0,3790,0,22981,0
15937,384,-8226,902,-50,38,18,-13373,7,2,-998,-296,37283,287,25,79,0,0,0,0,0,0,0,0,-32317,0,0,0,3790,0,23001,0
15947,414,-8236,870,-55,42,13,-13374,-2,0,-1003,-288,37284,289,25,79,0,0,0,0,0,0,0,0,-32317,0,0,0,3791,0,23021,0
15957,424,-8244,846,-54,42,19,-13374,-3,1,-1002,-280,37285,294,25,79,0,0,0,0,0,0,0,0,-32317,0,0,0,3791,0,23041,0
15967,418,-8232,880,-45,33,15,-13373,2,-5,-1001,-304,37283,291,25,79,0,0,0,0,0,0,0,0,-32318,0,0,0,3790,0,23061,0
15977,390,-8238,862,-44,37,13,-13373,-5,-1,-1001,-280,37281,288,25,79,0,0,0,0,0,0,0,0,-32318,0,0,0,3790,0,23081,0
15987,388,-8242,900,-45,43,11,-13374,5,-3,-999,-304,37280,295,26,79,0,0,0,0,0,0,0,0,-32317,0,0,0,3790,0,23101,0
15997,416,-8260,872,-47,42,8,-13374,-3,-1,-996,-288,37280,297,25,79,0,0,0,0,0,0,0,0,-32319,0,0,0,3790,0,23121,0
16007,402,-8234,904,-50,40,8,-13374,0,-3,-1003,-280,37279,293,25,79,0,0,0,0,0,0,0,0,-32318,0,0,0,3790,0,23141,0
16017,460,-8244,882,-40,39,11,-13373,3,0,-999,-296,37280,282,25,79,0,0,0,0,0,0,0,0,-32318,0,0,0,3791,0,23161,0
16027,422,-8254,896,-51,43,16,-13373,2,8,-1000,-280,37280,286,26,79,0,0,0,0,0,0,0,0,-32317,0,0,0,3790,0,23181,0
16037,444,-8222,888,-52,37,19,-13373,9,2,-997,-288,37280,293,26,79,0,0,0,0,0,0,0,0,-32317,0,0,0,3790,0,23201,0
16047,438,-8240,874,-50,44,24,-13374,2,1,-999,-296,37279,297,25,79,0,0,0,0,0,0,0,0,-32317,0,0,0,3790,0,23221,0
16057,476,-8232,892,-53,44,17,-13374,4,0,-1003,-280,37279,294,25,79,0,0,0,0,0,0,0,0,-32318,0,0,0,3792,0,23241,0
16067,426,-8232,904,-54,42,22,-13373,-1,0,-999,-296,37278,288,25,79,0,0,0,0,0,0,0,0,-32317,0,0,0,3790,0,23261,0
16077,402,-8234,882,-54,43,13,-13373,1,1,-1002,-296,37279,291,25,79,0,0,0,0,0,0,0,0,-32318,0,0,0,3790,0,23281,0
16087,430,-8248,872,-54,45,13,-13373,2,-2,-1002,-288,37279,294,25,79,0,0,0,0,0,0,0,0,-32317,0,0,0,3791,0,23301,0
16097,446,-8232,892,-45,47,14,-13374,1,-3,-998,-288,37278,291,25,79,0,0,0,0,0,0,0,0,-32318,0,0,0,3790,0,23322,0
16107,400,-8220,896,-55,43,19,-13374,-5,1,-1002,-280,37279,287,25,79,0,0,0,0,0,0,0,0,-32317,0,0,0,3790,0,23342,0
16117,466,-8226,874,-58,39,18,-13374,0,-2,-1002,-296,37281,278,25,79,0,0,0,0,0,0,0,0,-32317,0,0,0,3790,0,23362,0
16127,442,-8232,856,-53,44,18,-13373,0,-1,-1000,-280,37284,286,25,79,0,0,0,0,0,0,0,0,-32317,0,0,0,3790,0,23382,0
16137,402,-8240,864,-51,38,20,-13373,5,1,-1001,-288,37285,293,25,79,0,0,0,0,0,0,0,0,-32317,0,0,0,3790,0,23402,0
16147,440,-8248,878,-50,43,16,-13375,-5,-1,-1000,-296,37282,287,25,79,0,0,0,0,0,0,0,0,-32317,0,0,0,3790,0,23422,0
16157,442,-8234,896,-50,45,15,-13373,3,-1,-1000,-280,37282,285,25,79,0,0,0,0,0,0,0,0,-32318,0,0,0,3790,0,23443,0
16167,426,-8228,896,-57,46,13,-13372,0,-4,-1001,-296,37285,281,25,79,0,0,0,0,0,0,0,0,-32317,0,0,0,3791,0,23463,0
16177,354,-8234,890,-54,36,15,-13374,-5,0,-1003,-296,37282,284,25,79,0,0,0,0,0,0,0,0,-32318,0,0,0,3791,0,23483,0
16187,474,-8252,886,-51,45,9,-13373,0,-2,-1001,-288,37284,287,25,79,0,0,0,0,0,0,0,0,-32317,0,0,0,3790,0,23503,0
16197,440,-8218,862,-50,45,13,-13374,4,1,-1001,-296,37282,291,25,79,0,0,0,0,0,0,0,0,-32317,0,0,0,3790,0,23523,0
16207,356,-8244,846,-53,44,15,-13373,3,3,-1003,-288,37282,291,25,79,0,0,0,0,0,0,0,0,-32317,0,0,0,3790,0,23543,0
16217,372,-8242,866,-48,33,13,-13374,3,3,-1002,-304,37274,287,25,79,0,0,0,0,0,0,0,0,-32317,0,0,0,3790,0,23563,0
16227,430,-8208,882,-48,36,11,-13373,0,-6,-999,-280,37274,284,25,79,0,0,0,0,0,0,0,0,-32317,0,0,0,3790,0,23583,0
16237,402,-8200,880,-45,35,7,-13373,-2,3,-1001,-280,37272,287,25,79,0,0,0,0,0,0,0,0,-32317,0,0,0,3790,0,23603,0
16247,440,-8234,892,-41,35,7,-13374,-1,-1,-999,-280,37274,297,25,79,0,0,0,0,0,0,0,0,-32317,0,0,0,3790,0,23623,0
16257,452,-8232,890,-44,36,7,-13374,0,3,-1004,-280,37275,294,25,79,0,0,0,0,0,0,0,0,-32317,0,0,0,3791,0,23643,0
16267,432,-8234,902,-43,34,8,-13375,2,0,-1000,-296,37274,295,26,79,0,0,0,0,0,0,0,0,-32317,0,0,0,3789,0,23663,0
16277,452,-8206,916,-45,45,5,-13374,-4,-1,-1002,-296,37271,292,26,79,0,0,0,0,0,0,0,0,-32318,0,0,0,3790,0,23683,0
16287,422,-8260,912,-48,40,8,-13375,0,2,-1002,-288,37276,313,25,79,0,0,0,0,0,0,0,0,-32317,0,0,0,3790,0,23703,0
16297,420,-8242,910,-49,41,12,-13375,5,0,-999,-288,37279,312,25,79,0,0,0,0,0,0,0,0,-32317,0,0,0,3790,0,23723,0
16307,422,-8252,902,-51,37,11,-13375,0,-1,-1000,-280,37280,304,25,79,0,0,0,0,0,0,0,0,-32318,0,0,0,3790,0,23743,0
16317,444,-8204,882,-54,45,12,-13375,-3,0,-1003,-280,37278,290,25,79,0,0,0,0,0,0,0,0,-32317,0,0,0,3790,0,23763,0
16327,482,-8256,886,-49,44,12,-13375,2,1,-997,-280,37270,284,26,79,0,0,0,0,0,0,0,0,-32318,0,0,0,3790,0,23783,0
16337,460,-8238,908,-55,41,13,-13375,1,2,-999,-280,37271,284,25,79,0,0,0,0,0,0,0,0,-32317,0,0,0,3790,0,23803,0
16347,456,-8228,890,-54,40,14,-13375,0,3,-998,-288,37270,288,25,79,0,0,0,0,0,0,0,0,-32318,0,0,0,3789,0,23823,0
16357,466,-8246,884,-47,43,17,-13375,8,-1,-1002,-288,37271,289,25,79,0,0,0,0,0,0,0,0,-32318,0,0,0,3790,0,23843,0
16367,446,-8246,866,-51,43,9,-13375,3,-1,-1002,-296,37269,283,25,79,0,0,0,0,0,0,0,0,-32317,0,0,0,3790,0,23863,0
16377,450,-8218,848,-48,41,13,-13375,0,2,-1002,-296,37268,278,25,79,0,0,0,0,0,0,0,0,-32317,0,0,0,3790,0,23883,0
16387,432,-8270,874,-45,41,14,-13375,-3,-2,-1001,-280,37271,284,25,79,0,0,0,0,0,0,0,0,-32318,0,0,0,3790,0,23903,0
16397,412,-8214,864,-51,39,17,-13375,5,7,-1002,-296,37274,294,25,79,0,0,0,0,0,0,0,0,-32317,0,0,0,3790,0,23923,0
16407,376,-8216,862,-43,43,18,-13376,-3,0,-1005,-272,37272,296,25,79,0,0,0,0,0,0,0,0,-32317,0,0,0,3790,0,23943,0
16417,374,-8228,874,-45,42,19,-13375,-1,0,-998,-296,37270,297,26,79,0,0,0,0,0,0,0,0,-32318,0,0,0,3790,0,23963,0
16427,416,-8228,894,-49,39,12,-13375,1,0,-999,-280,37267,291,25,79,0,0,0,0,0,0,0,0,-32318,0,0,0,3790,0,23983,0
16437,444,-8250,908,-53,31,11,-13376,-2,0,-1003,-288,37268,301,25,79,0,0,0,0,0,0,0,0,-32318,0,0,0,3791,0,24003,0
16447,424,-8230,900,-49,39,9,-13374,6,3,-1002,-304,37268,296,25,79,0,0,0,0,0,0,0,0,-32317,0,0,0,3790,0,24023,0
16457,468,-8230,876,-47,44,10,-13376,0,-2,-996,-272,37268,296,25,79,0,0,0,0,0,0,0,0,-32318,0,0,0,3792,0,24043,0
16467,452,-8216,914,-49,42,13,-13375,0,-4,-1003,-296,37267,286,26,79,0,0,0,0,0,0,0,0,-32318,0,0,0,3790,0,24063,0
16477,446,-8244,876,-55,43,10,-13376,-7,0,-1000,-288,37267,289,26,79,0,0,0,0,0,0,0,0,-32318,0,0,0,3790,0,24083,0
16487,-938,-8426,888,-49,25,95,-13346,136,59,-299,0,37266,283,25,79,0,0,0,0,0,0,0,0,-32318,0,0,0,3793,0,24104,0
16497,1722,-7998,598,-54,-115,206,-13272,151,166,-257,0,37277,277,26,79,0,0,0,0,0,0,0,0,-32317,0,0,0,3799,0,24124,0
16507,716,-8408,1028,-2,-293,209,-13228,86,26,-170,0,37282,279,25,79,0,0,0,0,0,0,0,0,-32317,0,0,0,3804,0,24144,0
16517,258,-8208,754,-6,-420,162,-13204,36,-85,-93,0,37283,280,25,79,0,0,0,0,0,0,0,0,-32317,0,0,0,3814,1,24164,0
16527,-102,-8276,1052,-36,-269,151,-13180,56,-41,-111,0,37276,295,25,79,0,0,0,0,0,0,0,0,-32317,0,0,0,3821,1,24184,0
16537,92,-8258,1036,-68,-46,102,-13150,51,12,-129,0,37278,291,25,79,0,0,0,0,0,0,0,0,-32317,0,0,0,3824,0,24204,0
16547,110,-8188,834,-56,15,63,-13133,38,-12,-80,0,37277,285,25,79,0,0,0,0,0,0,0,0,-32317,0,0,0,3828,0,24224,0
16557,398,-8210,830,-51,11,70,-13109,63,-6,-117,0,37276,270,26,79,0,0,0,0,0,0,0,0,-32317,0,0,0,3829,0,24244,0
16567,764,-8228,868,-41,-35,68,-13089,21,3,-68,0,37275,265,25,79,0,0,0,0,0,0,0,0,-32317,0,0,0,3830,0,24264,0
16577,174,-8278,1022,-50,-56,48,-13089,4,-58,5,0,37279,269,26,79,0,0,0,0,0,0,0,0,-32317,0,0,0,3832,0,24284,0
16587,244,-8188,938,-55,14,33,-13089,9,-25,-7,0,37279,279,25,79,0,0,0,0,0,0,0,0,-32317,0,0,0,3832,0,24305,0
16597,304,-8260,862,-57,68,14,-13089,-3,-4,-5,0,37282,273,25,79,0,0,0,0,0,0,0,0,-32317,0,0,0,3832,0,24324,0
16607,430,-8248,792,-59,64,13,-13088,3,-7,-1,0,37279,275,26,79,0,0,0,0,0,0,0,0,-32317,0,0,0,3831,0,24344,0
16617,454,-8236,844,-44,39,17,-13088,3,-2,-2,0,37280,273,25,79,0,0,0,0,0,0,0,0,-32317,0,0,0,3832,0,24364,0
16627,402,-8240,904,-43,29,21,-13088,2,-1,-5,0,37281,271,25,79,0,0,0,0,0,0,0,0,-32317,0,0,0,3832,0,24384,0
16637,370,-8232,988,-54,43,22,-13086,2,0,-7,0,37275,268,26,79,0,0,0,0,0,0,0,0,-32317,0,0,0,3832,0,24404,0
16647,372,-8228,934,-59,51,15,-13086,-2,-2,-4,0,37275,259,25,79,0,0,0,0,0,0,0,0,-32317,0,0,0,3831,0,24424,0
16657,422,-8248,820,-56,51,23,-13085,2,-1,-4,0,37275,259,25,79,0,0,0,0,0,0,0,0,-32317,0,0,0,3831,0,24444,0
16667,408,-8254,814,-50,46,19,-13085,0,-2,-5,0,37278,262,25,79,0,0,0,0,0,0,0,0,-32317,0,0,0,3831,0,24464,0
16677,374,-8214,822,-46,42,25,-13084,4,2,-4,0,37280,260,25,79,0,0,0,0,0,0,0,0,-32317,0,0,0,3831,0,24484,0
16687,338,-8220,882,-44,39,23,-13084,1,-4,-6,0,37280,263,25,79,0,0,0,0,0,0,0,0,-32317,0,0,0,3832,0,24504,0
16697,356,-8258,910,-47,44,16,-13082,0,-1,-5,0,37279,263,25,79,0,0,0,0,0,0,0,0,-32317,0,0,0,3832,0,24524,0
16707,376,-8244,902,-51,39,14,-13081,5,0,-1,0,37284,262,25,79,0,0,0,0,0,0,0,0,-32317,0,0,0,3832,0,24544,0
16717,388,-8186,894,-50,39,17,-13083,0,3,-3,0,37287,257,25,79,0,0,0,0,0,0,0,0,-32317,0,0,0,3832,0,24564,0
16727,378,-8252,872,-51,40,17,-13082,-2,2,-3,0,37289,266,25,79,0,0,0,0,0,0,0,0,-32317,0,0,0,3832,0,24584,0
16737,374,-8238,888,-45,41,17,-13081,0,-3,-4,0,37283,268,25,79,0,0,0,0,0,0,0,0,-32317,0,0,0,3831,0,24604,0
16747,374,-8234,890,-47,44,15,-13080,-4,1,-3,0,37282,269,26,79,0,0,0,0,0,0,0,0,-32318,0,0,0,3831,0,24624,0
16757,378,-8236,898,-53,46,15,-13080,1,0,-2,0,37285,260,25,79,0,0,0,0,0,0,0,0,-32318,0,0,0,3832,0,24644,0
16767,404,-8236,902,-51,40,16,-13081,1,1,-2,0,37287,263,25,79,0,0,0,0,0,0,0,0,-32317,0,0,0,3831,0,24664,0
16777,404,-8228,916,-53,46,11,-13079,4,1,-1,0,37289,270,25,79,0,0,0,0,0,0,0,0,-32317,0,0,0,3832,0,24684,0
16787,380,-8276,876,-57,49,17,-13079,3,2,-1,0,37288,270,25,79,0,0,0,0,0,0,0,0,-32317,0,0,0,3831,0,24704,0
16797,402,-8256,858,-49,40,16,-13080,-1,-6,-2,0,37289,271,26,79,0,0,0,0,0,0,0,0,-32317,0,0,0,3832,0,24724,0
16807,426,-8246,858,-53,36,16,-13078,6,-6,0,0,37293,265,25,79,0,0,0,0,0,0,0,0,-32317,0,0,0,3831,0,24745,0
16817,378,-8228,856,-47,31,16,-13078,10,3,-2,0,37290,261,25,79,0,0,0,0,0,0,0,0,-32317,0,0,0,3832,0,24764,0
16827,368,-8226,888,-48,32,17,-13079,-3,2,-1,0,37286,262,26,79,0,0,0,0,0,0,0,0,-32317,0,0,0,3832,0,24784,0
16837,362,-8244,896,-51,36,16,-13080,-3,-1,-2,0,37280,271,26,79,0,0,0,0,0,0,0,0,-32317,0,0,0,3831,0,24804,0
16847,378,-8236,922,-49,37,14,-13077,5,-8,-1,0,37281,265,26,79,0,0,0,0,0,0,0,0,-32317,0,0,0,3832,0,24824,0
16857,406,-8238,910,-51,38,14,-13079,-5,-1,-1,0,37280,261,25,79,0,0,0,0,0,0,0,0,-32317,0,0,0,3833,0,24844,0
16867,416,-8242,914,-59,42,19,-13078,1,4,-3,0,37281,260,25,79,0,0,0,0,0,0,0,0,-32317,0,0,0,3831,0,24864,0
16877,394,-8234,886,-54,37,19,-13078,-7,1,0,0,37283,269,25,79,0,0,0,0,0,0,0,0,-32317,0,0,0,3832,0,24884,0
16887,366,-8232,878,-53,42,15,-13078,-6,-5,-2,0,37285,268,25,79,0,0,0,0,0,0,0,0,-32317,0,0,0,3832,0,24904,0
16897,422,-8214,904,-53,47,18,-13077,1,-1,-3,0,37283,270,26,79,0,0,0,0,0,0,0,0,-32317,0,0,0,3832,0,24924,0
16907,428,-8232,884,-59,43,13,-13076,1,0,-5,0,37288,268,25,79,0,0,0,0,0,0,0,0,-32317,0,0,0,3832,0,24944,0
16917,402,-8248,876,-54,51,26,-13075,7,2,-5,0,37291,275,26,79,0,0,0,0,0,0,0,0,-32317,0,0,0,3832,0,24964,0
16927,430,-8236,886,-59,43,25,-13075,1,-1,-7,0,37294,284,25,79,0,0,0,0,0,0,0,0,-32317,0,0,0,3832,0,24984,0
16937,402,-8242,840,-56,40,25,-13075,5,-2,-5,0,37292,284,25,79,0,0,0,0,0,0,0,0,-32317,0,0,0,3832,0,25004,0
16947,382,-8254,852,-56,35,28,-13073,-2,0,-9,0,37287,277,25,79,0,0,0,0,0,0,0,0,-32317,0,0,0,3832,0,25024,0
16957,352,-8226,880,-54,32,27,-13071,4,0,-10,0,37286,268,25,79,0,0,0,0,0,0,0,0,-32317,0,0,0,3833,0,25044,0
16967,356,-8242,894,-50,32,28,-13069,4,-1,-12,0,37285,263,26,79,0,0,0,0,0,0,0,0,-32317,0,0,0,3833,0,25064,0
16977,378,-8212,894,-54,30,27,-13068,2,0,-14,0,37286,262,25,79,0,0,0,0,0,0,0,0,-32317,0,0,0,3833,0,25084,0
16987,376,-8206,904,-53,37,25,-13065,14,-1,-18,0,37286,268,25,79,0,0,0,0,0,0,0,0,-32318,0,0,0,3832,0,25105,0
16997,440,-8234,880,-60,39,28,-13060,7,6,-23,0,37285,272,26,79,0,0,0,0,0,0,0,0,-32318,0,0,0,3832,0,25125,0
17007,414,-8264,872,-61,34,33,-13054,12,2,-27,0,37285,271,25,79,0,0,0,0,0,0,0,0,-32317,0,0,0,3834,0,25145,0
17017,406,-8244,872,-59,25,36,-13050,8,2,-30,0,37292,278,25,79,0,0,0,0,0,0,0,0,-32317,0,0,0,3834,0,25165,0
17027,396,-8242,862,-60,26,42,-13045,12,-2,-25,0,37295,289,26,79,0,0,0,0,0,0,0,0,-32317,0,0,0,3835,0,25185,0
17037,336,-8230,876,-61,35,37,-13041,5,-2,-15,0,37294,291,25,79,0,0,0,0,0,0,0,0,-32317,0,0,0,3835,0,25209,0
17047,314,-8230,882,-57,43,30,-13039,5,-6,-13,0,37284,289,26,79,0,0,0,0,0,0,0,0,-32316,0,0,0,3835,0,25229,0
17057,350,-8236,890,-55,44,26,-13039,1,0,-8,0,37282,288,26,79,0,0,0,0,0,0,0,0,-32317,0,0,0,3835,0,25249,0
17067,392,-8216,874,-54,39,19,-13038,-4,-3,-5,0,37283,287,26,79,0,0,0,0,0,0,0,0,-32317,0,0,0,3836,0,25269,0
17077,390,-8230,874,-54,37,18,-13037,0,-5,-3,0,37283,288,25,79,0,0,0,0,0,0,0,0,-32317,0,0,0,3836,0,25289,0
17087,362,-8232,852,-53,37,24,-13039,-9,-7,-2,0,37281,283,25,79,0,0,0,0,0,0,0,0,-32317,0,0,0,3835,0,25309,0
17097,342,-8252,844,-55,32,19,-13037,1,0,-3,0,37279,286,25,79,0,0,0,0,0,0,0,0,-32317,0,0,0,3836,0,25330,0
17107,348,-8252,864,-49,37,17,-13037,-3,1,-2,0,37280,286,25,79,0,0,0,0,0,0,0,0,-32318,0,0,0,3837,0,25350,0
17117,386,-8214,852,-47,39,19,-13037,1,-3,-2,0,37287,282,25,79,0,0,0,0,0,0,0,0,-32317,0,0,0,3836,0,25370,0
17127,368,-8238,892,-44,37,17,-13036,5,3,-2,0,37298,280,25,79,0,0,0,0,0,0,0,0,-32317,0,0,0,3836,0,25392,0
17137,362,-8232,900,-44,44,13,-13036,0,7,-1,0,37302,286,26,79,0,0,0,0,0,0,0,0,-32317,0,0,0,3836,0,25410,0
17147,366,-8226,886,-53,40,14,-13035,1,3,-3,0,37299,289,25,79,0,0,0,0,0,0,0,0,-32317,0,0,0,3837,0,25430,0
17157,352,-8250,860,-61,38,12,-13037,-3,-2,-1,0,37286,284,25,79,0,0,0,0,0,0,0,0,-32318,0,0,0,3836,0,25451,0
17167,350,-8222,858,-49,34,10,-13034,3,-4,0,0,37280,282,25,79,0,0,0,0,0,0,0,0,-32317,0,0,0,3835,0,25471,0
17177,368,-8238,870,-52,44,9,-13037,-9,1,0,0,37283,284,25,79,0,0,0,0,0,0,0,0,-32318,0,0,0,3836,0,25491,0
17187,372,-8226,872,-49,38,8,-13035,3,-2,0,0,37281,289,25,79,0,0,0,0,0,0,0,0,-32317,0,0,0,3836,0,25511,0
17197,392,-8234,886,-47,45,9,-13036,-6,-1,-2,0,37277,287,25,79,0,0,0,0,0,0,0,0,-32317,0,0,0,3836,0,25531,0
17207,386,-8220,876,-51,39,5,-13036,1,0,0,0,37277,286,25,79,0,0,0,0,0,0,0,0,-32317,0,0,0,3835,0,25551,0
17217,398,-8260,880,-47,36,12,-13037,-6,3,0,0,37278,292,26,79,0,0,0,0,0,0,0,0,-32317,0,0,0,3837,0,25571,0
17227,390,-8258,864,-50,40,8,-13036,6,-1,0,0,37288,291,25,79,0,0,0,0,0,0,0,0,-32317,0,0,0,3836,0,25591,0
17237,396,-8240,838,-50,37,9,-13036,-2,-2,0,0,37286,292,25,79,0,0,0,0,0,0,0,0,-32317,0,0,0,3836,0,25611,0
17247,418,-8260,882,-47,37,10,-13037,0,-3,0,0,37285,296,26,79,0,0,0,0,0,0,0,0,-32317,0,0,0,3835,0,25631,0
17257,402,-8234,892,-50,42,13,-13037,-6,-2,0,0,37278,293,26,79,0,0,0,0,0,0,0,0,-32317,0,0,0,3838,0,25651,0
17267,368,-8232,900,-49,42,16,-13036,-4,-1,0,0,37279,286,25,79,0,0,0,0,0,0,0,0,-32317,0,0,0,3836,0,25671,0
17277,366,-8232,898,-54,42,12,-13036,-3,-2,0,0,37277,284,26,79,0,0,0,0,0,0,0,0,-32317,0,0,0,3837,0,25691,0
17287,412,-8252,896,-54,41,13,-13037,0,1,0,0,37274,289,26,79,0,0,0,0,0,0,0,0,-32317,0,0,0,3836,0,25711,0
17297,380,-8232,876,-54,43,14,-13036,-1,-6,-1,0,37274,291,25,79,0,0,0,0,0,0,0,0,-32317,0,0,0,3835,0,25731,0
17307,398,-8246,890,-54,44,20,-13036,5,5,0,0,37275,284,25,79,0,0,0,0,0,0,0,0,-32317,0,0,0,3836,0,25751,0
17317,368,-8242,848,-52,43,14,-13036,-5,-1,0,0,37277,281,25,79,0,0,0,0,0,0,0,0,-32317,0,0,0,3837,0,25771,0
17327,400,-8254,874,-52,47,17,-13036,-5,-4,0,0,37277,284,25,79,0,0,0,0,0,0,0,0,-32318,0,0,0,3835,0,25791,0
17337,380,-8256,866,-48,40,20,-13036,4,7,0,0,37282,291,25,79,0,0,0,0,0,0,0,0,-32317,0,0,0,3836,0,25811,0
17347,370,-8226,878,-49,42,18,-13035,3,-2,-1,0,37280,284,25,79,0,0,0,0,0,0,0,0,-32317,0,0,0,3836,0,25831,0
17357,364,-8240,856,-47,36,14,-13036,-3,0,-1,0,37281,288,25,79,0,0,0,0,0,0,0,0,-32317,0,0,0,3837,0,25851,0
17367,388,-8234,848,-51,36,11,-13035,-2,-4,1,0,37276,285,26,79,0,0,0,0,0,0,0,0,-32317,0,0,0,3837,0,25871,0
17377,396,-8246,876,-42,41,16,-13036,-7,-2,0,0,37275,279,25,79,0,0,0,0,0,0,0,0,-32317,0,0,0,3836,0,25891,0
17387,396,-8206,884,-46,38,17,-13036,-6,1,0,0,37272,275,26,79,0,0,0,0,0,0,0,0,-32317,0,0,0,3836,0,25911,0
17397,402,-8254,882,-46,44,15,-13035,1,0,-1,0,37273,285,25,79,0,0,0,0,0,0,0,0,-32317,0,0,0,3837,0,25931,0
17407,376,-8230,906,-55,40,13,-13036,4,3,-1,0,37277,291,25,79,0,0,0,0,0,0,0,0,-32317,0,0,0,3836,0,25951,0
17417,406,-8212,896,-54,43,19,-13037,-3,2,-1,0,37280,291,25,79,0,0,0,0,0,0,0,0,-32317,0,0,0,3837,0,25971,0
17427,384,-8238,896,-54,42,19,-13035,1,-1,-2,0,37278,283,25,79,0,0,0,0,0,0,0,0,-32317,0,0,0,3838,0,25991,0
17437,376,-8256,906,-61,43,22,-13034,5,-3,0,0,37284,280,25,79,0,0,0,0,0,0,0,0,-32317,0,0,0,3837,0,26011,0
17447,366,-8252,870,-57,49,22,-13034,0,2,-3,0,37283,276,26,79,0,0,0,0,0,0,0,0,-32317,0,0,0,3837,0,26031,0
17457,410,-8244,866,-55,40,17,-13035,5,-5,-2,0,37282,271,25,79,0,0,0,0,0,0,0,0,-32317,0,0,0,3837,0,26051,0
17467,366,-8232,872,-54,42,22,-13033,0,-3,-1,0,37274,278,25,79,0,0,0,0,0,0,0,0,-32317,0,0,0,3837,0,26071,0
17477,368,-8256,852,-53,37,17,-13034,-1,3,-2,0,37276,286,25,79,0,0,0,0,0,0,0,0,-32317,0,0,0,3837,0,26091,0
17487,334,-8222,870,-51,37,20,-13033,4,4,-1,0,37274,287,25,79,0,0,0,0,0,0,0,0,-32318,0,0,0,3837,0,26111,0
17497,352,-8254,866,-48,38,18,-13034,0,-5,-2,0,37271,281,25,79,0,0,0,0,0,0,0,0,-32317,0,0,0,3837,0,26131,0
17507,374,-8218,898,-49,43,14,-13034,0,0,0,0,37271,282,25,79,0,0,0,0,0,0,0,0,-32317,0,0,0,3837,0,26151,0
17517,376,-8234,888,-51,42,13,-13033,-3,0,0,0,37273,282,25,79,0,0,0,0,0,0,0,0,-32317,0,0,0,3837,0,26171,0
17527,372,-8248,894,-52,39,19,-13033,-7,3,-2,0,37274,285,25,79,0,0,0,0,0,0,0,0,-32317,0,0,0,3837,0,26191,0
17537,356,-8240,872,-52,38,17,-13033,1,-1,-3,0,37280,295,26,79,0,0,0,0,0,0,0,0,-32317,0,0,0,3837,0,26211,0
17547,380,-8236,874,-52,41,18,-13033,1,0,-3,0,37281,294,25,79,0,0,0,0,0,0,0,0,-32317,0,0,0,3837,0,26231,0
17557,364,-8244,880,-55,39,15,-13032,0,1,-2,0,37282,295,26,79,0,0,0,0,0,0,0,0,-32317,0,0,0,3836,0,26251,0
17567,374,-8248,882,-53,36,15,-13033,-2,-6,-1,0,37277,292,25,79,0,0,0,0,0,0,0,0,-32317,0,0,0,3837,0,26271,0
17577,370,-8238,850,-51,43,15,-13033,-8,1,0,0,37275,291,25,79,0,0,0,0,0,0,0,0,-32317,0,0,0,3836,0,26291,0
17587,394,-8280,860,-50,43,20,-13032,1,-3,0,0,37276,295,26,79,0,0,0,0,0,0,0,0,-32317,0,0,0,3838,0,26311,0
17597,380,-8248,894,-46,44,16,-13031,7,-4,-1,0,37276,285,25,79,0,0,0,0,0,0,0,0,-32317,0,0,0,3837,0,26331,0
17607,380,-8228,868,-56,38,16,-13033,-4,1,0,0,37274,278,25,79,0,0,0,0,0,0,0,0,-32317,0,0,0,3837,0,26351,0
17617,374,-8242,840,-51,38,18,-13030,-2,-1,-1,0,37277,282,25,79,0,0,0,0,0,0,0,0,-32317,0,0,0,3838,0,26371,0
17627,374,-8242,846,-50,38,12,-13031,3,-2,1,0,37282,287,25,79,0,0,0,0,0,0,0,0,-32317,0,0,0,3837,0,26391,0
17637,350,-8200,858,-45,37,13,-13032,0,-2,-1,0,37283,282,26,79,0,0,0,0,0,0,0,0,-32317,0,0,0,3837,0,26411,0
17647,360,-8236,884,-48,34,9,-13032,-4,-3,-3,0,37285,276,25,79,0,0,0,0,0,0,0,0,-32317,0,0,0,3837,0,26431,0
17657,390,-8252,892,-54,37,6,-13033,-4,4,0,0,37283,278,25,79,0,0,0,0,0,0,0,0,-32317,0,0,0,3837,0,26451,0
17667,408,-8234,874,-46,37,11,-13033,-6,-2,1,0,37286,277,26,79,0,0,0,0,0,0,0,0,-32317,0,0,0,3838,0,26471,0
17677,392,-8236,888,-46,35,14,-13033,-11,-3,-1,0,37281,284,26,79,0,0,0,0,0,0,0,0,-32317,0,0,0,3837,0,26491,0
17687,378,-8260,890,-47,39,12,-13032,4,4,-1,0,37280,288,25,79,0,0,0,0,0,0,0,0,-32317,0,0,0,3838,0,26512,0
17697,382,-8214,878,-56,36,15,-13033,-5,-2,-1,0,37279,294,25,79,0,0,0,0,0,0,0,0,-32317,0,0,0,3837,0,26531,0
17707,402,-8234,884,-61,44,17,-13031,2,1,0,0,37280,300,26,79,0,0,0,0,0,0,0,0,-32317,0,0,0,3838,0,26551,0
17717,392,-8228,876,-53,41,18,-13031,6,-2,-1,0,37281,296,25,79,0,0,0,0,0,0,0,0,-32317,0,0,0,3837,0,26571,0
17727,388,-8214,890,-56,39,17,-13032,1,-5,1,0,37281,293,26,79,0,0,0,0,0,0,0,0,-32317,0,0,0,3837,0,26591,0
17737,354,-8236,866,-52,38,17,-13031,-3,0,0,0,37280,294,25,79,0,0,0,0,0,0,0,0,-32317,0,0,0,3837,0,26611,0
17747,396,-8226,856,-52,47,15,-13032,2,-4,-2,0,37287,291,25,79,0,0,0,0,0,0,0,0,-32317,0,0,0,3837,0,26631,0
17757,388,-8232,852,-48,44,16,-13031,0,-7,-1,0,37288,289,26,79,0,0,0,0,0,0,0,0,-32317,0,0,0,3837,0,26651,0
17767,396,-8274,886,-54,37,14,-13033,-2,0,0,0,37290,287,25,79,0,0,0,0,0,0,0,0,-32317,0,0,0,3837,0,26671,0
17777,388,-8244,878,-52,39,20,-13032,-8,2,0,0,37286,289,25,79,0,0,0,0,0,0,0,0,-32317,0,0,0,3837,0,26691,0
17787,354,-8254,836,-47,41,22,-13031,2,1,0,0,37279,280,25,79,0,0,0,0,0,0,0,0,-32317,0,0,0,3837,0,26711,0
17797,338,-8258,872,-50,39,16,-13032,-4,1,-1,0,37279,278,25,79,0,0,0,0,0,0,0,0,-32317,0,0,0,3838,0,26731,0
17807,360,-8244,876,-54,42,13,-13032,5,-5,0,0,37282,287,25,79,0,0,0,0,0,0,0,0,-32317,0,0,0,3838,0,26751,0
17817,354,-8236,882,-50,42,12,-13032,-4,2,1,0,37285,286,25,79,0,0,0,0,0,0,0,0,-32317,0,0,0,3838,0,26771,0
17827,366,-8226,890,-53,41,9,-13031,3,1,-1,0,37283,286,25,79,0,0,0,0,0,0,0,0,-32317,0,0,0,3837,0,26791,0
17837,380,-8242,880,-49,44,12,-13032,0,2,1,0,37282,291,26,79,0,0,0,0,0,0,0,0,-32317,0,0,0,3837,0,26811,0
17847,398,-8234,898,-52,45,10,-13031,0,-2,0,0,37284,298,25,79,0,0,0,0,0,0,0,0,-32317,0,0,0,3837,0,26831,0
17857,406,-8230,878,-56,38,16,-13031,5,0,-1,0,37290,296,26,79,0,0,0,0,0,0,0,0,-32317,0,0,0,3838,0,26851,0
17867,414,-8240,848,-54,42,17,-13032,-3,-2,0,0,37289,295,26,79,0,0,0,0,0,0,0,0,-32317,0,0,0,3837,0,26871,0
17877,386,-8238,886,-49,43,19,-13032,0,-4,0,0,37291,296,26,79,0,0,0,0,0,0,0,0,-32317,0,0,0,3838,0,26891,0
17887,380,-8232,892,-56,43,19,-13032,0,-2,0,0,37285,305,26,79,0,0,0,0,0,0,0,0,-32317,0,0,0,3837,0,26912,0
17897,360,-8250,872,-48,42,16,-13032,0,1,-1,0,37284,297,26,79,0,0,0,0,0,0,0,0,-32317,0,0,0,3837,0,26931,0
17907,340,-8238,888,-56,40,19,-13031,0,2,-1,0,37284,288,25,79,0,0,0,0,0,0,0,0,-32317,0,0,0,3838,0,26951,0
17917,376,-8216,868,-46,38,15,-13031,6,-1,0,0,37285,283,25,79,0,0,0,0,0,0,0,0,-32317,0,0,0,3837,0,26971,0
17927,360,-8238,848,-47,42,19,-13032,4,2,0,0,37288,288,26,79,0,0,0,0,0,0,0,0,-32317,0,0,0,3837,0,26991,0
17937,370,-8226,856,-50,41,16,-13032,-4,-1,0,0,37287,288,26,79,0,0,0,0,0,0,0,0,-32317,0,0,0,3837,0,27011,0
17947,370,-8214,876,-46,37,15,-13031,0,-2,0,0,37285,284,25,79,0,0,0,0,0,0,0,0,-32317,0,0,0,3837,0,27031,0
17957,386,-8228,894,-47,37,17,-13031,7,2,0,0,37288,287,26,79,0,0,0,0,0,0,0,0,-32317,0,0,0,3838,0,27051,0
17967,376,-8224,912,-54,42,14,-13032,0,1,1,0,37290,284,26,79,0,0,0,0,0,0,0,0,-32317,0,0,0,3838,0,27071,0
17977,386,-8268,908,-57,45,15,-13032,5,-1,0,0,37288,292,26,79,0,0,0,0,0,0,0,0,-32317,0,0,0,3837,0,27091,0
17987,412,-8256,876,-57,38,15,-13031,5,2,0,0,37285,291,25,79,0,0,0,0,0,0,0,0,-32317,0,0,0,3837,0,27112,0
17997,342,-8230,868,-55,39,16,-13032,3,0,-2,0,37284,289,25,79,0,0,0,0,0,0,0,0,-32317,0,0,0,3837,0,27131,0
18007,352,-8244,844,-52,45,11,-13031,0,6,-1,0,37284,287,26,79,0,0,0,0,0,0,0,0,-32317,0,0,0,3837,0,27151,0
18017,358,-8214,880,-53,44,9,-13031,0,4,1,0,37285,288,25,79,0,0,0,0,0,0,0,0,-32317,0,0,0,3837,0,27171,0
18027,382,-8232,866,-49,37,14,-13032,-3,-4,0,0,37285,291,26,79,0,0,0,0,0,0,0,0,-32317,0,0,0,3838,0,27191,0
18037,384,-8244,860,-47,43,14,-13031,2,0,0,0,37284,286,25,79,0,0,0,0,0,0,0,0,-32317,0,0,0,3837,0,27212,0
18047,402,-8250,866,-49,36,15,-13032,-1,2,-1,0,37284,280,25,79,0,0,0,0,0,0,0,0,-32317,0,0,0,3838,0,27231,0
18057,368,-8250,850,-50,37,14,-13031,0,1,0,0,37285,278,26,79,0,0,0,0,0,0,0,0,-32317,0,0,0,3837,0,27251,0
18067,354,-8226,870,-41,37,18,-13030,10,0,0,0,37288,285,26,79,0,0,0,0,0,0,0,0,-32317,0,0,0,3837,0,27271,0
18077,372,-8220,864,-45,39,9,-13032,0,3,-1,0,37295,304,26,79,0,0,0,0,0,0,0,0,-32317,0,0,0,3836,0,27291,0
18087,364,-8236,886,-45,39,14,-13031,5,0,0,0,37294,297,26,79,0,0,0,0,0,0,0,0,-32317,0,0,0,3838,0,27311,0
18097,382,-8252,900,-46,36,12,-13033,-4,-2,0,0,37289,295,26,79,0,0,0,0,0,0,0,0,-32317,0,0,0,3837,0,27332,0
18107,364,-8220,900,-49,35,7,-13031,6,2,0,0,37281,288,26,79,0,0,0,0,0,0,0,0,-32317,0,0,0,3838,0,27352,0
18117,368,-8242,896,-50,35,5,-13034,-9,-2,0,0,37282,289,26,79,0,0,0,0,0,0,0,0,-32317,0,0,0,3838,0,27372,0
18127,392,-8220,878,-50,41,12,-13032,0,-2,0,0,37282,291,26,79,0,0,0,0,0,0,0,0,-32317,0,0,0,3838,0,27392,0
18137,408,-8222,868,-49,43,10,-13033,-5,-1,-1,0,37280,294,26,79,0,0,0,0,0,0,0,0,-32317,0,0,0,3837,0,27412,0
18147,374,-8250,864,-55,46,16,-13032,-6,1,-1,0,37278,304,26,79,0,0,0,0,0,0,0,0,-32317,0,0,0,3837,0,27432,0
18157,406,-8230,884,-50,38,17,-13032,-3,-2,0,0,37274,298,26,79,0,0,0,0,0,0,0,0,-32317,0,0,0,3837,0,27452,0
18167,396,-8278,876,-44,42,17,-13032,0,0,0,0,37277,294,26,79,0,0,0,0,0,0,0,0,-32317,0,0,0,3836,0,27472,0
18177,396,-8228,912,-50,38,17,-13032,0,3,0,0,37282,292,26,79,0,0,0,0,0,0,0,0,-32317,0,0,0,3837,0,27492,0
18187,400,-8210,904,-57,47,13,-13033,-1,-1,0,0,37282,300,26,79,0,0,0,0,0,0,0,0,-32317,0,0,0,3836,0,27512,0
18197,384,-8242,872,-55,45,21,-13032,0,11,-1,0,37279,304,26,79,0,0,0,0,0,0,0,0,-32317,0,0,0,3837,0,27532,0
18207,386,-8244,866,-56,40,22,-13031,6,-1,0,0,37277,295,25,79,0,0,0,0,0,0,0,0,-32317,0,0,0,3837,0,27552,0
18217,376,-8228,854,-52,40,15,-13033,-3,0,0,0,37278,291,25,79,0,0,0,0,0,0,0,0,-32317,0,0,0,3837,0,27572,0
18227,392,-8238,870,-51,42,22,-13031,1,-2,-1,0,37278,292,26,79,0,0,0,0,0,0,0,0,-32317,0,0,0,3838,0,27592,0
18237,382,-8244,858,-52,40,18,-13031,3,3,0,0,37275,289,25,79,0,0,0,0,0,0,0,0,-32317,0,0,0,3837,0,27612,0
18247,372,-8202,876,-44,38,20,-13033,-2,1,-1,0,37271,287,26,79,0,0,0,0,0,0,0,0,-32317,0,0,0,3837,0,27632,0
18257,350,-8234,864,-49,38,15,-13033,-3,3,0,0,37274,285,25,79,0,0,0,0,0,0,0,0,-32317,0,0,0,3837,0,27652,0
18267,370,-8252,870,-43,40,11,-13033,-6,1,0,0,37276,282,25,79,0,0,0,0,0,0,0,0,-32317,0,0,0,3838,0,27672,0
18277,358,-8232,876,-48,39,14,-13032,1,1,0,0,37276,285,25,79,0,0,0,0,0,0,0,0,-32317,0,0,0,3838,0,27692,0
18287,352,-8238,892,-49,41,12,-13032,3,-2,2,0,37279,286,26,79,0,0,0,0,0,0,0,0,-32317,0,0,0,3837,0,27713,0
18297,402,-8252,882,-50,37,11,-13032,0,-4,-1,0,37279,288,26,79,0,0,0,0,0,0,0,0,-32317,0,0,0,3837,0,27733,0
18307,396,-8234,884,-47,45,11,-13032,-2,-3,0,0,37281,280,26,79,0,0,0,0,0,0,0,0,-32317,0,0,0,3837,0,27753,0
18317,366,-8256,850,-53,45,15,-13033,-1,3,0,0,37278,286,26,79,0,0,0,0,0,0,0,0,-32318,0,0,0,3835,0,27772,0
18327,392,-8264,856,-47,41,18,-13032,0,4,-2,0,37277,289,25,79,0,0,0,0,0,0,0,0,-32317,0,0,0,3837,0,27792,0
18337,398,-8230,884,-44,40,15,-13031,6,1,-1,0,37274,296,25,79,0,0,0,0,0,0,0,0,-32317,0,0,0,3836,0,27813,0
18347,376,-8246,876,-48,36,16,-13032,-9,-5,-1,0,37272,299,26,79,0,0,0,0,0,0,0,0,-32317,0,0,0,3838,0,27833,0
18357,368,-8258,898,-48,44,13,-13032,2,0,0,0,37272,297,26,79,0,0,0,0,0,0,0,0,-32317,0,0,0,3837,0,27853,0
18367,416,-8242,902,-48,49,20,-13032,-5,1,0,0,37273,300,26,79,0,0,0,0,0,0,0,0,-32317,0,0,0,3837,0,27873,0
18377,394,-8248,876,-55,47,22,-13032,-1,-3,-1,0,37274,294,25,79,0,0,0,0,0,0,0,0,-32317,0,0,0,3837,0,27893,0
18387,402,-8256,908,-58,46,17,-13032,-1,-3,1,0,37279,283,25,79,0,0,0,0,0,0,0,0,-32317,0,0,0,3837,0,27913,0
18397,402,-8222,896,-61,44,21,-13031,7,0,0,0,37278,281,26,79,0,0,0,0,0,0,0,0,-32317,0,0,0,3838,0,27933,0
18407,394,-8252,888,-53,44,22,-13031,3,-1,0,0,37288,280,25,79,0,0,0,0,0,0,0,0,-32317,0,0,0,3838,0,27953,0
18417,382,-8236,860,-56,47,20,-13030,3,2,-1,0,37298,279,26,79,0,0,0,0,0,0,0,0,-32318,0,0,0,3837,0,27973,0
18427,368,-8242,866,-55,45,22,-13032,2,-6,0,0,37302,280,25,79,0,0,0,0,0,0,0,0,-32317,0,0,0,3837,0,27993,0
18437,332,-8236,840,-52,43,15,-13030,8,-4,-1,0,37295,283,25,79,0,0,0,0,0,0,0,0,-32317,0,0,0,3837,0,28013,0
18447,380,-8248,850,-48,42,20,-13032,1,7,-3,0,37282,292,26,79,0,0,0,0,0,0,0,0,-32317,0,0,0,3838,0,28033,0
18457,364,-8238,868,-46,35,15,-13031,-6,-1,-1,0,37271,285,25,79,0,0,0,0,0,0,0,0,-32317,0,0,0,3837,0,28053,0
18467,352,-8230,898,-47,40,19,-13031,3,-1,0,0,37270,283,25,79,0,0,0,0,0,0,0,0,-32317,0,0,0,3837,0,28073,0
18477,378,-8228,896,-52,41,13,-13031,-1,0,0,0,37271,285,25,79,0,0,0,0,0,0,0,0,-32317,0,0,0,3837,0,28093,0
18487,390,-8230,868,-48,40,11,-13030,8,-2,0,0,37272,287,26,79,0,0,0,0,0,0,0,0,-32317,0,0,0,3837,0,28113,0
18497,382,-8214,868,-52,38,9,-13032,-7,0,0,0,37272,293,25,79,0,0,0,0,0,0,0,0,-32317,0,0,0,3837,0,28133,0
18507,402,-8240,870,-53,41,15,-13030,2,4,0,0,37274,294,25,79,0,0,0,0,0,0,0,0,-32317,0,0,0,3837,0,28153,0
18517,358,-8236,888,-54,42,11,-13031,6,3,1,0,37276,295,26,79,0,0,0,0,0,0,0,0,-32317,0,0,0,3837,0,28173,0
18527,382,-8228,872,-50,41,17,-13031,3,0,0,0,37274,294,26,79,0,0,0,0,0,0,0,0,-32317,0,0,0,3837,0,28193,0
18537,352,-8244,858,-46,41,15,-13032,-2,1,0,0,37273,288,26,79,0,0,0,0,0,0,0,0,-32317,0,0,0,3837,0,28213,0
18547,418,-8222,876,-55,38,15,-13032,-3,1,0,0,37275,291,26,79,0,0,0,0,0,0,0,0,-32317,0,0,0,3837,0,28233,0
18557,362,-8218,874,-50,38,9,-13031,1,0,0,0,37275,291,26,79,0,0,0,0,0,0,0,0,-32317,0,0,0,3838,0,28253,0
18567,388,-8236,876,-49,36,15,-13032,-12,2,-1,0,37275,289,26,79,0,0,0,0,0,0,0,0,-32317,0,0,0,3837,0,28273,0
18577,390,-8228,882,-47,37,13,-13031,2,0,0,0,37275,283,25,79,0,0,0,0,0,0,0,0,-32317,0,0,0,3837,0,28293,0
18587,358,-8224,874,-44,39,12,-13031,3,-2,0,0,37277,289,26,79,0,0,0,0,0,0,0,0,-32317,0,0,0,3837,0,28313,0
18597,370,-8246,880,-54,37,8,-13030,2,1,-2,0,37278,288,25,79,0,0,0,0,0,0,0,0,-32317,0,0,0,3838,0,28333,0
18607,370,-8270,866,-51,38,12,-13031,-3,3,-1,0,37284,280,25,79,0,0,0,0,0,0,0,0,-32317,0,0,0,3837,0,28353,0
18617,394,-8198,882,-49,36,11,-13032,-4,-2,0,0,37283,276,26,79,0,0,0,0,0,0,0,0,-32317,0,0,0,3837,0,28373,0
18627,398,-8254,904,-49,38,12,-13031,-5,-1,0,0,37284,280,25,79,0,0,0,0,0,0,0,0,-32317,0,0,0,3837,0,28393,0
18637,396,-8224,896,-52,42,15,-13032,-7,-3,-1,0,37279,283,25,79,0,0,0,0,0,0,0,0,-32317,0,0,0,3837,0,28413,0
18647,406,-8212,900,-56,42,14,-13031,-2,2,0,0,37278,288,26,79,0,0,0,0,0,0,0,0,-32317,0,0,0,3837,0,28433,0
18657,402,-8268,870,-51,36,16,-13032,2,1,1,0,37277,292,25,79,0,0,0,0,0,0,0,0,-32317,0,0,0,3837,0,28453,0
18667,364,-8260,852,-50,40,14,-13031,0,-4,0,0,37277,297,26,79,0,0,0,0,0,0,0,0,-32317,0,0,0,3837,0,28473,0
18677,396,-8210,852,-52,38,14,-13032,-4,1,0,0,37279,292,25,79,0,0,0,0,0,0,0,0,-32317,0,0,0,3837,0,28493,0
18687,342,-8246,848,-53,33,14,-13032,-9,-2,0,0,37281,288,25,79,0,0,0,0,0,0,0,0,-32318,0,0,0,3836,0,28513,0
18697,352,-8258,840,-46,35,8,-13032,-4,5,0,0,37281,281,26,79,0,0,0,0,0,0,0,0,-32317,0,0,0,3836,0,28533,0
18707,336,-8230,906,-42,34,8,-13031,0,2,0,0,37283,279,26,79,0,0,0,0,0,0,0,0,-32317,0,0,0,3836,0,28553,0
18717,346,-8260,908,-48,39,5,-13033,-9,3,1,0,37291,288,25,79,0,0,0,0,0,0,0,0,-32317,0,0,0,3837,0,28573,0
18727,368,-8230,900,-50,31,4,-13033,-4,6,0,0,37293,291,25,79,0,0,0,0,0,0,0,0,-32317,0,0,0,3837,0,28593,0
18737,386,-8230,888,-46,46,9,-13032,0,0,0,0,37291,296,26,79,0,0,0,0,0,0,0,0,-32317,0,0,0,3838,0,28613,0
18747,390,-8234,896,-54,37,10,-13033,-3,-3,0,0,37281,281,26,79,0,0,0,0,0,0,0,0,-32317,0,0,0,3838,0,28633,0
18757,404,-8224,884,-53,37,12,-13032,3,-4,0,0,37281,284,26,79,0,0,0,0,0,0,0,0,-32317,0,0,0,3836,0,28653,0
18767,396,-8214,906,-55,39,15,-13033,-2,3,2,0,37281,285,25,79,0,0,0,0,0,0,0,0,-32317,0,0,0,3837,0,28673,0
18777,424,-8222,858,-53,40,14,-13032,3,0,-1,0,37282,283,25,79,0,0,0,0,0,0,0,0,-32317,0,0,0,3838,0,28693,0
18787,388,-8220,836,-53,41,18,-13032,0,0,0,0,37280,280,26,79,0,0,0,0,0,0,0,0,-32317,0,0,0,3838,0,28713,0
18797,410,-8238,858,-47,51,22,-13031,5,2,0,0,37278,279,25,79,0,0,0,0,0,0,0,0,-32317,0,0,0,3837,0,28733,0
18807,402,-8258,872,-48,45,20,-13032,-1,-1,-1,0,37282,282,25,79,0,0,0,0,0,0,0,0,-32317,0,0,0,3838,0,28753,0
18817,386,-8234,870,-54,36,25,-13033,-2,1,1,0,37287,287,26,79,0,0,0,0,0,0,0,0,-32317,0,0,0,3836,0,28773,0
18827,338,-8250,876,-49,26,22,-13033,-2,0,-1,0,37287,290,25,79,0,0,0,0,0,0,0,0,-32317,0,0,0,3837,0,28793,0
18837,344,-8246,876,-52,37,17,-13031,5,-1,0,0,37286,293,26,79,0,0,0,0,0,0,0,0,-32317,0,0,0,3837,0,28813,0
18847,358,-8210,898,-50,37,12,-13032,0,3,0,0,37283,294,25,79,0,0,0,0,0,0,0,0,-32317,0,0,0,3837,0,28833,0
18857,374,-8234,894,-56,39,15,-13031,-3,2,0,0,37285,288,25,79,0,0,0,0,0,0,0,0,-32317,0,0,0,3837,0,28853,0
18867,394,-8234,880,-47,40,18,-13032,1,-6,0,0,37285,282,26,79,0,0,0,0,0,0,0,0,-32317,0,0,0,3837,0,28873,0
18877,394,-8252,882,-50,43,12,-13032,0,1,0,0,37284,281,25,79,0,0,0,0,0,0,0,0,-32317,0,0,0,3837,0,28893,0
18887,390,-8234,882,-52,41,12,-13031,3,-1,0,0,37284,291,26,79,0,0,0,0,0,0,0,0,-32317,0,0,0,3838,0,28913,0
18897,416,-8230,878,-55,42,19,-13031,6,2,0,0,37285,298,26,79,0,0,0,0,0,0,0,0,-32317,0,0,0,3839,0,28933,0
18907,406,-8258,876,-57,39,17,-13032,-2,-2,-1,0,37285,290,26,79,0,0,0,0,0,0,0,0,-32317,0,0,0,3837,0,28953,0
18917,378,-8214,880,-56,42,19,-13032,1,0,1,0,37290,288,26,79,0,0,0,0,0,0,0,0,-32317,0,0,0,3837,0,28973,0
18927,350,-8256,886,-50,38,15,-13032,0,-2,-1,0,37291,289,26,79,0,0,0,0,0,0,0,0,-32317,0,0,0,3839,0,28993,0
18937,404,-8232,874,-54,48,20,-13030,-4,4,0,0,37291,290,26,79,0,0,0,0,0,0,0,0,-32317,0,0,0,3837,0,29013,0
18947,386,-8234,876,-52,43,18,-13030,6,0,-1,0,37287,284,26,79,0,0,0,0,0,0,0,0,-32317,0,0,0,3838,0,29033,0
18957,376,-8232,868,-52,47,17,-13031,-4,4,-1,0,37288,285,26,79,0,0,0,0,0,0,0,0,-32317,0,0,0,3838,0,29053,0
18967,388,-8260,872,-55,40,20,-13031,3,-3,-1,0,37285,292,26,79,0,0,0,0,0,0,0,0,-32317,0,0,0,3837,0,29073,0
18977,386,-8236,854,-53,40,17,-13032,0,1,0,0,37284,296,26,79,0,0,0,0,0,0,0,0,-32317,0,0,0,3838,0,29093,0
18987,370,-8212,858,-52,41,21,-13030,1,5,-1,0,37283,294,26,79,0,0,0,0,0,0,0,0,-32317,0,0,0,3838,0,29113,0
18997,396,-8260,882,-46,40,18,-13033,-7,-5,0,0,37283,286,26,79,0,0,0,0,0,0,0,0,-32317,0,0,0,3836,0,29133,0
19007,374,-8220,892,-52,47,18,-13031,4,1,-1,0,37284,281,26,79,0,0,0,0,0,0,0,0,-32318,0,0,0,3838,0,29153,0
19017,362,-8218,914,-53,42,15,-13031,1,3,0,0,37282,281,25,79,0,0,0,0,0,0,0,0,-32317,0,0,0,3837,0,29173,0
19027,378,-8244,892,-51,44,12,-13031,-6,1,-1,0,37289,279,25,79,0,0,0,0,0,0,0,0,-32317,0,0,0,3838,0,29193,0
19037,386,-8204,860,-57,42,19,-13030,-9,1,0,0,37289,282,25,79,0,0,0,0,0,0,0,0,-32317,0,0,0,3837,0,29213,0
19047,368,-8210,860,-55,41,13,-13031,0,-2,0,0,37290,281,25,79,0,0,0,0,0,0,0,0,-32317,0,0,0,3837,0,29233,0
19057,356,-8244,862,-53,44,11,-13031,-1,0,0,0,37280,285,26,79,0,0,0,0,0,0,0,0,-32317,0,0,0,3837,0,29253,0
19067,368,-8214,854,-53,47,17,-13032,-1,-1,0,0,37280,285,25,79,0,0,0,0,0,0,0,0,-32317,0,0,0,3837,0,29273,0
19077,366,-8196,860,-46,41,13,-13033,-6,-2,-1,0,37281,284,25,79,0,0,0,0,0,0,0,0,-32317,0,0,0,3837,0,29294,0
19087,380,-8254,872,-49,37,12,-13030,1,2,0,0,37282,287,26,79,0,0,0,0,0,0,0,0,-32317,0,0,0,3836,0,29314,0
19097,362,-8234,886,-54,36,15,-13031,-6,1,0,0,37281,289,26,79,0,0,0,0,0,0,0,0,-32317,0,0,0,3837,0,29334,0
19107,376,-8226,856,-49,34,11,-13031,-2,0,0,0,37281,289,26,79,0,0,0,0,0,0,0,0,-32317,0,0,0,3837,0,29354,0
19117,340,-8240,878,-48,40,10,-13031,2,-1,0,0,37280,286,26,79,0,0,0,0,0,0,0,0,-32317,0,0,0,3838,0,29374,0
19127,354,-8212,894,-45,40,12,-13032,-5,-4,-1,0,37279,298,26,79,0,0,0,0,0,0,0,0,-32317,0,0,0,3838,0,29394,0
19137,412,-8224,854,-54,41,9,-13032,-6,-2,0,0,37280,301,26,79,0,0,0,0,0,0,0,0,-32316,0,0,0,3837,0,29415,0
19147,380,-8222,856,-54,40,10,-13030,5,0,0,0,37280,305,26,79,0,0,0,0,0,0,0,0,-32317,0,0,0,3838,0,29435,0
19157,366,-8232,854,-47,37,9,-13031,-4,2,0,0,37279,299,26,79,0,0,0,0,0,0,0,0,-32317,0,0,0,3837,0,29455,0
19167,388,-8220,860,-47,41,9,-13032,-1,-3,0,0,37277,293,26,79,0,0,0,0,0,0,0,0,-32317,0,0,0,3838,0,29476,0
19177,398,-8270,836,-43,39,9,-13032,1,-2,0,0,37277,287,26,79,0,0,0,0,0,0,0,0,-32317,0,0,0,3838,0,29495,0
19187,420,-8244,850,-40,40,9,-13032,-2,5,2,0,37277,290,26,79,0,0,0,0,0,0,0,0,-32317,0,0,0,3837,0,29516,0
19197,372,-8222,898,-44,33,14,-13031,-8,-4,0,0,37274,291,26,79,0,0,0,0,0,0,0,0,-32317,0,0,0,3838,0,29536,0
19207,380,-8266,916,-47,32,7,-13032,-4,-1,0,0,37273,289,26,79,0,0,0,0,0,0,0,0,-32317,0,0,0,3838,0,29556,0
19217,380,-8226,920,-52,37,17,-13031,-1,4,0,0,37274,281,25,79,0,0,0,0,0,0,0,0,-32317,0,0,0,3838,0,29576,0
19227,404,-8218,914,-51,35,9,-13031,-1,0,0,0,37284,279,26,79,0,0,0,0,0,0,0,0,-32317,0,0,0,3837,0,29596,0
19237,414,-8250,886,-54,39,16,-13033,-3,4,0,0,37285,278,25,79,0,0,0,0,0,0,0,0,-32317,0,0,0,3838,0,29616,0
19247,408,-8234,856,-55,43,20,-13031,3,3,0,0,37281,273,25,79,0,0,0,0,0,0,0,0,-32317,0,0,0,3838,0,29636,0
19257,430,-8192,890,-52,52,23,-13030,8,4,-1,0,37273,278,26,79,0,0,0,0,0,0,0,0,-32317,0,0,0,3838,0,29656,0
19267,412,-8252,882,-56,47,28,-13032,-2,-3,-1,0,37274,282,25,79,0,0,0,0,0,0,0,0,-32317,0,0,0,3837,0,29676,0
19277,400,-8212,876,-60,42,27,-13032,-3,1,-1,0,37275,288,25,79,0,0,0,0,0,0,0,0,-32317,0,0,0,3838,0,29696,0
19287,368,-8214,860,-52,49,27,-13030,11,-4,0,0,37276,290,26,79,0,0,0,0,0,0,0,0,-32317,0,0,0,3837,0,29716,0
19297,378,-8266,890,-61,51,31,-13032,-5,-5,-1,0,37275,290,25,79,0,0,0,0,0,0,0,0,-32317,0,0,0,3837,0,29737,0
19307,400,-8238,880,-63,53,22,-13032,5,2,-1,0,37274,286,26,79,0,0,0,0,0,0,0,0,-32317,0,0,0,3838,0,29757,0
19317,376,-8244,832,-55,41,31,-13031,0,-1,-1,0,37275,284,26,79,0,0,0,0,0,0,0,0,-32317,0,0,0,3838,0,29777,0
19327,352,-8248,852,-52,50,27,-13030,0,4,-1,0,37276,280,26,79,0,0,0,0,0,0,0,0,-32317,0,0,0,3838,0,29797,0
19337,358,-8252,854,-56,48,24,-13030,8,7,-3,0,37280,278,26,79,0,0,0,0,0,0,0,0,-32317,0,0,0,3838,0,29817,0
19347,366,-8244,868,-51,42,21,-13030,0,0,-3,0,37278,275,26,79,0,0,0,0,0,0,0,0,-32317,0,0,0,3838,0,29837,0
19357,324,-8234,868,-52,42,17,-13030,2,-2,-3,0,37277,277,26,79,0,0,0,0,0,0,0,0,-32317,0,0,0,3838,0,29857,0
19367,364,-8240,876,-50,44,19,-13029,7,3,-2,0,37275,287,26,79,0,0,0,0,0,0,0,0,-32317,0,0,0,3838,0,29877,0
19377,366,-8218,898,-52,39,13,-13028,1,-4,-4,0,37275,297,26,79,0,0,0,0,0,0,0,0,-32317,0,0,0,3837,0,29897,0
19387,360,-8224,878,-52,48,17,-13029,-2,5,-1,0,37271,292,25,79,0,0,0,0,0,0,0,0,-32317,0,0,0,3837,0,29918,0
19397,372,-8226,860,-47,47,12,-13028,0,3,-1,0,37269,288,26,79,0,0,0,0,0,0,0,0,-32317,0,0,0,3838,0,29938,0
19407,378,-8240,854,-52,42,12,-13029,5,1,-1,0,37268,279,25,79,0,0,0,0,0,0,0,0,-32317,0,0,0,3837,0,29958,0
19417,362,-8246,840,-47,40,10,-13029,-2,1,0,0,37268,278,25,79,0,0,0,0,0,0,0,0,-32317,0,0,0,3838,0,29978,0
19427,374,-8218,860,-49,39,10,-13028,3,-6,-1,0,37268,283,26,79,0,0,0,0,0,0,0,0,-32316,0,0,0,3837,0,29999,0
19437,356,-8244,856,-46,38,15,-13030,-7,0,0,0,37269,281,25,79,0,0,0,0,0,0,0,0,-32317,0,0,0,3838,0,30019,0
19447,382,-8230,838,-44,37,8,-13028,3,4,0,0,37271,287,25,79,0,0,0,0,0,0,0,0,-32317,0,0,0,3837,0,30039,0
19457,372,-8226,896,-44,31,11,-13030,-1,1,1,0,37272,289,26,79,0,0,0,0,0,0,0,0,-32317,0,0,0,3837,0,30059,0
19467,362,-8222,886,-51,29,11,-13029,-1,-3,0,0,37272,291,25,79,0,0,0,0,0,0,0,0,-32317,0,0,0,3837,0,30079,0
19477,382,-8242,884,-49,36,7,-13027,8,-5,0,0,37270,297,26,79,0,0,0,0,0,0,0,0,-32317,0,0,0,3838,0,30099,0
19487,384,-8280,902,-50,40,5,-13029,3,-1,0,0,37270,296,25,79,0,0,0,0,0,0,0,0,-32317,0,0,0,3837,0,30119,0
19497,402,-8224,892,-50,41,11,-13030,0,-1,0,0,37270,295,25,79,0,0,0,0,0,0,0,0,-32317,0,0,0,3838,0,30139,0
19507,428,-8232,900,-54,48,15,-13030,-4,-4,0,0,37270,288,26,79,0,0,0,0,0,0,0,0,-32317,0,0,0,3837,0,30159,0
19517,400,-8250,856,-52,36,13,-13029,-2,-2,0,0,37271,291,26,79,0,0,0,0,0,0,0,0,-32317,0,0,0,3838,0,30179,0
19527,388,-8236,858,-55,42,17,-13029,1,0,0,0,37273,287,26,79,0,0,0,0,0,0,0,0,-32317,0,0,0,3837,0,30199,0
19537,382,-8234,868,-48,49,20,-13029,0,-1,-1,0,37274,286,26,79,0,0,0,0,0,0,0,0,-32317,0,0,0,3838,0,30219,0
19547,392,-8270,860,-52,42,18,-13030,-6,-3,0,0,37279,284,26,79,0,0,0,0,0,0,0,0,-32317,0,0,0,3837,0,30239,0
19557,378,-8234,888,-55,41,17,-13030,-2,-2,0,0,37280,284,26,79,0,0,0,0,0,0,0,0,-32317,0,0,0,3837,0,30259,0
19567,368,-8250,876,-56,38,22,-13029,5,5,-1,0,37279,287,26,79,0,0,0,0,0,0,0,0,-32317,0,0,0,3837,0,30279,0
19577,358,-8222,876,-54,40,18,-13030,-5,-3,-1,0,37274,283,25,79,0,0,0,0,0,0,0,0,-32317,0,0,0,3838,0,30299,0
19587,340,-8250,850,-49,40,18,-13029,-4,0,0,0,37274,286,25,79,0,0,0,0,0,0,0,0,-32317,0,0,0,3838,0,30319,0
19597,364,-8224,880,-53,37,11,-13029,2,1,0,0,37277,291,26,79,0,0,0,0,0,0,0,0,-32317,0,0,0,3837,0,30339,0
19607,348,-8228,878,-53,41,12,-13029,3,-2,0,0,37275,292,26,79,0,0,0,0,0,0,0,0,-32317,0,0,0,3838,0,30359,0
19617,384,-8246,872,-50,41,14,-13028,6,6,0,0,37273,287,26,79,0,0,0,0,0,0,0,0,-32317,0,0,0,3838,0,30379,0
19627,358,-8236,894,-49,39,17,-13029,-3,3,0,0,37273,292,26,79,0,0,0,0,0,0,0,0,-32318,0,0,0,3837,0,30399,0
19637,382,-8244,896,-53,43,12,-13028,0,-3,0,0,37276,293,25,79,0,0,0,0,0,0,0,0,-32317,0,0,0,3838,0,30419,0
19647,370,-8216,876,-55,43,15,-13028,-4,-4,-2,0,37284,291,26,79,0,0,0,0,0,0,0,0,-32317,0,0,0,3838,0,30439,0
19657,380,-8204,892,-53,41,16,-13029,-2,-4,0,0,37284,281,25,79,0,0,0,0,0,0,0,0,-32317,0,0,0,3837,0,30459,0
19667,368,-8238,882,-53,44,8,-13030,-10,0,0,0,37284,273,25,79,0,0,0,0,0,0,0,0,-32317,0,0,0,3838,0,30479,0
19677,418,-8210,882,-53,43,19,-13029,-6,2,-1,0,37278,285,26,79,0,0,0,0,0,0,0,0,-32317,0,0,0,3838,0,30499,0
19687,424,-8250,866,-57,47,20,-13029,5,1,0,0,37288,284,25,79,0,0,0,0,0,0,0,0,-32317,0,0,0,3838,0,30519,0
19697,380,-8238,834,-53,43,21,-13028,2,-2,0,0,37291,283,26,79,0,0,0,0,0,0,0,0,-32317,0,0,0,3837,0,30539,0
19707,376,-8240,892,-52,35,19,-13029,0,3,0,0,37292,278,26,79,0,0,0,0,0,0,0,0,-32317,0,0,0,3838,0,30559,0
19717,364,-8220,856,-50,38,16,-13030,-2,4,-1,0,37285,282,26,79,0,0,0,0,0,0,0,0,-32317,0,0,0,3837,0,30580,0
19727,370,-8238,868,-49,35,18,-13028,3,0,0,0,37279,285,26,79,0,0,0,0,0,0,0,0,-32317,0,0,0,3838,0,30600,0
19737,366,-8232,836,-45,36,16,-13028,7,2,0,0,37279,286,26,79,0,0,0,0,0,0,0,0,-32317,0,0,0,3837,0,30620,0
19747,390,-8238,878,-51,38,18,-13028,1,0,-2,0,37277,284,26,79,0,0,0,0,0,0,0,0,-32317,0,0,0,3838,0,30640,0
19757,374,-8258,888,-51,41,16,-13028,2,3,4,0,37279,284,26,79,0,0,0,0,0,0,0,0,-32317,0,0,0,3838,0,30660,0
19767,388,-8218,912,-57,38,14,-13028,5,-1,-1,0,37282,290,26,79,0,0,0,0,0,0,0,0,-32317,0,0,0,3837,0,30680,0
19777,354,-8232,876,-56,47,16,-13029,-7,-5,0,0,37284,292,26,79,0,0,0,0,0,0,0,0,-32317,0,0,0,3838,0,30700,0
19787,348,-8216,888,-52,39,17,-13029,1,-2,-1,0,37281,296,26,79,0,0,0,0,0,0,0,0,-32317,0,0,0,3837,0,30720,0
19797,384,-8246,874,-52,41,20,-13029,1,0,-1,0,37279,294,26,79,0,0,0,0,0,0,0,0,-32317,0,0,0,3838,0,30740,0
19807,364,-8246,868,-53,44,12,-13028,3,3,0,0,37279,287,26,79,0,0,0,0,0,0,0,0,-32317,0,0,0,3837,0,30760,0
19817,364,-8242,876,-52,47,13,-13030,-7,3,0,0,37280,289,26,79,0,0,0,0,0,0,0,0,-32317,0,0,0,3838,0,30780,0
19827,356,-8244,832,-54,41,11,-13029,-9,-1,-2,0,37282,289,25,79,0,0,0,0,0,0,0,0,-32317,0,0,0,3838,0,30799,0
19837,374,-8232,876,-54,44,16,-13028,9,8,0,0,37280,286,25,79,0,0,0,0,0,0,0,0,-32317,0,0,0,3837,0,30819,0
19847,368,-8246,888,-49,36,15,-13029,-7,1,0,0,37280,287,26,79,0,0,0,0,0,0,0,0,-32317,0,0,0,3837,0,30839,0
19857,388,-8252,856,-48,35,12,-13029,-7,0,0,0,37286,286,26,79,0,0,0,0,0,0,0,0,-32317,0,0,0,3838,0,30859,0
19867,362,-8242,874,-48,36,15,-13028,2,2,-1,0,37287,286,26,79,0,0,0,0,0,0,0,0,-32317,0,0,0,3838,0,30879,0
19877,370,-8246,856,-52,35,10,-13028,-1,1,0,0,37286,286,25,79,0,0,0,0,0,0,0,0,-32317,0,0,0,3838,0,30899,0
19887,348,-8206,860,-48,30,14,-13029,1,-2,2,0,37285,291,25,79,0,0,0,0,0,0,0,0,-32317,0,0,0,3837,0,30919,0
19897,364,-8254,860,-50,32,7,-13027,4,8,0,0,37281,296,26,79,0,0,0,0,0,0,0,0,-32317,0,0,0,3838,0,30939,0
19907,360,-8240,900,-46,36,9,-13030,-1,-7,1,0,37282,289,26,79,0,0,0,0,0,0,0,0,-32317,0,0,0,3838,0,30959,0
19917,416,-8240,892,-51,39,10,-13029,-7,0,0,0,37283,284,26,79,0,0,0,0,0,0,0,0,-32318,0,0,0,3838,0,30979,0
19927,394,-8258,896,-55,38,10,-13028,0,-1,0,0,37285,290,26,79,0,0,0,0,0,0,0,0,-32317,0,0,0,3838,0,30999,0
19937,400,-8230,890,-53,35,14,-13029,3,-2,-1,0,37288,291,26,79,0,0,0,0,0,0,0,0,-32317,0,0,0,3838,0,31019,0
19947,380,-8244,864,-48,39,13,-13029,1,5,-2,0,37289,293,26,79,0,0,0,0,0,0,0,0,-32317,0,0,0,3837,0,31039,0
19957,404,-8242,878,-52,42,15,-13028,2,3,0,0,37293,289,26,79,0,0,0,0,0,0,0,0,-32317,0,0,0,3838,0,31059,0
19967,416,-8238,856,-51,46,16,-13027,12,7,0,0,37296,286,26,79,0,0,0,0,0,0,0,0,-32317,0,0,0,3838,0,31079,0
19977,386,-8230,856,-51,42,15,-13028,3,3,0,0,37295,292,26,79,0,0,0,0,0,0,0,0,-32317,0,0,0,3837,0,31099,0
19987,358,-8230,862,-50,43,16,-13027,5,4,1,0,37290,293,26,79,0,0,0,0,0,0,0,0,-32317,0,0,0,3838,0,31119,0
19997,352,-8222,884,-50,44,10,-13027,0,3,0,0,37286,287,26,79,0,0,0,0,0,0,0,0,-32317,0,0,0,3838,0,31139,0
