state_time,accelx,accely,accelz,gyrox,gyroy,gyroz,mot_ang,mot_vel,mot_acc,mot_cur,mot_volt,batt_volt,batt_curr,temperature,status_mn,status_ex,status_re,genvar_0,genvar_1,genvar_2,genvar_3,genvar_4,genvar_5,genvar_6,genvar_7,genvar_8,genvar_9,ank_ang,ank_vel,sys_time,event flags
8498,-926,-8158,558,-53,12,9,2670,-5,5,-5,0,36858,87,24,144,0,0,0,0,0,0,0,0,-32297,0,0,0,4493,0,2587,0
8508,-934,-8140,534,-51,17,2,2671,0,3,-5,0,36858,84,24,144,0,0,0,0,0,0,0,0,-32296,0,0,0,4492,0,8498,0
8518,-886,-8214,530,-52,16,-1,2670,-2,-1,-5,0,36857,85,24,144,0,0,0,0,0,0,0,0,-32296,0,0,0,4490,0,8498,0
8528,-908,-8166,564,-50,20,8,2671,-4,1,-6,0,36862,78,24,144,0,0,0,0,0,0,0,0,-32296,0,0,0,4492,0,8498,0
8538,-916,-8158,562,-48,15,6,2670,0,6,-7,0,36863,75,24,144,0,0,0,0,0,0,0,0,-32296,0,0,0,4492,0,8498,0
8548,-918,-8202,578,-48,16,5,2670,0,-3,-2,0,36861,69,24,144,0,0,0,0,0,0,0,0,-32296,0,0,0,4492,0,8498,0
8558,-918,-8172,562,-51,12,4,2670,0,3,-4,0,36856,65,24,144,0,0,0,0,0,0,0,0,-32296,0,0,0,4492,0,8498,0
8568,-876,-8166,580,-50,20,10,2671,10,1,-5,0,36858,73,24,144,0,0,0,0,0,0,0,0,-32296,0,0,0,4492,0,8498,0
8578,-880,-8198,556,-52,20,7,2670,0,0,-3,0,36860,83,24,144,0,0,0,0,0,0,0,0,-32297,0,0,0,4492,0,8498,0
8588,-890,-8168,554,-53,18,11,2670,-5,0,-5,0,36859,85,24,144,0,0,0,0,0,0,0,0,-32297,0,0,0,4491,0,8498,0
8598,-870,-8170,554,-53,12,14,2670,-1,0,-5,0,36858,86,24,144,0,0,0,0,0,0,0,0,-32296,0,0,0,4492,0,8498,0
8608,-900,-8196,588,-47,15,14,2670,-1,2,-3,0,36861,82,24,144,0,0,0,0,0,0,0,0,-32296,0,0,0,4492,0,8498,0
8618,-902,-8204,558,-55,14,12,2671,7,5,-4,0,36866,82,24,144,0,0,0,0,0,0,0,0,-32296,0,0,0,4492,0,8499,0
8628,-948,-8186,544,-53,11,16,2670,-1,4,-4,0,36865,78,24,144,0,0,0,0,0,0,0,0,-32296,0,0,0,4492,0,8509,0
8638,-936,-8204,566,-51,11,10,2670,-2,-1,-5,0,36868,79,24,144,0,0,0,0,0,0,0,0,-32296,0,0,0,4492,0,8519,0
8648,-930,-8184,562,-44,13,8,2670,-3,0,-3,0,36865,81,24,144,0,0,0,0,0,0,0,0,-32297,0,0,0,4492,0,8529,0
8658,-924,-8180,570,-47,12,10,2670,0,0,-4,0,36864,89,24,144,0,0,0,0,0,0,0,0,-32296,0,0,0,4492,0,8539,0
8668,-924,-8178,576,-56,16,11,2670,1,-2,-4,0,36857,86,24,144,0,0,0,0,0,0,0,0,-32296,0,0,0,4492,0,8549,0
8678,-932,-8202,544,-50,13,9,2670,6,3,-4,0,36859,95,24,144,0,0,0,0,0,0,0,0,-32296,0,0,0,4492,0,8559,0
8688,-894,-8192,546,-46,14,0,2670,0,-4,-6,0,36859,95,24,144,0,0,0,0,0,0,0,0,-32296,0,0,0,4492,0,8569,0
8698,-894,-8182,562,-45,16,9,2670,0,1,-3,0,36862,91,24,144,0,0,0,0,0,0,0,0,-32297,0,0,0,4492,0,8588,0
8708,-936,-8176,560,-51,17,8,2670,-4,2,-3,0,36863,83,24,144,0,0,0,0,0,0,0,0,-32296,0,0,0,4492,0,8601,0
8718,-928,-8190,538,-53,16,4,2670,-1,-2,-5,0,36860,82,24,144,0,0,0,0,0,0,0,0,-32296,0,0,0,4493,0,8611,0
8728,-896,-8168,550,-49,12,5,2671,2,1,-4,0,36858,78,24,144,0,0,0,0,0,0,0,0,-32296,0,0,0,4492,0,8621,0
8738,-904,-8174,576,-50,20,4,2670,-1,-3,-5,0,36858,79,24,144,0,0,0,0,0,0,0,0,-32297,0,0,0,4492,0,8631,0
8748,-886,-8194,528,-54,16,1,2670,7,0,-3,0,36860,73,24,144,0,0,0,0,0,0,0,0,-32296,0,0,0,4492,0,8643,0
8758,-900,-8166,558,-53,18,10,2671,5,5,-3,0,36861,73,24,144,0,0,0,0,0,0,0,0,-32296,0,0,0,4492,0,8662,0
8768,-922,-8182,572,-50,15,7,2671,-1,2,-6,0,36861,78,24,144,0,0,0,0,0,0,0,0,-32296,0,0,0,4492,0,8672,0
8778,-930,-8166,576,-53,15,7,2672,0,2,-1,0,36863,78,24,144,0,0,0,0,0,0,0,0,-32296,0,0,0,4492,0,8682,0
8788,-928,-8186,550,-51,13,9,2671,-1,-4,-5,0,36864,83,24,144,0,0,0,0,0,0,0,0,-32296,0,0,0,4492,0,8693,0
8798,-928,-8176,552,-49,13,6,2669,-2,-6,-3,0,36866,80,24,144,0,0,0,0,0,0,0,0,-32297,0,0,0,4492,0,8703,0
8808,-898,-8140,556,-47,13,5,2671,3,2,-4,0,36864,75,24,144,0,0,0,0,0,0,0,0,-32296,0,0,0,4492,0,8714,0
8818,-898,-8170,574,-49,13,10,2670,1,-8,-5,0,36866,75,24,144,0,0,0,0,0,0,0,0,-32296,0,0,0,4492,0,8724,0
8828,-926,-8202,574,-55,18,7,2670,0,-3,-4,0,36869,69,24,144,0,0,0,0,0,0,0,0,-32297,0,0,0,4492,0,8734,0
8838,-900,-8182,566,-51,19,8,2670,-1,-5,-6,0,36871,70,24,144,0,0,0,0,0,0,0,0,-32296,0,0,0,4492,0,8746,0
8848,-918,-8154,574,-50,19,11,2671,2,-1,-5,0,36868,71,24,144,0,0,0,0,0,0,0,0,-32297,0,0,0,4493,0,8756,0
8858,-908,-8208,558,-47,12,13,2670,-3,2,-2,0,36867,79,24,144,0,0,0,0,0,0,0,0,-32296,0,0,0,4492,0,8766,0
8868,-922,-8178,556,-53,16,17,2670,2,1,-4,0,36867,88,24,144,0,0,0,0,0,0,0,0,-32296,0,0,0,4493,0,8776,0
8878,-926,-8158,558,-54,15,13,2671,-3,-7,-2,0,36872,88,24,144,0,0,0,0,0,0,0,0,-32296,0,0,0,4493,0,8789,0
8888,-910,-8196,542,-49,15,11,2671,-1,0,-5,0,36866,86,24,144,0,0,0,0,0,0,0,0,-32297,0,0,0,4493,0,8799,0
8898,-930,-8198,558,-50,18,15,2670,-1,2,-5,0,36865,79,24,144,0,0,0,0,0,0,0,0,-32297,0,0,0,4492,0,8809,0
8908,-908,-8170,558,-50,11,10,2670,2,-2,-1,0,36865,83,24,144,0,0,0,0,0,0,0,0,-32296,0,0,0,4493,0,8819,0
8918,-904,-8180,556,-49,14,12,2670,-4,-1,-4,0,36866,83,24,144,0,0,0,0,0,0,0,0,-32297,0,0,0,4493,0,8832,0
8928,-920,-8184,566,-52,19,9,2670,2,-3,-6,0,36867,73,24,144,0,0,0,0,0,0,0,0,-32296,0,0,0,4493,0,8842,0
8938,-906,-8158,574,-44,15,9,2670,-3,5,-4,0,36865,69,24,144,0,0,0,0,0,0,0,0,-32296,0,0,0,4493,0,8852,0
8948,-916,-8208,540,-52,15,13,2670,0,-2,-3,0,36867,68,24,144,0,0,0,0,0,0,0,0,-32296,0,0,0,4492,0,8862,0
8958,-898,-8172,564,-52,10,11,2671,1,1,-2,0,36872,71,24,144,0,0,0,0,0,0,0,0,-32296,0,0,0,4492,0,8874,0
8968,-908,-8166,572,-50,16,12,2670,0,-1,-5,0,36872,75,24,144,0,0,0,0,0,0,0,0,-32296,0,0,0,4493,0,8884,0
8978,-922,-8210,566,-46,16,11,2671,7,7,-3,0,36875,77,24,144,0,0,0,0,0,0,0,0,-32297,0,0,0,4493,0,8894,0
8988,-916,-8164,562,-53,16,12,2671,-5,-3,-5,0,36870,75,24,144,0,0,0,0,0,0,0,0,-32296,0,0,0,4493,0,8904,0
8998,-910,-8166,538,-53,14,5,2669,-2,-1,-5,0,36869,77,24,144,0,0,0,0,0,0,0,0,-32296,0,0,0,4493,0,8917,0
9008,-936,-8206,568,-50,10,5,2670,-6,-3,-2,0,36869,77,24,144,0,0,0,0,0,0,0,0,-32297,0,0,0,4493,0,8927,0
9018,-936,-8180,576,-49,11,3,2671,3,1,-6,0,36870,86,24,144,0,0,0,0,0,0,0,0,-32296,0,0,0,4493,0,8937,0
9028,-932,-8172,558,-55,16,6,2671,3,0,-5,0,36870,88,24,144,0,0,0,0,0,0,0,0,-32297,0,0,0,4493,0,8947,0
9038,-928,-8186,564,-51,13,12,2671,0,-1,-6,0,36868,89,24,144,0,0,0,0,0,0,0,0,-32296,0,0,0,4493,0,8960,0
9048,-908,-8176,578,-57,20,4,2670,-5,4,-4,0,36866,91,24,144,0,0,0,0,0,0,0,0,-32296,0,0,0,4493,0,8970,0
9058,-930,-8184,544,-48,15,5,2670,-5,0,-2,0,36866,86,24,144,0,0,0,0,0,0,0,0,-32297,0,0,0,4493,0,8980,0
9068,-884,-8184,578,-48,16,9,2671,3,3,-5,0,36870,75,24,144,0,0,0,0,0,0,0,0,-32296,0,0,0,4492,0,8991,0
9078,-872,-8188,570,-53,13,12,2670,-4,1,-6,0,36866,68,24,144,0,0,0,0,0,0,0,0,-32296,0,0,0,4493,0,9003,0
9088,-892,-8166,534,-53,11,9,2671,4,2,-3,0,36866,77,24,144,0,0,0,0,0,0,0,0,-32296,0,0,0,4493,0,9013,0
9098,-908,-8146,536,-54,10,13,2671,2,-1,-5,0,36864,82,24,144,0,0,0,0,0,0,0,0,-32296,0,0,0,4493,0,9023,0
9108,-912,-8188,554,-48,10,18,2670,-3,2,-3,0,36865,78,24,144,0,0,0,0,0,0,0,0,-32296,0,0,0,4494,0,9037,0
9118,-928,-8176,564,-52,11,12,2670,-7,-3,-5,0,36866,77,24,144,0,0,0,0,0,0,0,0,-32296,0,0,0,4493,0,9047,0
9128,-950,-8228,566,-54,12,11,2670,-5,-5,-4,0,36864,85,24,144,0,0,0,0,0,0,0,0,-32296,0,0,0,4493,0,9057,0
9138,-930,-8170,576,-49,10,6,2671,-1,0,-5,0,36863,86,24,144,0,0,0,0,0,0,0,0,-32296,0,0,0,4494,0,9067,0
9148,-944,-8174,578,-55,20,5,2669,-8,1,-3,0,36861,78,24,144,0,0,0,0,0,0,0,0,-32296,0,0,0,4493,0,9078,0
9158,-936,-8192,562,-53,21,0,2670,-4,1,-4,0,36861,71,24,144,0,0,0,0,0,0,0,0,-32296,0,0,0,4494,0,9091,0
9168,-974,-8176,534,-55,11,-1,2671,0,-3,-4,0,36868,77,24,144,0,0,0,0,0,0,0,0,-32296,0,0,0,4494,0,9101,0
9178,-936,-8164,520,-46,16,2,2670,-1,2,-5,0,36867,82,24,144,0,0,0,0,0,0,0,0,-32296,0,0,0,4494,0,9111,0
9188,-920,-8172,544,-48,17,1,2670,0,1,-5,0,36867,82,24,144,0,0,0,0,0,0,0,0,-32296,0,0,0,4494,0,9122,0
9198,-918,-8158,544,-49,7,6,2671,4,-1,-4,0,36861,73,24,144,0,0,0,0,0,0,0,0,-32296,0,0,0,4494,0,9134,0
9208,-916,-8146,554,-51,16,1,2671,-4,2,-2,0,36861,71,24,144,0,0,0,0,0,0,0,0,-32296,0,0,0,4494,0,9144,0
9218,-892,-8162,540,-44,17,0,2670,2,-2,-5,0,36858,78,24,144,0,0,0,0,0,0,0,0,-32297,0,0,0,4493,0,9154,0
9228,-918,-8174,572,-45,19,6,2671,4,5,-5,0,36858,78,24,144,0,0,0,0,0,0,0,0,-32296,0,0,0,4494,0,9165,0
9238,-928,-8190,588,-49,16,7,2670,3,2,-2,0,36859,78,24,144,0,0,0,0,0,0,0,0,-32296,0,0,0,4493,0,9179,0
9248,-914,-8168,562,-49,9,9,2671,-1,-1,-4,0,36862,78,24,144,0,0,0,0,0,0,0,0,-32296,0,0,0,4493,0,9189,0
9258,-916,-8190,558,-53,13,4,2671,1,-4,-1,0,36860,76,24,144,0,0,0,0,0,0,0,0,-32297,0,0,0,4494,0,9199,0
9268,-892,-8192,566,-47,15,4,2670,0,2,-4,0,36860,80,24,144,0,0,0,0,0,0,0,0,-32296,0,0,0,4494,0,9211,0
9278,-910,-8196,562,-52,14,5,2670,0,1,-6,0,36859,83,24,144,0,0,0,0,0,0,0,0,-32296,0,0,0,4493,0,9223,0
9288,-922,-8180,540,-46,10,3,2670,0,-2,-3,0,36859,87,24,144,0,0,0,0,0,0,0,0,-32296,0,0,0,4494,0,9233,0
9298,-914,-8194,544,-48,13,5,2670,-2,-3,-5,0,36860,87,24,144,0,0,0,0,0,0,0,0,-32297,0,0,0,4493,0,9243,0
9308,-914,-8170,558,-47,14,4,2670,-2,0,-2,0,36857,82,24,144,0,0,0,0,0,0,0,0,-32296,0,0,0,4494,0,9253,0
9318,-924,-8194,544,-46,11,8,2670,-7,2,-4,0,36857,82,24,144,0,0,0,0,0,0,0,0,-32296,0,0,0,4493,0,9266,0
9328,-906,-8178,592,-49,12,13,2670,-8,4,-5,0,36855,79,24,144,0,0,0,0,0,0,0,0,-32297,0,0,0,4493,0,9276,0
9338,-940,-8204,562,-47,15,8,2671,6,-1,-5,0,36853,79,24,144,0,0,0,0,0,0,0,0,-32296,0,0,0,4493,0,9286,0
9348,-910,-8146,600,-47,17,7,2671,1,-6,-3,0,36853,80,24,144,0,0,0,0,0,0,0,0,-32296,0,0,0,4494,0,9298,0
9358,-914,-8188,574,-46,12,8,2670,-1,1,-1,0,36854,82,24,144,0,0,0,0,0,0,0,0,-32296,0,0,0,4494,0,9309,0
9368,-898,-8160,554,-46,14,12,2669,3,-1,-5,0,36852,75,24,144,0,0,0,0,0,0,0,0,-32296,0,0,0,4493,0,9319,0
9378,-918,-8178,532,-46,9,12,2671,0,4,-5,0,36855,84,24,144,0,0,0,0,0,0,0,0,-32297,0,0,0,4493,0,9329,0
9388,-926,-8188,580,-45,12,13,2670,2,1,-3,0,36857,89,24,144,0,0,0,0,0,0,0,0,-32296,0,0,0,4494,0,9340,0
9398,-926,-8190,578,-49,21,14,2671,2,-1,-4,0,36858,87,24,144,0,0,0,0,0,0,0,0,-32296,0,0,0,4494,0,9351,0
9408,-934,-8176,578,-46,14,14,2671,0,1,-2,0,36854,81,24,144,0,0,0,0,0,0,0,0,-32296,0,0,0,4494,0,9361,0
9418,-928,-8176,576,-46,15,14,2670,1,5,-6,0,36854,77,24,144,0,0,0,0,0,0,0,0,-32296,0,0,0,4494,0,9371,0
9428,-930,-8174,568,-48,16,14,2671,4,-2,-6,0,36855,86,24,144,0,0,0,0,0,0,0,0,-32296,0,0,0,4493,0,9384,0
9438,-952,-8210,562,-48,15,14,2670,-3,-2,-3,0,36856,85,24,144,0,0,0,0,0,0,0,0,-32296,0,0,0,4494,0,9394,0
9448,-950,-8170,584,-53,16,12,2671,3,2,-5,0,36854,81,24,144,0,0,0,0,0,0,0,0,-32297,0,0,0,4494,0,9404,0
9458,-936,-8172,576,-54,11,6,2670,-2,4,-3,0,36851,75,24,144,0,0,0,0,0,0,0,0,-32296,0,0,0,4495,0,9414,0
9468,-948,-8202,574,-50,18,6,2671,2,-1,-6,0,36855,75,24,144,0,0,0,0,0,0,0,0,-32296,0,0,0,4494,0,9426,0
9478,-954,-8186,550,-57,17,8,2671,5,3,-6,0,36867,75,24,144,0,0,0,0,0,0,0,0,-32296,0,0,0,4494,0,9437,0
9488,-928,-8174,554,-50,14,7,2671,0,1,-4,0,36872,76,24,144,0,0,0,0,0,0,0,0,-32296,0,0,0,4493,0,9447,0
9498,-910,-8176,590,-53,19,3,2669,-7,3,-4,0,36870,72,24,144,0,0,0,0,0,0,0,0,-32296,0,0,0,4493,0,9457,0
9508,-932,-8146,592,-49,15,4,2670,2,0,-2,0,36858,77,24,144,0,0,0,0,0,0,0,0,-32296,0,0,0,4494,0,9470,0
9518,-912,-8150,550,-44,13,3,2671,0,1,-6,0,36852,86,24,144,0,0,0,0,0,0,0,0,-32296,0,0,0,4493,0,9480,0
9528,-904,-8194,532,-50,13,4,2671,3,-1,-5,0,36852,91,24,144,0,0,0,0,0,0,0,0,-32296,0,0,0,4494,0,9490,0
9538,-900,-8194,540,-49,15,8,2671,3,3,-4,0,36852,85,24,144,0,0,0,0,0,0,0,0,-32296,0,0,0,4494,0,9500,0
9548,-912,-8176,564,-49,13,10,2671,0,-2,-5,0,36852,80,24,144,0,0,0,0,0,0,0,0,-32297,0,0,0,4494,0,9513,0
9558,-922,-8188,578,-46,11,10,2670,-2,-2,-3,0,36853,70,24,144,0,0,0,0,0,0,0,0,-32296,0,0,0,4494,0,9523,0
9568,-940,-8198,570,-50,13,12,2671,3,-1,-6,0,36854,63,24,144,0,0,0,0,0,0,0,0,-32296,0,0,0,4495,0,9533,0
9578,-940,-8176,578,-48,13,10,2670,-1,-5,-6,0,36855,64,24,144,0,0,0,0,0,0,0,0,-32296,0,0,0,4494,0,9543,0
9588,-936,-8194,552,-49,17,5,2671,1,2,-2,0,36864,67,24,144,0,0,0,0,0,0,0,0,-32296,0,0,0,4494,0,9556,0
9598,-936,-8188,550,-48,12,0,2670,-3,1,-4,0,36861,73,24,144,0,0,0,0,0,0,0,0,-32296,0,0,0,4494,0,9566,0
9608,-870,-8184,584,-55,13,7,2668,-10,1,-4,0,36864,72,24,144,0,0,0,0,0,0,0,0,-32296,0,0,0,4494,0,9576,0
9618,-930,-8166,580,-51,9,8,2670,2,-1,-5,0,36861,76,24,144,0,0,0,0,0,0,0,0,-32297,0,0,0,4494,0,9586,0
9628,-910,-8188,546,-56,13,10,2671,3,0,-5,0,36861,73,24,144,0,0,0,0,0,0,0,0,-32296,0,0,0,4494,0,9599,0
9638,-922,-8192,550,-46,12,5,2670,-5,1,-4,0,36858,75,24,144,0,0,0,0,0,0,0,0,-32296,0,0,0,4494,0,9609,0
9648,-918,-8178,576,-53,14,10,2671,3,-2,-3,0,36856,70,24,144,0,0,0,0,0,0,0,0,-32296,0,0,0,4495,0,9619,0
9658,-928,-8188,562,-54,13,10,2671,2,-1,-4,0,36857,80,24,144,0,0,0,0,0,0,0,0,-32296,0,0,0,4494,0,9629,0
9668,-924,-8180,554,-51,17,2,2670,-2,-1,-3,0,36858,81,24,144,0,0,0,0,0,0,0,0,-32296,0,0,0,4494,0,9642,0
9678,-922,-8180,578,-55,14,7,2671,-1,-5,-5,0,36855,85,24,144,0,0,0,0,0,0,0,0,-32296,0,0,0,4494,0,9652,0
9688,-920,-8182,556,-50,14,7,2670,4,-2,-3,0,36858,90,24,144,0,0,0,0,0,0,0,0,-32296,0,0,0,4494,0,9662,0
9698,-898,-8166,564,-54,16,10,2671,7,2,-5,0,36860,82,24,144,0,0,0,0,0,0,0,0,-32296,0,0,0,4494,0,9672,0
9708,-930,-8196,568,-50,12,6,2670,-1,0,-3,0,36861,79,24,144,0,0,0,0,0,0,0,0,-32296,0,0,0,4494,0,9685,0
9718,-928,-8186,576,-54,15,7,2670,-4,0,-5,0,36857,77,24,144,0,0,0,0,0,0,0,0,-32296,0,0,0,4494,0,9695,0
9728,-934,-8192,586,-57,11,3,2670,0,0,-6,0,36857,81,24,144,0,0,0,0,0,0,0,0,-32296,0,0,0,4495,0,9705,0
9738,-940,-8176,552,-57,15,6,2669,-1,-1,-4,0,36858,85,24,144,0,0,0,0,0,0,0,0,-32296,0,0,0,4493,0,9715,0
9748,-904,-8198,540,-54,14,0,2671,-1,2,-3,0,36859,80,24,144,0,0,0,0,0,0,0,0,-32296,0,0,0,4494,0,9729,0
9758,-924,-8184,538,-52,15,7,2671,-3,2,-4,0,36861,71,24,144,0,0,0,0,0,0,0,0,-32296,0,0,0,4494,0,9739,0
9768,-894,-8182,560,-51,18,9,2671,3,3,-4,0,36860,74,24,144,0,0,0,0,0,0,0,0,-32296,0,0,0,4494,0,9749,0
9778,-912,-8186,540,-52,16,6,2669,-5,0,-3,0,36860,75,24,144,0,0,0,0,0,0,0,0,-32296,0,0,0,4493,0,9759,0
9788,-912,-8162,546,-44,19,8,2670,-1,-1,-2,0,36866,86,24,144,0,0,0,0,0,0,0,0,-32296,0,0,0,4494,0,9772,0
9798,-916,-8170,570,-47,17,12,2670,4,-1,-4,0,36866,96,24,144,0,0,0,0,0,0,0,0,-32296,0,0,0,4495,0,9782,0
9808,-914,-8188,582,-44,13,8,2670,0,0,-4,0,36867,93,24,144,0,0,0,0,0,0,0,0,-32296,0,0,0,4494,0,9792,0
9818,-944,-8170,590,-48,17,8,2671,5,-2,-6,0,36865,91,24,144,0,0,0,0,0,0,0,0,-32296,0,0,0,4493,0,9802,0
9828,-932,-8174,552,-51,13,9,2671,3,-2,-5,0,36866,82,24,144,0,0,0,0,0,0,0,0,-32296,0,0,0,4494,0,9815,0
9838,-948,-8208,558,-45,13,9,2671,8,-3,-1,0,36867,84,24,144,0,0,0,0,0,0,0,0,-32296,0,0,0,4494,0,9825,0
9848,-926,-8184,572,-51,17,5,2671,0,-3,-5,0,36865,82,24,144,0,0,0,0,0,0,0,0,-32296,0,0,0,4494,0,9835,0
9858,-940,-8164,580,-53,19,8,2669,-1,2,-5,0,36861,81,24,144,0,0,0,0,0,0,0,0,-32296,0,0,0,4494,0,9845,0
9868,-950,-8198,548,-53,14,7,2670,-8,1,-3,0,36860,72,24,144,0,0,0,0,0,0,0,0,-32296,0,0,0,4493,0,9859,0
9878,-936,-8170,542,-46,12,6,2671,7,2,-5,0,36862,81,24,144,0,0,0,0,0,0,0,0,-32296,0,0,0,4494,0,9869,0
9888,-956,-8196,580,-47,16,7,2670,1,3,-3,0,36862,77,24,144,0,0,0,0,0,0,0,0,-32296,0,0,0,4494,0,9879,0
9898,-926,-8184,568,-46,20,4,2671,0,1,-3,0,36865,77,24,144,0,0,0,0,0,0,0,0,-32296,0,0,0,4494,0,9889,0
9908,-940,-8164,586,-49,17,10,2671,3,-2,-4,0,36868,79,24,144,0,0,0,0,0,0,0,0,-32296,0,0,0,4494,0,9901,0
9918,-898,-8162,570,-49,13,-1,2671,4,0,-3,0,36869,88,24,144,0,0,0,0,0,0,0,0,-32296,0,0,0,4494,0,9911,0
9928,-928,-8192,580,-51,17,6,2671,3,-2,-5,0,36863,89,24,144,0,0,0,0,0,0,0,0,-32296,0,0,0,4493,0,9922,0
9938,-926,-8170,562,-48,13,7,2670,-4,1,-2,0,36862,94,24,144,0,0,0,0,0,0,0,0,-32296,0,0,0,4494,0,9931,0
9948,-938,-8152,540,-52,15,2,2670,0,4,-4,0,36863,83,24,144,0,0,0,0,0,0,0,0,-32297,0,0,0,4494,0,9944,0
9958,-912,-8178,562,-45,14,7,2671,-1,-1,-2,0,36865,83,24,144,0,0,0,0,0,0,0,0,-32296,0,0,0,4493,0,9955,0
9968,-908,-8176,588,-46,21,6,2670,0,4,-5,0,36867,88,24,144,0,0,0,0,0,0,0,0,-32296,0,0,0,4494,0,9965,0
9978,-900,-8164,586,-51,17,5,2671,1,-1,-4,0,36865,88,24,144,0,0,0,0,0,0,0,0,-32296,0,0,0,4494,0,9975,0
9988,-860,-8174,558,-52,19,12,2671,1,1,-4,0,36864,84,24,144,0,0,0,0,0,0,0,0,-32296,0,0,0,4494,0,9988,0
9998,-896,-8176,560,-53,13,14,2671,5,1,-5,0,36870,78,24,144,0,0,0,0,0,0,0,0,-32296,0,0,0,4494,0,9998,0
10008,-914,-8198,558,-52,17,14,2670,0,-1,-5,0,36870,68,24,144,0,0,0,0,0,0,0,0,-32296,0,0,0,4494,0,10008,0
10018,-914,-8162,572,-49,18,14,2670,3,0,-1,0,36872,72,24,144,0,0,0,0,0,0,0,0,-32296,0,0,0,4494,0,10018,0
10028,-952,-8162,548,-53,15,19,2671,2,-1,-5,0,36869,80,24,144,0,0,0,0,0,0,0,0,-32296,0,0,0,4494,0,10031,0
10038,-926,-8166,566,-50,19,25,2671,0,-3,-5,0,36866,90,24,144,0,0,0,0,0,0,0,0,-32296,0,0,0,4494,0,10041,0
10048,-940,-8172,548,-45,10,17,2671,7,4,-2,0,36864,86,24,144,0,0,0,0,0,0,0,0,-32296,0,0,0,4494,0,10051,0
10058,-944,-8182,560,-49,16,15,2671,5,4,-3,0,36862,90,24,144,0,0,0,0,0,0,0,0,-32296,0,0,0,4494,0,10061,0
10068,-940,-8178,568,-59,22,13,2671,-2,0,-3,0,36863,86,24,144,0,0,0,0,0,0,0,0,-32296,0,0,0,4495,0,10075,0
10078,-932,-8164,568,-57,16,5,2670,0,-2,-4,0,36863,91,24,144,0,0,0,0,0,0,0,0,-32296,0,0,0,4494,0,10085,0
10088,-934,-8188,548,-49,12,12,2670,-2,2,-4,0,36861,87,24,144,0,0,0,0,0,0,0,0,-32296,0,0,0,4494,0,10095,0
10098,-942,-8186,568,-52,14,9,2671,4,3,-5,0,36867,93,24,144,0,0,0,0,0,0,0,0,-32296,0,0,0,4494,0,10105,0
10108,-930,-8168,568,-52,14,10,2671,3,0,-4,0,36869,90,24,144,0,0,0,0,0,0,0,0,-32296,0,0,0,4494,0,10118,0
10118,-918,-8176,580,-51,11,6,2671,-2,-3,-3,0,36869,84,24,144,0,0,0,0,0,0,0,0,-32296,0,0,0,4494,0,10128,0
10128,-910,-8162,556,-52,16,5,2670,0,0,-6,0,36861,79,24,144,0,0,0,0,0,0,0,0,-32296,0,0,0,4494,0,10138,0
10138,-922,-8172,544,-52,11,6,2670,-4,-1,-5,0,36857,79,24,144,0,0,0,0,0,0,0,0,-32296,0,0,0,4495,0,10148,0
10148,-934,-8160,566,-56,12,11,2669,-4,2,-3,0,36857,79,24,144,0,0,0,0,0,0,0,0,-32296,0,0,0,4494,0,10162,0
10158,-924,-8184,564,-58,20,10,2670,0,-4,-3,0,36858,83,24,144,0,0,0,0,0,0,0,0,-32297,0,0,0,4494,0,10172,0
10168,-908,-8156,582,-51,12,2,2670,0,-1,-4,0,36860,81,24,144,0,0,0,0,0,0,0,0,-32297,0,0,0,4494,0,10182,0
10178,-922,-8192,550,-45,17,15,2670,-1,4,-6,0,36858,90,24,144,0,0,0,0,0,0,0,0,-32297,0,0,0,4494,0,10192,0
10188,-924,-8168,556,-51,12,19,2668,-13,0,-4,0,36857,95,24,144,0,0,0,0,0,0,0,0,-32297,0,0,0,4494,0,10202,0
10198,-944,-8184,556,-48,17,18,2670,-3,-2,-2,0,36855,88,24,144,0,0,0,0,0,0,0,0,-32296,0,0,0,4495,0,10215,0
10208,-928,-8180,566,-50,13,19,2671,-4,-1,-4,0,36858,80,24,144,0,0,0,0,0,0,0,0,-32296,0,0,0,4494,0,10225,0
10218,-922,-8156,550,-45,15,22,2670,0,-1,-2,0,36860,80,24,144,0,0,0,0,0,0,0,0,-32296,0,0,0,4494,0,10235,0
10228,-916,-8198,592,-53,10,20,2670,-2,0,-5,0,36860,77,24,144,0,0,0,0,0,0,0,0,-32297,0,0,0,4494,0,10248,0
10238,-902,-8186,568,-56,18,23,2671,3,-2,-5,0,36860,87,24,144,0,0,0,0,0,0,0,0,-32296,0,0,0,4495,0,10259,0
10248,-940,-8178,546,-53,14,23,2670,-3,1,-3,0,36859,87,24,144,0,0,0,0,0,0,0,0,-32296,0,0,0,4495,0,10269,0
10258,-932,-8170,554,-52,11,24,2670,-2,-1,-3,0,36859,80,24,144,0,0,0,0,0,0,0,0,-32296,0,0,0,4494,0,10279,0
10268,-908,-8180,568,-50,9,27,2670,2,-1,-4,0,36857,81,24,144,0,0,0,0,0,0,0,0,-32296,0,0,0,4495,0,10291,0
10278,-990,-8150,548,-53,14,21,2671,4,1,-6,0,36856,75,24,144,0,0,0,0,0,0,0,0,-32296,0,0,0,4496,0,10302,0
10288,-966,-8164,552,-49,14,17,2669,-3,-1,-5,0,36855,80,24,144,0,0,0,0,0,0,0,0,-32296,0,0,0,4496,0,10312,0
10298,-950,-8164,558,-48,16,15,2671,4,-2,-1,0,36855,80,24,144,0,0,0,0,0,0,0,0,-32296,0,0,0,4496,0,10322,0
10308,-966,-8180,582,-50,23,19,2671,2,-3,-3,0,36858,84,24,144,0,0,0,0,0,0,0,0,-32296,0,0,0,4496,0,10335,0
10318,-922,-8188,586,-52,14,20,2669,0,-1,-4,0,36857,92,24,144,0,0,0,0,0,0,0,0,-32296,0,0,0,4497,0,10345,0
10328,-900,-8186,578,-52,14,19,2671,0,-2,-5,0,36857,94,24,144,0,0,0,0,0,0,0,0,-32296,0,0,0,4497,0,10355,0
10338,-954,-8170,578,-51,14,15,2670,0,-2,-5,0,36854,86,24,144,0,0,0,0,0,0,0,0,-32296,0,0,0,4497,0,10365,0
10348,-998,-8162,556,-50,13,13,2671,-3,1,-2,0,36856,80,24,144,0,0,0,0,0,0,0,0,-32296,0,0,0,4497,0,10378,0
10358,-1034,-8170,578,-56,17,6,2671,0,-1,-4,0,36856,82,24,144,0,0,0,0,0,0,0,0,-32296,0,0,0,4497,0,10389,0
10368,-960,-8200,552,-48,21,8,2670,-3,4,-4,0,36853,83,24,144,0,0,0,0,0,0,0,0,-32296,0,0,0,4497,0,10399,0
10378,-930,-8160,532,-51,18,0,2671,-4,-4,-3,0,36851,77,24,144,0,0,0,0,0,0,0,0,-32296,0,0,0,4497,0,10409,0
10388,-902,-8192,548,-50,14,4,2671,-1,1,-5,0,36852,74,24,144,0,0,0,0,0,0,0,0,-32296,0,0,0,4497,0,10420,0
10398,-924,-8172,576,-52,13,3,2671,1,3,-2,0,36854,73,24,144,0,0,0,0,0,0,0,0,-32297,0,0,0,4497,0,10432,0
10408,-898,-8164,554,-56,14,10,2670,1,0,-2,0,36856,68,24,144,0,0,0,0,0,0,0,0,-32296,0,0,0,4497,0,10442,0
10418,-872,-8208,542,-51,14,12,2671,1,-2,-6,0,36858,63,24,144,0,0,0,0,0,0,0,0,-32296,0,0,0,4497,0,10452,0
10428,-932,-8194,578,-50,15,16,2669,-3,-1,-4,0,36860,69,24,144,0,0,0,0,0,0,0,0,-32296,0,0,0,4497,0,10462,0
10438,-938,-8136,574,-51,15,25,2671,0,0,-4,0,36858,80,24,144,0,0,0,0,0,0,0,0,-32296,0,0,0,4497,0,10475,0
10448,-960,-8216,560,-48,13,27,2671,10,1,-3,0,36852,90,24,144,0,0,0,0,0,0,0,0,-32296,0,0,0,4497,0,10485,0
10458,-938,-8180,562,-50,16,18,2670,-6,4,-5,0,36851,87,24,144,0,0,0,0,0,0,0,0,-32296,0,0,0,4497,0,10495,0
10468,-988,-8168,558,-49,11,8,2672,5,1,-3,0,36852,91,24,144,0,0,0,0,0,0,0,0,-32296,0,0,0,4498,0,10505,0
10478,-958,-8194,560,-42,14,13,2669,-6,-2,-4,0,36852,89,24,144,0,0,0,0,0,0,0,0,-32296,0,0,0,4499,0,10519,0
10488,-958,-8178,546,-53,17,8,2671,-2,2,-5,0,36852,85,24,144,0,0,0,0,0,0,0,0,-32296,0,0,0,4497,0,10528,0
10498,-894,-8178,556,-49,15,11,2670,-6,2,-3,0,36852,83,24,144,0,0,0,0,0,0,0,0,-32296,0,0,0,4498,0,10539,0
10508,-888,-8172,560,-47,14,16,2671,4,3,-4,0,36853,77,24,144,0,0,0,0,0,0,0,0,-32296,0,0,0,4499,0,10550,0
10518,-908,-8198,598,-44,16,15,2671,0,0,-4,0,36860,76,24,144,0,0,0,0,0,0,0,0,-32296,0,0,0,4498,0,10561,0
10528,-920,-8184,564,-52,17,20,2670,1,1,-4,0,36857,75,24,144,0,0,0,0,0,0,0,0,-32296,0,0,0,4498,0,10571,0
10538,-930,-8166,548,-50,14,17,2671,0,1,-4,0,36857,84,24,144,0,0,0,0,0,0,0,0,-32296,0,0,0,4499,0,10581,0
10548,-964,-8170,556,-42,20,16,2670,2,2,-2,0,36852,87,24,144,0,0,0,0,0,0,0,0,-32296,0,0,0,4499,0,10591,0
10558,-930,-8190,548,-47,11,14,2670,7,-2,-4,0,36850,80,24,144,0,0,0,0,0,0,0,0,-32296,0,0,0,4499,0,10601,0
10568,-946,-8166,574,-53,18,12,2670,-5,1,-4,0,36851,75,24,144,0,0,0,0,0,0,0,0,-32296,0,0,0,4499,0,10614,0
10578,-944,-8170,564,-49,13,11,2670,2,-2,-3,0,36853,82,24,144,0,0,0,0,0,0,0,0,-32296,0,0,0,4498,0,10624,0
10588,-952,-8182,564,-44,10,6,2670,0,2,-3,0,36854,83,24,144,0,0,0,0,0,0,0,0,-32296,0,0,0,4499,0,10634,0
10598,-962,-8180,588,-49,12,8,2671,3,-1,-5,0,36853,74,24,144,0,0,0,0,0,0,0,0,-32296,0,0,0,4499,0,10644,0
10608,-966,-8202,582,-56,12,3,2671,0,-1,-4,0,36854,78,24,144,0,0,0,0,0,0,0,0,-32296,0,0,0,4499,0,10657,0
10618,-944,-8166,566,-50,14,3,2670,0,4,-5,0,36860,83,24,144,0,0,0,0,0,0,0,0,-32296,0,0,0,4498,0,10667,0
10628,-962,-8180,556,-49,13,1,2671,-1,-6,-4,0,36865,93,24,144,0,0,0,0,0,0,0,0,-32296,0,0,0,4499,0,10677,0
10638,-918,-8182,582,-45,15,3,2670,1,1,-4,0,36863,86,24,144,0,0,0,0,0,0,0,0,-32296,0,0,0,4499,0,10687,0
10648,-912,-8186,570,-51,14,5,2670,0,1,-2,0,36858,75,24,144,0,0,0,0,0,0,0,0,-32296,0,0,0,4500,0,10700,0
10658,-910,-8162,576,-45,16,7,2670,4,1,-5,0,36853,83,24,144,0,0,0,0,0,0,0,0,-32296,0,0,0,4498,0,10710,0
10668,-934,-8172,578,-50,10,13,2670,-2,-4,-5,0,36856,86,24,144,0,0,0,0,0,0,0,0,-32296,0,0,0,4499,0,10720,0
10678,-940,-8182,584,-47,9,12,2670,1,1,-3,0,36855,93,24,144,0,0,0,0,0,0,0,0,-32296,0,0,0,4498,0,10730,0
10688,-950,-8162,558,-58,15,11,2671,3,1,-4,0,36852,92,24,144,0,0,0,0,0,0,0,0,-32296,0,0,0,4500,0,10744,0
10698,-918,-8202,554,-57,13,19,2671,2,3,-3,0,36853,86,24,144,0,0,0,0,0,0,0,0,-32296,0,0,0,4500,0,10754,0
10708,-940,-8160,548,-54,19,13,2671,9,2,-5,0,36856,77,24,144,0,0,0,0,0,0,0,0,-32296,0,0,0,4499,0,10764,0
10718,-966,-8198,588,-48,17,9,2670,2,1,-5,0,36858,75,24,144,0,0,0,0,0,0,0,0,-32296,0,0,0,4499,0,10774,0
10728,-952,-8192,572,-45,13,9,2671,3,2,-4,0,36864,65,24,144,0,0,0,0,0,0,0,0,-32296,0,0,0,4498,0,10789,0
10738,-934,-8182,570,-46,20,15,2670,-2,-2,-2,0,36861,72,24,144,0,0,0,0,0,0,0,0,-32296,0,0,0,4500,0,10799,0
10748,-928,-8164,542,-46,18,10,2671,5,-2,-4,0,36866,72,24,144,0,0,0,0,0,0,0,0,-32296,0,0,0,4500,0,10810,0
10758,-936,-8190,564,-47,15,15,2670,-7,-1,-3,0,36873,87,24,144,0,0,0,0,0,0,0,0,-32296,0,0,0,4499,0,10821,0
10768,-960,-8162,580,-50,12,5,2670,-4,-3,-5,0,36887,87,24,144,0,0,0,0,0,0,0,0,-32296,0,0,0,4500,0,10831,0
10778,-952,-8146,564,-49,12,9,2670,-2,-1,-4,0,36886,88,24,144,0,0,0,0,0,0,0,0,-32296,0,0,0,4499,0,10841,0
10788,-972,-8178,552,-51,14,6,2671,3,0,-5,0,36872,83,24,144,0,0,0,0,0,0,0,0,-32296,0,0,0,4500,0,10851,0
10798,-952,-8206,572,-47,9,7,2671,6,-2,-2,0,36863,78,24,144,0,0,0,0,0,0,0,0,-32296,0,0,0,4500,0,10861,0
10808,-952,-8176,554,-49,10,5,2670,-1,0,-4,0,36862,85,24,144,0,0,0,0,0,0,0,0,-32296,0,0,0,4499,0,10871,0
10818,-958,-8176,578,-51,19,4,2670,1,2,-5,0,36862,80,24,144,0,0,0,0,0,0,0,0,-32296,0,0,0,4500,0,10881,0
10828,-936,-8176,576,-51,16,5,2672,4,-3,-2,0,36861,89,24,144,0,0,0,0,0,0,0,0,-32296,0,0,0,4500,0,10891,0
10838,-924,-8152,560,-45,14,11,2669,-5,4,-4,0,36866,91,24,144,0,0,0,0,0,0,0,0,-32296,0,0,0,4500,0,10901,0
10848,-932,-8184,546,-49,17,8,2671,3,4,-2,0,36866,94,24,144,0,0,0,0,0,0,0,0,-32296,0,0,0,4500,0,10911,0
10858,-952,-8176,552,-47,12,7,2670,2,-1,-4,0,36865,85,24,144,0,0,0,0,0,0,0,0,-32296,0,0,0,4500,0,10922,0
10868,-912,-8190,564,-46,8,9,2670,1,0,-6,0,36859,84,24,144,0,0,0,0,0,0,0,0,-32296,0,0,0,4500,0,10931,0
10878,-952,-8160,576,-48,12,7,2669,-2,1,-4,0,36861,99,24,144,0,0,0,0,0,0,0,0,-32296,0,0,0,4500,0,10941,0
10888,-944,-8190,588,-51,19,10,2671,-4,-4,-3,0,36863,103,24,144,0,0,0,0,0,0,0,0,-32296,0,0,0,4500,0,10951,0
10898,-938,-8168,568,-49,12,10,2671,-1,1,-2,0,36861,92,24,144,0,0,0,0,0,0,0,0,-32296,0,0,0,4500,0,10961,0
10908,-950,-8196,542,-50,15,14,2671,6,3,-1,0,36861,83,24,144,0,0,0,0,0,0,0,0,-32296,0,0,0,4500,0,10972,0
10918,-946,-8182,540,-51,13,15,2670,-3,-3,-2,0,36864,81,24,144,0,0,0,0,0,0,0,0,-32296,0,0,0,4500,0,10982,0
10928,-936,-8186,552,-45,15,14,2670,7,-2,-3,0,36865,83,24,144,0,0,0,0,0,0,0,0,-32296,0,0,0,4500,0,10992,0
10938,-932,-8180,538,-50,18,11,2670,1,2,-5,0,36866,83,24,144,0,0,0,0,0,0,0,0,-32296,0,0,0,4500,0,11002,0
10948,-976,-8200,582,-50,13,12,2671,3,-1,0,0,36869,75,24,144,0,0,0,0,0,0,0,0,-32296,0,0,0,4500,0,11012,0
10958,-968,-8170,586,-45,14,10,2669,-11,0,-5,0,36870,78,24,144,0,0,0,0,0,0,0,0,-32296,0,0,0,4500,0,11022,0
10968,-964,-8160,582,-45,12,2,2670,-2,-1,-6,0,36873,85,24,144,0,0,0,0,0,0,0,0,-32296,0,0,0,4499,0,11032,0
10978,-952,-8194,584,-48,16,4,2671,0,4,-5,0,36866,90,24,144,0,0,0,0,0,0,0,0,-32296,0,0,0,4498,0,11042,0
10988,-972,-8158,556,-48,12,4,2670,1,-1,-6,0,36866,88,24,144,0,0,0,0,0,0,0,0,-32296,0,0,0,4500,0,11052,0
10998,-940,-8180,548,-46,11,-7,2670,3,1,-6,0,36865,84,24,144,0,0,0,0,0,0,0,0,-32296,0,0,0,4500,0,11062,0
11008,-950,-8168,578,-52,12,-4,2670,-3,1,-4,0,36864,76,24,144,0,0,0,0,0,0,0,0,-32296,0,0,0,4500,0,11072,0
11018,-934,-8174,568,-48,16,-2,2671,-3,-4,-6,0,36867,77,24,144,0,0,0,0,0,0,0,0,-32296,0,0,0,4500,0,11082,0
11028,-942,-8174,580,-49,10,-3,2671,8,0,-4,0,36866,86,24,144,0,0,0,0,0,0,0,0,-32296,0,0,0,4499,0,11092,0
11038,-914,-8188,566,-46,13,0,2671,4,0,-6,0,36864,87,24,144,0,0,0,0,0,0,0,0,-32296,0,0,0,4499,0,11102,0
11048,-924,-8188,576,-50,12,5,2670,4,2,-2,0,36868,77,24,144,0,0,0,0,0,0,0,0,-32296,0,0,0,4499,0,11112,0
11058,-948,-8138,592,-57,12,5,2670,2,0,-4,0,36870,78,24,144,0,0,0,0,0,0,0,0,-32296,0,0,0,4500,0,11122,0
11068,-924,-8190,596,-57,12,6,2670,3,-1,-3,0,36871,81,24,144,0,0,0,0,0,0,0,0,-32296,0,0,0,4500,0,11132,0
11078,-942,-8194,550,-56,11,4,2671,0,1,-5,0,36863,79,24,144,0,0,0,0,0,0,0,0,-32296,0,0,0,4500,0,11142,0
11088,-908,-8158,550,-53,18,2,2670,0,3,-4,0,36860,71,24,144,0,0,0,0,0,0,0,0,-32296,0,0,0,4499,0,11152,0
11098,-924,-8190,558,-50,10,8,2670,-1,2,-1,0,36860,72,24,144,0,0,0,0,0,0,0,0,-32296,0,0,0,4499,0,11162,0
11108,-942,-8158,556,-56,9,6,2671,1,-3,-4,0,36860,80,24,144,0,0,0,0,0,0,0,0,-32296,0,0,0,4500,0,11172,0
11118,-918,-8140,566,-50,18,6,2670,1,1,-5,0,36861,84,24,144,0,0,0,0,0,0,0,0,-32296,0,0,0,4500,0,11182,0
11128,-926,-8204,572,-53,12,10,2670,-1,1,-3,0,36861,83,24,144,0,0,0,0,0,0,0,0,-32296,0,0,0,4500,0,11192,0
11138,-954,-8172,576,-53,10,3,2670,0,-3,-5,0,36861,86,24,144,0,0,0,0,0,0,0,0,-32296,0,0,0,4500,0,11202,0
11148,-958,-8148,562,-52,14,7,2671,8,2,0,0,36863,95,24,144,0,0,0,0,0,0,0,0,-32296,0,0,0,4499,0,11212,0
11158,-946,-8194,566,-57,19,10,2670,0,4,-4,0,36861,87,24,144,0,0,0,0,0,0,0,0,-32297,0,0,0,4498,0,11222,0
11168,-952,-8160,552,-51,19,10,2671,1,3,-4,0,36862,85,24,144,0,0,0,0,0,0,0,0,-32296,0,0,0,4499,0,11232,0
11178,-904,-8146,574,-46,15,12,2669,-1,1,-5,0,36861,91,24,144,0,0,0,0,0,0,0,0,-32296,0,0,0,4499,0,11242,0
11188,-910,-8192,550,-52,16,8,2670,-4,1,-3,0,36857,79,24,144,0,0,0,0,0,0,0,0,-32296,0,0,0,4500,0,11252,0
11198,-926,-8194,568,-56,16,12,2671,-1,1,-3,0,36857,72,24,144,0,0,0,0,0,0,0,0,-32296,0,0,0,4500,0,11262,0
11208,-926,-8164,592,-48,16,16,2670,1,1,-3,0,36858,70,24,144,0,0,0,0,0,0,0,0,-32296,0,0,0,4500,0,11272,0
11218,-960,-8182,578,-48,22,9,2670,-3,1,-4,0,36861,72,24,144,0,0,0,0,0,0,0,0,-32296,0,0,0,4500,0,11282,0
11228,-956,-8182,578,-54,12,12,2670,-1,1,-4,0,36856,74,24,144,0,0,0,0,0,0,0,0,-32296,0,0,0,4500,0,11292,0
11238,-958,-8166,568,-56,11,11,2671,2,1,-5,0,36853,72,24,144,0,0,0,0,0,0,0,0,-32296,0,0,0,4499,0,11302,0
11248,-960,-8192,560,-53,17,5,2671,0,-1,0,0,36855,77,24,144,0,0,0,0,0,0,0,0,-32296,0,0,0,4500,0,11312,0
11258,-950,-8178,594,-49,11,11,2670,-1,4,-4,0,36859,81,24,144,0,0,0,0,0,0,0,0,-32296,0,0,0,4500,0,11322,0
11268,-948,-8168,548,-52,16,9,2671,5,-1,-4,0,36861,84,24,144,0,0,0,0,0,0,0,0,-32296,0,0,0,4500,0,11332,0
11278,-920,-8176,538,-48,11,10,2671,1,0,-2,0,36860,86,24,144,0,0,0,0,0,0,0,0,-32296,0,0,0,4500,0,11342,0
11288,-946,-8178,540,-50,12,6,2670,-3,-1,-4,0,36852,86,24,144,0,0,0,0,0,0,0,0,-32296,0,0,0,4500,0,11352,0
11298,-962,-8154,586,-44,14,10,2671,1,-3,-2,0,36853,82,24,144,0,0,0,0,0,0,0,0,-32296,0,0,0,4500,0,11362,0
11308,-950,-8184,566,-52,13,3,2671,0,-2,-3,0,36855,80,24,144,0,0,0,0,0,0,0,0,-32296,0,0,0,4500,0,11372,0
11318,-980,-8168,578,-55,19,6,2670,-6,2,-5,0,36854,72,24,144,0,0,0,0,0,0,0,0,-32296,0,0,0,4500,0,11382,0
11328,-926,-8180,580,-52,11,4,2671,-1,-1,-5,0,36852,80,24,144,0,0,0,0,0,0,0,0,-32296,0,0,0,4499,0,11392,0
11338,-934,-8168,576,-53,19,11,2672,5,-5,-5,0,36849,73,24,144,0,0,0,0,0,0,0,0,-32296,0,0,0,4501,0,11402,0
11348,-932,-8182,598,-55,13,11,2671,3,3,-2,0,36849,70,24,144,0,0,0,0,0,0,0,0,-32296,0,0,0,4499,0,11412,0
11358,-970,-8166,582,-55,11,14,2670,-5,4,-4,0,36858,71,24,144,0,0,0,0,0,0,0,0,-32296,0,0,0,4500,0,11422,0
11368,-946,-8198,534,-50,21,12,2671,1,-5,-5,0,36859,79,24,144,0,0,0,0,0,0,0,0,-32296,0,0,0,4500,0,11432,0
11378,-874,-8168,568,-48,14,13,2670,1,-4,-5,0,36857,81,24,144,0,0,0,0,0,0,0,0,-32296,0,0,0,4500,0,11442,0
11388,-888,-8166,576,-47,8,22,2670,-1,-1,-4,0,36850,88,24,144,0,0,0,0,0,0,0,0,-32296,0,0,0,4500,0,11452,0
11398,-902,-8182,596,-55,13,31,2671,3,3,-3,0,36852,82,24,144,0,0,0,0,0,0,0,0,-32296,0,0,0,4501,0,11462,0
11408,-948,-8156,572,-55,9,31,2671,2,2,-3,0,36854,83,24,144,0,0,0,0,0,0,0,0,-32296,0,0,0,4501,0,11472,0
11418,-986,-8158,550,-55,12,24,2671,-1,2,-3,0,36853,87,24,144,0,0,0,0,0,0,0,0,-32296,0,0,0,4500,0,11482,0
11428,-986,-8198,594,-60,15,22,2671,3,-3,-3,0,36850,97,24,144,0,0,0,0,0,0,0,0,-32296,0,0,0,4501,0,11495,0
11438,-982,-8160,560,-54,16,20,2670,4,1,-4,0,36848,91,24,144,0,0,0,0,0,0,0,0,-32296,0,0,0,4501,0,11505,0
11448,-982,-8154,532,-53,15,16,2670,4,0,-2,0,36849,81,24,144,0,0,0,0,0,0,0,0,-32296,0,0,0,4502,0,11515,0
11458,-912,-8168,544,-51,10,13,2670,-5,0,-7,0,36854,69,24,144,0,0,0,0,0,0,0,0,-32297,0,0,0,4502,0,11525,0
11468,-942,-8184,582,-52,9,21,2669,-8,-4,-5,0,36853,72,24,144,0,0,0,0,0,0,0,0,-32296,0,0,0,4503,0,11535,0
11478,-1000,-8186,588,-52,12,11,2671,7,0,-5,0,36854,76,24,144,0,0,0,0,0,0,0,0,-32296,0,0,0,4501,0,11545,0
11488,-982,-8152,558,-53,15,4,2669,-4,-4,-6,0,36850,80,24,144,0,0,0,0,0,0,0,0,-32296,0,0,0,4503,0,11555,0
11498,-954,-8190,560,-58,17,2,2671,0,0,-3,0,36847,77,24,144,0,0,0,0,0,0,0,0,-32297,0,0,0,4502,0,11565,0
11508,-926,-8184,538,-52,14,5,2670,2,-1,-4,0,36848,86,24,144,0,0,0,0,0,0,0,0,-32296,0,0,0,4503,0,11576,0
11518,-942,-8158,554,-48,11,5,2670,0,-4,-5,0,36849,89,24,144,0,0,0,0,0,0,0,0,-32296,0,0,0,4503,0,11585,0
11528,-960,-8190,570,-49,13,4,2670,-6,-1,-4,0,36850,87,24,144,0,0,0,0,0,0,0,0,-32296,0,0,0,4503,0,11595,0
11538,-964,-8170,584,-51,18,4,2670,-2,-4,-4,0,36851,86,24,144,0,0,0,0,0,0,0,0,-32296,0,0,0,4502,0,11605,0
11548,-946,-8154,568,-50,16,4,2669,-11,-3,-4,0,36851,90,24,144,0,0,0,0,0,0,0,0,-32296,0,0,0,4502,0,11615,0
11558,-948,-8190,578,-50,13,2,2671,7,-2,-6,0,36851,89,24,144,0,0,0,0,0,0,0,0,-32296,0,0,0,4502,0,11626,0
11568,-948,-8158,556,-52,10,2,2671,7,-3,-7,0,36855,87,24,144,0,0,0,0,0,0,0,0,-32296,0,0,0,4503,0,11635,0
11578,-942,-8144,540,-50,13,1,2670,-1,-2,-2,0,36856,86,24,144,0,0,0,0,0,0,0,0,-32296,0,0,0,4501,0,11646,0
11588,-932,-8190,568,-53,14,2,2670,-3,-1,-5,0,36857,83,24,144,0,0,0,0,0,0,0,0,-32296,0,0,0,4503,0,11655,0
11598,-932,-8146,568,-50,14,2,2670,-2,3,-4,0,36853,81,24,144,0,0,0,0,0,0,0,0,-32296,0,0,0,4502,0,11666,0
11608,-904,-8166,530,-45,17,7,2672,5,4,-4,0,36853,77,24,144,0,0,0,0,0,0,0,0,-32296,0,0,0,4502,0,11676,0
11618,-940,-8200,522,-48,17,11,2670,0,0,-5,0,36855,81,24,144,0,0,0,0,0,0,0,0,-32296,0,0,0,4502,0,11686,0
11628,-938,-8160,558,-48,17,12,2670,-3,0,-4,0,36855,87,24,144,0,0,0,0,0,0,0,0,-32296,0,0,0,4502,0,11696,0
11638,-914,-8188,556,-49,17,15,2671,2,0,-6,0,36851,89,24,144,0,0,0,0,0,0,0,0,-32296,0,0,0,4502,0,11706,0
11648,-936,-8164,558,-51,16,14,2671,3,-1,-3,0,36847,87,24,144,0,0,0,0,0,0,0,0,-32296,0,0,0,4502,0,11716,0
11658,-942,-8136,552,-48,14,13,2671,1,1,-3,0,36849,78,24,144,0,0,0,0,0,0,0,0,-32296,0,0,0,4503,0,11726,0
11668,-968,-8160,550,-50,12,13,2670,0,-1,-6,0,36858,86,24,144,0,0,0,0,0,0,0,0,-32296,0,0,0,4502,0,11736,0
11678,-946,-8172,584,-52,13,15,2669,-3,0,-3,0,36860,83,24,144,0,0,0,0,0,0,0,0,-32296,0,0,0,4501,0,11746,0
11688,-966,-8188,568,-47,17,10,2669,-5,4,-6,0,36858,89,24,144,0,0,0,0,0,0,0,0,-32296,0,0,0,4503,0,11756,0
11698,-962,-8174,536,-48,14,6,2669,-6,-5,-3,0,36853,87,24,144,0,0,0,0,0,0,0,0,-32297,0,0,0,4502,0,11766,0
11708,-956,-8196,558,-44,17,9,2670,-5,-2,-2,0,36854,86,24,144,0,0,0,0,0,0,0,0,-32296,0,0,0,4502,0,11776,0
11718,-962,-8168,584,-48,16,3,2672,4,1,-4,0,36855,85,24,144,0,0,0,0,0,0,0,0,-32296,0,0,0,4502,0,11786,0
11728,-966,-8150,582,-51,15,6,2670,-4,-1,-5,0,36853,83,24,144,0,0,0,0,0,0,0,0,-32296,0,0,0,4503,0,11796,0
11738,-946,-8188,572,-52,14,9,2671,1,0,-6,0,36853,79,24,144,0,0,0,0,0,0,0,0,-32296,0,0,0,4501,0,11806,0
11748,-960,-8190,540,-47,16,2,2670,0,1,-5,0,36852,80,24,144,0,0,0,0,0,0,0,0,-32296,0,0,0,4503,0,11816,0
11758,-920,-8212,556,-38,15,2,2670,1,0,-3,0,36855,83,24,144,0,0,0,0,0,0,0,0,-32296,0,0,0,4503,0,11826,0
11768,-934,-8180,568,-51,13,9,2670,-1,0,-3,0,36861,91,24,144,0,0,0,0,0,0,0,0,-32296,0,0,0,4502,0,11836,0
11778,-940,-8188,588,-52,12,6,2672,7,3,-2,0,36860,91,24,144,0,0,0,0,0,0,0,0,-32296,0,0,0,4502,0,11846,0
11788,-942,-8172,580,-49,18,9,2670,1,1,-4,0,36859,84,24,144,0,0,0,0,0,0,0,0,-32296,0,0,0,4502,0,11856,0
11798,-952,-8182,574,-49,15,8,2671,0,-1,-5,0,36858,70,24,144,0,0,0,0,0,0,0,0,-32296,0,0,0,4503,0,11866,0
11808,-956,-8206,556,-53,11,12,2671,-1,-5,-2,0,36863,75,24,144,0,0,0,0,0,0,0,0,-32296,0,0,0,4503,0,11876,0
11818,-974,-8152,536,-51,18,10,2670,-2,-1,-5,0,36862,75,24,144,0,0,0,0,0,0,0,0,-32296,0,0,0,4502,0,11886,0
11828,-952,-8194,546,-47,15,4,2671,5,1,-3,0,36858,79,24,144,0,0,0,0,0,0,0,0,-32296,0,0,0,4503,0,11896,0
11838,-962,-8174,548,-50,13,11,2670,4,0,-5,0,36854,81,24,144,0,0,0,0,0,0,0,0,-32296,0,0,0,4502,0,11906,0
11848,-954,-8170,566,-51,18,9,2671,12,1,-4,0,36856,83,24,144,0,0,0,0,0,0,0,0,-32296,0,0,0,4503,0,11916,0
11858,-950,-8200,574,-49,13,4,2671,0,2,-2,0,36856,79,24,144,0,0,0,0,0,0,0,0,-32296,0,0,0,4502,0,11926,0
11868,-962,-8180,544,-49,14,7,2670,-3,-1,-5,0,36855,72,24,144,0,0,0,0,0,0,0,0,-32296,0,0,0,4503,0,11936,0
11878,-988,-8174,562,-39,15,3,2671,6,4,0,0,36864,70,24,144,0,0,0,0,0,0,0,0,-32296,0,0,0,4502,0,11946,0
11888,-958,-8176,582,-48,14,5,2670,-6,-2,-4,0,36865,78,24,144,0,0,0,0,0,0,0,0,-32296,0,0,0,4502,0,11956,0
11898,-970,-8176,586,-48,10,-1,2669,-1,4,-5,0,36867,85,24,144,0,0,0,0,0,0,0,0,-32296,0,0,0,4502,0,11966,0
11908,-956,-8132,554,-47,12,-1,2671,-1,0,-3,0,36860,89,24,144,0,0,0,0,0,0,0,0,-32296,0,0,0,4503,0,11976,0
11918,-948,-8170,572,-49,15,2,2671,0,-1,-6,0,36860,89,24,144,0,0,0,0,0,0,0,0,-32296,0,0,0,4502,0,11986,0
11928,-942,-8182,562,-52,15,2,2671,5,4,-4,0,36859,85,24,144,0,0,0,0,0,0,0,0,-32296,0,0,0,4502,0,11996,0
11938,-902,-8160,540,-53,17,-1,2670,-3,-5,-4,0,36858,78,24,144,0,0,0,0,0,0,0,0,-32296,0,0,0,4502,0,12006,0
11948,-922,-8178,570,-47,14,1,2671,3,3,-3,0,36858,77,24,144,0,0,0,0,0,0,0,0,-32296,0,0,0,4502,0,12016,0
11958,-938,-8210,568,-48,18,9,2670,-1,1,-1,0,36858,78,24,144,0,0,0,0,0,0,0,0,-32296,0,0,0,4503,0,12027,0
11968,-972,-8174,590,-46,16,9,2671,7,-2,-5,0,36861,80,24,144,0,0,0,0,0,0,0,0,-32296,0,0,0,4502,0,12037,0
11978,-960,-8184,580,-54,10,1,2670,-3,-2,-4,0,36864,78,24,144,0,0,0,0,0,0,0,0,-32296,0,0,0,4502,0,12047,0
11988,-960,-8220,574,-49,9,5,2671,0,0,-5,0,36866,80,24,144,0,0,0,0,0,0,0,0,-32296,0,0,0,4502,0,12056,0
11998,-922,-8176,564,-53,14,7,2670,5,2,-4,0,36871,79,24,144,0,0,0,0,0,0,0,0,-32296,0,0,0,4502,0,12067,0
12008,-912,-8172,572,-51,12,13,2670,2,-1,-1,0,36872,76,24,144,0,0,0,0,0,0,0,0,-32296,0,0,0,4502,0,12077,0
12018,-914,-8204,578,-52,13,9,2670,1,-1,-4,0,36865,76,24,144,0,0,0,0,0,0,0,0,-32297,0,0,0,4502,0,12087,0
12028,-934,-8174,546,-53,13,11,2669,-7,1,-5,0,36866,84,24,144,0,0,0,0,0,0,0,0,-32297,0,0,0,4502,0,12097,0
12038,-920,-8174,568,-53,15,9,2670,-3,2,-6,0,36876,90,24,144,0,0,0,0,0,0,0,0,-32296,0,0,0,4502,0,12107,0
12048,-954,-8172,562,-56,14,15,2670,0,0,-5,0,36872,83,24,144,0,0,0,0,0,0,0,0,-32296,0,0,0,4503,0,12117,0
12058,-952,-8152,590,-55,11,17,2670,-1,1,-3,0,36870,87,24,144,0,0,0,0,0,0,0,0,-32296,0,0,0,4503,0,12127,0
12068,-938,-8170,562,-46,18,16,2670,-1,-1,-4,0,36861,92,24,144,0,0,0,0,0,0,0,0,-32296,0,0,0,4503,0,12137,0
12078,-972,-8186,586,-48,12,15,2669,1,6,-4,0,36861,90,24,144,0,0,0,0,0,0,0,0,-32296,0,0,0,4502,0,12147,0
12088,-950,-8160,588,-50,15,13,2671,0,3,-3,0,36863,86,24,144,0,0,0,0,0,0,0,0,-32296,0,0,0,4502,0,12157,0
12098,-982,-8168,568,-51,18,15,2670,0,-3,-5,0,36858,79,24,144,0,0,0,0,0,0,0,0,-32296,0,0,0,4503,0,12167,0
12108,-942,-8184,592,-54,14,12,2671,3,6,-2,0,36858,77,24,144,0,0,0,0,0,0,0,0,-32296,0,0,0,4503,0,12177,0
12118,-958,-8184,576,-50,17,11,2670,3,-2,-5,0,36852,83,24,144,0,0,0,0,0,0,0,0,-32296,0,0,0,4502,0,12187,0
12128,-948,-8188,574,-50,14,13,2671,1,1,-5,0,36855,78,24,144,0,0,0,0,0,0,0,0,-32296,0,0,0,4503,0,12197,0
12138,-946,-8168,564,-58,13,7,2671,1,0,-5,0,36854,79,24,144,0,0,0,0,0,0,0,0,-32296,0,0,0,4503,0,12207,0
12148,-942,-8176,560,-53,17,7,2670,-1,-2,-3,0,36855,73,24,144,0,0,0,0,0,0,0,0,-32296,0,0,0,4503,0,12217,0
12158,-974,-8190,544,-54,13,8,2671,5,-1,-1,0,36856,72,24,144,0,0,0,0,0,0,0,0,-32296,0,0,0,4503,0,12227,0
12168,-970,-8214,560,-51,14,5,2670,2,1,-5,0,36857,81,24,144,0,0,0,0,0,0,0,0,-32296,0,0,0,4503,0,12237,0
12178,-970,-8188,554,-52,19,11,2671,0,-1,-3,0,36855,79,24,144,0,0,0,0,0,0,0,0,-32296,0,0,0,4503,0,12247,0
12188,-958,-8130,550,-51,16,4,2671,2,2,-4,0,36855,86,24,144,0,0,0,0,0,0,0,0,-32296,0,0,0,4503,0,12257,0
12198,-944,-8202,552,-44,13,5,2670,0,-1,-5,0,36853,94,24,144,0,0,0,0,0,0,0,0,-32296,0,0,0,4503,0,12267,0
12208,-984,-8162,576,-49,15,7,2670,1,0,-3,0,36855,99,24,144,0,0,0,0,0,0,0,0,-32296,0,0,0,4503,0,12277,0
12218,-940,-8138,586,-53,12,-1,2671,0,0,-4,0,36855,99,24,144,0,0,0,0,0,0,0,0,-32296,0,0,0,4503,0,12287,0
12228,-936,-8204,538,-48,14,5,2671,3,-1,-5,0,36854,96,24,144,0,0,0,0,0,0,0,0,-32296,0,0,0,4503,0,12297,0
12238,-922,-8178,554,-51,9,2,2670,0,1,-4,0,36849,85,24,144,0,0,0,0,0,0,0,0,-32296,0,0,0,4503,0,12307,0
12248,-944,-8184,560,-48,17,8,2669,-5,-1,-3,0,36848,81,24,144,0,0,0,0,0,0,0,0,-32296,0,0,0,4503,0,12317,0
12258,-928,-8174,550,-54,13,7,2671,1,-1,-2,0,36852,81,24,144,0,0,0,0,0,0,0,0,-32296,0,0,0,4503,0,12327,0
12268,-946,-8192,560,-50,14,10,2670,-2,-4,-5,0,36853,76,24,144,0,0,0,0,0,0,0,0,-32296,0,0,0,4503,0,12337,0
12278,-950,-8156,546,-49,19,11,2670,-3,-3,-5,0,36851,79,24,144,0,0,0,0,0,0,0,0,-32296,0,0,0,4502,0,12347,0
12288,-954,-8174,596,-44,16,14,2670,-5,-4,-4,0,36850,79,24,144,0,0,0,0,0,0,0,0,-32296,0,0,0,4502,0,12357,0
12298,-962,-8202,596,-47,13,13,2670,0,3,-4,0,36852,86,24,144,0,0,0,0,0,0,0,0,-32296,0,0,0,4503,0,12367,0
12308,-996,-8168,592,-53,10,3,2670,0,2,-3,0,36852,77,24,144,0,0,0,0,0,0,0,0,-32296,0,0,0,4503,0,12377,0
12318,-966,-8164,580,-51,15,4,2670,-4,4,-5,0,36853,83,24,144,0,0,0,0,0,0,0,0,-32296,0,0,0,4503,0,12387,0
12328,-944,-8172,568,-53,14,8,2670,0,0,-6,0,36855,92,24,144,0,0,0,0,0,0,0,0,-32296,0,0,0,4503,0,12397,0
12338,-962,-8190,558,-49,11,3,2671,0,0,-3,0,36853,92,24,144,0,0,0,0,0,0,0,0,-32296,0,0,0,4503,0,12407,0
12348,-958,-8180,584,-52,12,5,2671,2,-1,-4,0,36850,83,24,144,0,0,0,0,0,0,0,0,-32296,0,0,0,4503,0,12417,0
12358,-960,-8186,558,-52,14,2,2671,5,2,-2,0,36850,78,24,144,0,0,0,0,0,0,0,0,-32297,0,0,0,4503,0,12427,0
12368,-952,-8172,562,-53,10,2,2671,0,1,-5,0,36850,85,24,144,0,0,0,0,0,0,0,0,-32296,0,0,0,4503,0,12437,0
12378,-954,-8160,564,-46,14,8,2671,4,-3,-5,0,36849,84,24,144,0,0,0,0,0,0,0,0,-32296,0,0,0,4503,0,12447,0
12388,-956,-8178,568,-53,17,7,2670,-1,-8,-4,0,36848,80,24,144,0,0,0,0,0,0,0,0,-32296,0,0,0,4503,0,12457,0
12398,-958,-8154,568,-55,13,2,2670,0,4,-2,0,36854,79,24,144,0,0,0,0,0,0,0,0,-32296,0,0,0,4503,0,12467,0
12408,-928,-8144,594,-50,10,2,2670,0,-1,-1,0,36860,87,24,144,0,0,0,0,0,0,0,0,-32296,0,0,0,4503,0,12477,0
12418,-948,-8202,550,-49,13,5,2670,-1,-1,-5,0,36858,92,24,144,0,0,0,0,0,0,0,0,-32296,0,0,0,4503,0,12487,0
12428,-940,-8192,564,-52,16,2,2670,-7,-2,-6,0,36853,89,24,144,0,0,0,0,0,0,0,0,-32296,0,0,0,4503,0,12497,0
12438,-924,-8140,562,-49,15,4,2670,-6,0,-4,0,36845,80,24,144,0,0,0,0,0,0,0,0,-32296,0,0,0,4503,0,12507,0
12448,-930,-8190,556,-48,13,6,2669,-6,3,-5,0,36847,75,24,144,0,0,0,0,0,0,0,0,-32296,0,0,0,4503,0,12517,0
12458,-962,-8180,564,-46,13,9,2671,1,6,-3,0,36848,76,24,144,0,0,0,0,0,0,0,0,-32296,0,0,0,4503,0,12527,0
12468,-990,-8142,556,-51,12,12,2670,-4,2,-4,0,36847,78,24,144,0,0,0,0,0,0,0,0,-32296,0,0,0,4503,0,12537,0
12478,-958,-8208,568,-52,14,4,2670,-3,1,-4,0,36845,83,24,144,0,0,0,0,0,0,0,0,-32296,0,0,0,4503,0,12547,0
12488,-962,-8176,562,-49,15,4,2670,0,1,-4,0,36846,86,24,144,0,0,0,0,0,0,0,0,-32296,0,0,0,4503,0,12557,0
12498,-932,-8190,604,-50,16,8,2671,2,-6,-5,0,36847,83,24,144,0,0,0,0,0,0,0,0,-32295,0,0,0,4503,0,12567,0
12508,-918,-8166,606,-57,14,7,2671,1,-3,-2,0,36852,87,24,144,0,0,0,0,0,0,0,0,-32296,0,0,0,4503,0,12577,0
12518,-934,-8180,578,-53,13,8,2671,4,-2,-4,0,36853,85,24,144,0,0,0,0,0,0,0,0,-32296,0,0,0,4503,0,12587,0
12528,-922,-8180,580,-51,19,10,2670,3,3,-6,0,36851,82,24,144,0,0,0,0,0,0,0,0,-32296,0,0,0,4503,0,12597,0
12538,-932,-8192,560,-53,16,9,2671,3,-1,-6,0,36848,75,24,144,0,0,0,0,0,0,0,0,-32296,0,0,0,4502,0,12607,0
12548,-956,-8162,558,-55,12,12,2669,0,3,-3,0,36850,83,24,144,0,0,0,0,0,0,0,0,-32296,0,0,0,4503,0,12617,0
12558,-952,-8184,552,-55,18,12,2670,4,0,-3,0,36853,84,24,144,0,0,0,0,0,0,0,0,-32296,0,0,0,4502,0,12628,0
12568,-926,-8190,552,-46,24,12,2671,1,-1,-8,0,36852,81,24,144,0,0,0,0,0,0,0,0,-32296,0,0,0,4503,0,12648,0
12578,-984,-8178,592,-46,16,11,2670,-2,0,-5,0,36851,79,24,144,0,0,0,0,0,0,0,0,-32296,0,0,0,4503,0,12668,0
12588,-1006,-8172,588,-51,12,9,2670,-4,-2,-3,0,36854,80,24,144,0,0,0,0,0,0,0,0,-32296,0,0,0,4503,0,12688,0
12598,-976,-8206,554,-52,16,0,2670,4,1,-4,0,36856,79,24,144,0,0,0,0,0,0,0,0,-32296,0,0,0,4503,0,12708,0
12608,-920,-8142,554,-46,12,4,2670,-4,-5,-4,0,36854,73,24,144,0,0,0,0,0,0,0,0,-32296,0,0,0,4503,0,12728,0
12618,-904,-8198,578,-48,15,10,2671,0,-1,-5,0,36855,75,24,144,0,0,0,0,0,0,0,0,-32296,0,0,0,4503,0,12748,0
12628,-962,-8204,596,-51,13,10,2670,0,1,-5,0,36854,81,24,144,0,0,0,0,0,0,0,0,-32296,0,0,0,4503,0,12768,0
12638,-966,-8174,552,-52,12,8,2669,-6,-3,-4,0,36855,82,24,144,0,0,0,0,0,0,0,0,-32296,0,0,0,4502,0,12789,0
12648,-938,-8168,520,-54,11,11,2670,0,-4,-3,0,36850,77,24,144,0,0,0,0,0,0,0,0,-32296,0,0,0,4503,0,12809,0
12658,-916,-8182,554,-50,11,12,2671,0,1,-4,0,36849,74,24,144,0,0,0,0,0,0,0,0,-32296,0,0,0,4503,0,12832,0
12668,-932,-8186,568,-45,16,11,2670,1,-1,-4,0,36851,77,24,144,0,0,0,0,0,0,0,0,-32296,0,0,0,4503,0,12852,0
12678,-940,-8164,578,-46,12,15,2671,3,2,-4,0,36852,82,24,144,0,0,0,0,0,0,0,0,-32296,0,0,0,4503,0,12872,0
12688,-936,-8172,562,-49,14,19,2670,0,3,-4,0,36853,80,24,144,0,0,0,0,0,0,0,0,-32296,0,0,0,4503,0,12892,0
12698,-960,-8178,610,-48,12,17,2671,2,3,-6,0,36850,81,24,144,0,0,0,0,0,0,0,0,-32296,0,0,0,4503,0,12912,0
12708,-974,-8178,600,-53,10,13,2670,-6,-1,-3,0,36850,80,24,144,0,0,0,0,0,0,0,0,-32296,0,0,0,4502,0,12932,0
12718,-966,-8166,602,-54,13,13,2670,0,-4,-1,0,36855,86,24,144,0,0,0,0,0,0,0,0,-32296,0,0,0,4503,0,12952,0
12728,-946,-8184,558,-53,9,11,2671,0,6,-5,0,36855,95,24,144,0,0,0,0,0,0,0,0,-32296,0,0,0,4503,0,12972,0
12738,-968,-8162,558,-53,14,14,2671,0,2,-3,0,36853,93,24,144,0,0,0,0,0,0,0,0,-32296,0,0,0,4503,0,12992,0
12748,-956,-8186,574,-48,11,13,2670,2,-4,-4,0,36851,91,24,144,0,0,0,0,0,0,0,0,-32296,0,0,0,4503,0,13012,0
12758,-960,-8194,552,-47,12,12,2672,3,3,-2,0,36854,84,24,144,0,0,0,0,0,0,0,0,-32296,0,0,0,4503,0,13032,0
12768,-954,-8166,558,-52,13,8,2670,0,-5,-4,0,36857,73,24,144,0,0,0,0,0,0,0,0,-32296,0,0,0,4503,0,13052,0
12778,-934,-8178,574,-47,16,5,2671,5,-2,-3,0,36856,71,24,144,0,0,0,0,0,0,0,0,-32296,0,0,0,4503,0,13072,0
12788,-978,-8196,596,-49,21,10,2670,2,-2,-3,0,36855,67,24,144,0,0,0,0,0,0,0,0,-32296,0,0,0,4504,0,13092,0
12798,-972,-8168,582,-51,13,6,2669,-7,3,-4,0,36855,69,24,144,0,0,0,0,0,0,0,0,-32296,0,0,0,4503,0,13112,0
12808,-944,-8176,578,-49,16,3,2671,5,3,-4,0,36861,75,24,144,0,0,0,0,0,0,0,0,-32296,0,0,0,4503,0,13132,0
12818,-992,-8184,540,-51,11,4,2669,-1,1,-4,0,36862,89,24,144,0,0,0,0,0,0,0,0,-32296,0,0,0,4503,0,13153,0
12828,-964,-8138,530,-50,15,6,2670,-1,2,-6,0,36863,90,24,144,0,0,0,0,0,0,0,0,-32296,0,0,0,4503,0,13173,0
12838,-946,-8160,554,-54,14,4,2670,0,4,-4,0,36859,96,24,144,0,0,0,0,0,0,0,0,-32296,0,0,0,4503,0,13193,0
12848,-962,-8180,564,-47,12,6,2670,1,2,-3,0,36862,88,24,144,0,0,0,0,0,0,0,0,-32296,0,0,0,4503,0,13213,0
12858,-956,-8160,572,-47,12,4,2671,2,3,-3,0,36861,90,24,144,0,0,0,0,0,0,0,0,-32296,0,0,0,4503,0,13233,0
12868,-958,-8172,590,-50,13,2,2670,6,-2,-3,0,36858,94,24,144,0,0,0,0,0,0,0,0,-32296,0,0,0,4503,0,13253,0
12878,-948,-8192,582,-54,14,0,2671,3,-7,-5,0,36857,92,24,144,0,0,0,0,0,0,0,0,-32296,0,0,0,4503,0,13273,0
12888,-948,-8180,596,-54,14,4,2671,0,0,-3,0,36856,91,24,144,0,0,0,0,0,0,0,0,-32296,0,0,0,4503,0,13293,0
12898,-934,-8152,584,-51,15,6,2670,0,1,-5,0,36860,78,24,144,0,0,0,0,0,0,0,0,-32296,0,0,0,4503,0,13313,0
12908,-926,-8200,564,-45,12,6,2671,0,0,-3,0,36860,79,24,144,0,0,0,0,0,0,0,0,-32296,0,0,0,4503,0,13333,0
12918,-936,-8166,572,-48,17,15,2670,0,3,-3,0,36859,83,24,144,0,0,0,0,0,0,0,0,-32296,0,0,0,4503,0,13353,0
12928,-938,-8176,598,-51,15,15,2671,1,-3,-4,0,36862,86,24,144,0,0,0,0,0,0,0,0,-32296,0,0,0,4503,0,13373,0
12938,-962,-8188,558,-49,17,13,2671,1,-1,-3,0,36863,86,24,144,0,0,0,0,0,0,0,0,-32296,0,0,0,4503,0,13393,0
12948,-972,-8164,572,-51,13,14,2670,0,-2,-4,0,36863,87,24,144,0,0,0,0,0,0,0,0,-32296,0,0,0,4503,0,13413,0
12958,-956,-8168,576,-51,15,8,2669,-5,4,-3,0,36863,97,24,144,0,0,0,0,0,0,0,0,-32296,0,0,0,4503,0,13433,0
12968,-954,-8174,582,-51,12,13,2671,-1,-1,-4,0,36863,96,24,144,0,0,0,0,0,0,0,0,-32296,0,0,0,4503,0,13453,0
12978,-976,-8162,564,-51,13,7,2670,-3,1,-4,0,36863,97,24,144,0,0,0,0,0,0,0,0,-32296,0,0,0,4504,0,13473,0
12988,-950,-8154,556,-48,14,10,2670,5,1,-5,0,36863,90,24,144,0,0,0,0,0,0,0,0,-32296,0,0,0,4503,0,13493,0
12998,-938,-8190,568,-47,11,16,2669,-11,-4,-5,0,36865,96,24,144,0,0,0,0,0,0,0,0,-32296,0,0,0,4503,0,13513,0
13008,-948,-8172,592,-49,17,13,2669,-5,2,-4,0,36866,94,24,144,0,0,0,0,0,0,0,0,-32296,0,0,0,4504,0,13535,0
13018,-982,-8188,590,-47,7,14,2669,-2,1,-4,0,36864,92,24,144,0,0,0,0,0,0,0,0,-32297,0,0,0,4503,0,13553,0
13028,-998,-8200,578,-48,9,7,2671,3,0,-6,0,36862,91,24,144,0,0,0,0,0,0,0,0,-32296,0,0,0,4503,0,13573,0
13038,-978,-8170,566,-44,17,7,2670,1,8,-5,0,36867,90,24,144,0,0,0,0,0,0,0,0,-32296,0,0,0,4504,0,13593,0
13048,-946,-8158,588,-49,13,14,2671,-3,-7,-2,0,36866,88,24,144,0,0,0,0,0,0,0,0,-32296,0,0,0,4503,0,13613,0
13058,-948,-8156,578,-51,16,6,2670,0,3,-4,0,36864,78,24,144,0,0,0,0,0,0,0,0,-32296,0,0,0,4503,0,13633,0
13068,-964,-8182,570,-47,8,9,2670,-1,2,-4,0,36858,78,24,144,0,0,0,0,0,0,0,0,-32296,0,0,0,4504,0,13653,0
13078,-934,-8156,550,-46,16,9,2671,-4,2,-5,0,36858,90,24,144,0,0,0,0,0,0,0,0,-32296,0,0,0,4503,0,13673,0
13088,-932,-8184,576,-48,15,4,2671,0,0,-5,0,36857,89,24,144,0,0,0,0,0,0,0,0,-32296,0,0,0,4503,0,13693,0
13098,-966,-8168,570,-48,15,13,2671,-1,-2,-4,0,36857,86,24,144,0,0,0,0,0,0,0,0,-32296,0,0,0,4504,0,13713,0
13108,-968,-8158,552,-46,15,4,2671,4,2,-5,0,36858,77,24,144,0,0,0,0,0,0,0,0,-32296,0,0,0,4504,0,13733,0
13118,-968,-8184,572,-49,14,8,2670,-5,-1,-3,0,36860,83,24,144,0,0,0,0,0,0,0,0,-32296,0,0,0,4504,0,13753,0
13128,-974,-8184,576,-50,12,5,2671,0,-2,-5,0,36858,93,24,144,0,0,0,0,0,0,0,0,-32296,0,0,0,4504,0,13773,0
13138,-942,-8160,566,-45,19,4,2671,3,0,-3,0,36856,102,24,144,0,0,0,0,0,0,0,0,-32296,0,0,0,4504,0,13793,0
13148,-788,-8182,482,-56,31,-12,2745,275,134,883,1056,36853,102,24,144,0,0,0,0,0,0,0,0,-32296,0,0,0,4504,0,13814,0
13158,-792,-8170,560,-45,30,2,2971,587,443,944,1848,36849,105,24,144,0,0,0,0,0,0,0,0,-32295,0,0,0,4504,0,13834,0
13168,-948,-8174,522,-49,0,11,3341,916,557,1018,2624,36843,119,24,144,0,0,0,0,0,0,0,0,-32296,0,0,0,4504,0,13853,0
13178,-1012,-8168,586,-55,5,12,3857,1233,558,1012,3400,36834,144,24,144,0,0,0,0,0,0,0,0,-32295,0,0,0,4503,0,13873,0
13188,-966,-8138,570,-45,9,4,4518,1548,557,1001,4080,36821,156,24,144,0,0,0,0,0,0,0,0,-32296,0,0,0,4503,0,13893,0
13198,-1056,-8170,620,-50,10,11,5318,1845,539,979,4824,36807,178,24,144,0,0,0,0,0,0,0,0,-32296,0,0,0,4504,0,13914,0
13208,-906,-8150,608,-54,7,15,6246,2127,510,984,5552,36793,207,24,144,0,0,0,0,0,0,0,0,-32296,0,0,0,4504,0,13934,0
13218,-940,-8186,516,-57,4,8,7323,2482,526,1035,6352,36781,241,24,144,0,0,0,0,0,0,0,0,-32296,0,0,0,4505,0,13954,0
13228,-1026,-8150,480,-37,0,5,8575,2850,625,1027,7072,36768,265,24,144,0,0,0,0,0,0,0,0,-32296,0,0,0,4504,0,13974,0
13238,-960,-8156,534,-18,17,5,9922,2993,528,948,7664,36750,278,24,144,0,0,0,0,0,0,0,0,-32296,0,0,0,4504,0,13993,0
13248,-954,-8190,602,-46,42,6,11359,3275,335,963,8496,36743,286,24,144,0,0,0,0,0,0,0,0,-32296,0,0,0,4503,0,14013,0
13258,-904,-8214,472,-32,63,5,13000,3739,573,1058,9328,36734,313,24,144,0,0,0,0,0,0,0,0,-32296,0,0,0,4504,0,14034,0
13268,-994,-8208,480,-68,38,9,14768,3959,650,953,9976,36720,344,24,144,0,0,0,0,0,0,0,0,-32296,0,0,0,4504,0,14054,0
13278,-990,-8220,652,-53,22,8,16712,4403,563,1081,10624,36704,373,24,144,0,0,0,0,0,0,0,0,-32295,0,0,0,4504,0,14074,0
13288,-766,-8142,384,-43,-9,7,18709,4360,463,899,10960,36678,402,24,144,0,0,0,0,0,0,0,0,-32296,0,0,0,4503,0,14094,0
13298,-874,-8134,592,-38,-7,2,20801,4752,234,1000,11848,36670,408,24,144,0,0,0,0,0,0,0,0,-32296,0,0,0,4504,0,14114,0
13308,-918,-8118,604,-21,-5,-6,23039,4980,496,958,12528,36657,428,24,144,0,0,0,0,0,0,0,0,-32296,0,0,0,4503,0,14134,0
13318,-1134,-8212,688,-45,6,-5,25462,5443,630,1143,13048,36660,440,24,144,0,0,0,0,0,0,0,0,-32295,0,0,0,4504,0,14154,0
13328,-774,-8128,812,-26,47,7,27907,5424,409,841,13664,36653,477,24,144,0,0,0,0,0,0,0,0,-32297,0,0,0,4504,0,14174,0
13338,-1788,-7752,870,-77,24,97,30517,5776,351,1076,14136,36642,497,24,144,0,0,0,0,0,0,0,0,-32297,0,0,0,4505,0,14194,0
13348,24686,-25894,-648,-629,-1567,2197,32737,4361,-346,1365,8272,36604,547,24,144,0,0,0,0,0,0,0,0,-32296,0,0,0,4622,13,14214,0
13358,758,-11982,-7306,-386,-1910,2335,33579,713,-3368,1041,-800,36600,508,24,144,0,0,0,0,0,0,0,0,-32296,0,0,0,4695,5,14234,0
13368,-12510,-5874,-2026,120,1060,-1727,32887,-2252,-5689,686,-4656,36642,385,24,144,0,0,0,0,0,0,0,0,-32296,0,0,0,4668,-5,14254,0
13378,-16068,-6612,1952,169,2897,-3044,31582,-2887,-4157,644,-4424,36722,196,24,144,0,0,0,0,0,0,0,0,-32295,0,0,0,4582,-8,14274,0
13388,11480,-10972,1630,-109,2450,-1535,30509,-2113,-660,1001,-2464,36798,39,24,144,0,0,0,0,0,0,0,0,-32296,0,0,0,4541,-1,14294,0
13398,6906,-4878,2136,-64,-46,-902,29816,-1296,1222,1036,-632,36837,-6,24,144,0,0,0,0,0,0,0,0,-32297,0,0,0,4516,-2,14314,0
13408,1918,-7550,378,-221,-457,269,29499,-407,1440,1345,288,36849,-2,24,144,0,0,0,0,0,0,0,0,-32295,0,0,0,4514,0,14334,0
13418,-3720,-7556,-2192,-147,-1127,696,29574,326,1495,869,1224,36844,30,24,144,0,0,0,0,0,0,0,0,-32296,0,0,0,4521,1,14354,0
13428,-7982,-8562,-1586,332,-380,-7,29855,747,1127,965,2392,36828,69,24,144,0,0,0,0,0,0,0,0,-32296,0,0,0,4529,0,14374,0
13438,-4366,-7784,1524,245,109,-383,30338,1188,772,1036,3408,36811,118,24,144,0,0,0,0,0,0,0,0,-32296,0,0,0,4527,0,14394,0
13448,-1198,-8512,2996,-5,486,-249,31002,1571,742,1022,4256,36797,151,24,144,0,0,0,0,0,0,0,0,-32296,0,0,0,4520,0,14414,0
13458,13244,-8714,1768,-345,-590,984,31668,1326,380,1183,2760,36787,181,24,144,0,0,0,0,0,0,0,0,-32297,0,0,0,4552,4,14434,0
13468,4444,-9966,-376,-439,-973,1044,31934,222,-763,961,128,36783,187,24,144,0,0,0,0,0,0,0,0,-32295,0,0,0,4581,1,14454,0
13478,-9578,-9240,-3768,-258,-365,212,31782,-460,-1633,955,-32,36793,165,24,144,0,0,0,0,0,0,0,0,-32295,0,0,0,4578,0,14474,0
13488,-8630,-6454,-1218,131,828,-737,31606,-298,-837,1022,144,36807,124,24,144,0,0,0,0,0,0,0,0,-32296,0,0,0,4564,-1,14494,0
13498,1054,-8492,1542,115,521,-627,31560,-56,242,1007,240,36824,95,24,144,0,0,0,0,0,0,0,0,-32296,0,0,0,4556,-1,14514,0
13508,4232,-8292,2340,-34,-177,-28,31523,-108,269,1006,192,36832,90,24,144,0,0,0,0,0,0,0,0,-32296,0,0,0,4554,0,14534,0
13518,-764,-7988,2080,-143,-324,206,31489,-44,6,982,264,36835,96,24,144,0,0,0,0,0,0,0,0,-32296,0,0,0,4552,0,14554,0
13528,-4982,-7984,-1080,-86,25,-77,31501,46,113,991,312,36834,89,24,144,0,0,0,0,0,0,0,0,-32297,0,0,0,4553,0,14574,0
13538,-2274,-8088,-922,46,172,-302,31504,-19,73,1016,240,36835,83,24,144,0,0,0,0,0,0,0,0,-32297,0,0,0,4553,0,14594,0
13548,1080,-8446,1310,52,56,-243,31470,-95,-92,1012,160,36835,69,24,144,0,0,0,0,0,0,0,0,-32296,0,0,0,4551,0,14614,0
13558,304,-8314,1976,-40,-32,-94,31426,-79,-96,982,216,36840,67,24,144,0,0,0,0,0,0,0,0,-32296,0,0,0,4547,0,14634,0
13568,-1232,-8070,1042,-140,-19,13,31409,-29,37,982,288,36842,72,24,144,0,0,0,0,0,0,0,0,-32296,0,0,0,4546,0,14654,0
13578,-1248,-8148,-132,-112,31,13,31413,6,92,995,312,36841,65,24,144,0,0,0,0,0,0,0,0,-32296,0,0,0,4546,0,14674,0
13588,-908,-8156,-182,-21,32,-8,31411,-10,24,1000,288,36844,70,24,144,0,0,0,0,0,0,0,0,-32296,0,0,0,4547,0,14694,0
13598,-738,-7992,486,1,8,17,31413,2,-10,996,280,36845,70,24,144,0,0,0,0,0,0,0,0,-32296,0,0,0,4545,0,14714,0
13608,-996,-8200,944,-35,0,37,31414,3,2,996,280,36846,76,24,144,0,0,0,0,0,0,0,0,-32296,0,0,0,4545,0,14734,0
13618,-1198,-8202,870,-53,15,36,31414,3,-3,996,288,36842,84,24,144,0,0,0,0,0,0,0,0,-32296,0,0,0,4546,0,14754,0
13628,-1238,-8072,392,-51,30,6,31413,-1,-1,999,288,36839,85,24,144,0,0,0,0,0,0,0,0,-32296,0,0,0,4546,0,14774,0
13638,-1208,-8140,344,-34,27,-2,31414,5,-6,1000,296,36839,86,24,144,0,0,0,0,0,0,0,0,-32296,0,0,0,4546,0,14794,0
13648,-1076,-8136,658,-24,23,-17,31413,2,-1,997,288,36842,92,24,144,0,0,0,0,0,0,0,0,-32296,0,0,0,4546,0,14814,0
13658,-904,-8210,820,-31,18,-26,31414,2,0,1001,288,36842,90,24,144,0,0,0,0,0,0,0,0,-32296,0,0,0,4546,0,14834,0
13668,-854,-8188,702,-56,9,-3,31413,-1,0,995,288,36846,88,24,144,0,0,0,0,0,0,0,0,-32296,0,0,0,4545,0,14854,0
13678,-966,-8202,576,-57,2,7,31413,4,1,998,288,36846,94,24,144,0,0,0,0,0,0,0,0,-32296,0,0,0,4546,0,14874,0
13688,-998,-8168,458,-48,15,0,31412,2,-3,999,280,36847,92,24,144,0,0,0,0,0,0,0,0,-32296,0,0,0,4546,0,14894,0
13698,-902,-8086,496,-36,15,1,31411,-4,-5,998,288,36842,84,24,144,0,0,0,0,0,0,0,0,-32296,0,0,0,4547,0,14914,0
13708,-918,-8232,612,-33,14,33,31412,-1,-4,996,288,36842,76,24,144,0,0,0,0,0,0,0,0,-32296,0,0,0,4545,0,14934,0
13718,-950,-8138,622,-40,16,29,31413,-2,0,996,288,36845,75,24,144,0,0,0,0,0,0,0,0,-32296,0,0,0,4545,0,14954,0
13728,-1088,-8122,534,-38,13,26,31413,1,1,1000,288,36846,75,24,144,0,0,0,0,0,0,0,0,-32296,0,0,0,4545,0,14974,0
13738,-1140,-8184,564,-29,18,23,31413,-5,-1,1000,296,36848,83,24,144,0,0,0,0,0,0,0,0,-32296,0,0,0,4546,0,14994,0
13748,-1060,-8160,656,-36,23,12,31414,2,-3,1000,288,36848,85,24,144,0,0,0,0,0,0,0,0,-32296,0,0,0,4546,0,15014,0
13758,-982,-8106,670,-41,23,0,31413,1,-4,998,296,36846,77,24,144,0,0,0,0,0,0,0,0,-32296,0,0,0,4545,0,15034,0
13768,-1018,-8232,612,-48,15,16,31413,0,0,999,296,36854,80,24,144,0,0,0,0,0,0,0,0,-32296,0,0,0,4546,0,15055,0
13778,-1076,-8172,574,-48,13,15,31414,-1,1,997,296,36854,85,24,144,0,0,0,0,0,0,0,0,-32296,0,0,0,4546,0,15075,0
13788,-948,-8152,576,-46,16,14,31414,-3,1,995,280,36853,91,24,144,0,0,0,0,0,0,0,0,-32296,0,0,0,4546,0,15094,0
13798,-928,-8156,612,-47,16,20,31414,0,-2,994,288,36847,78,24,144,0,0,0,0,0,0,0,0,-32296,0,0,0,4546,0,15114,0
13808,-1014,-8160,604,-52,16,29,31414,0,3,997,280,36852,73,24,144,0,0,0,0,0,0,0,0,-32296,0,0,0,4547,0,15134,0
13818,-992,-8192,524,-51,8,23,31415,3,6,995,296,36855,82,24,144,0,0,0,0,0,0,0,0,-32296,0,0,0,4545,0,15155,0
13828,-1054,-8152,536,-41,15,23,31417,2,-4,998,280,36852,94,24,144,0,0,0,0,0,0,0,0,-32297,0,0,0,4545,0,15175,0
13838,-1068,-8192,606,-42,17,24,31417,3,1,998,288,36847,90,24,144,0,0,0,0,0,0,0,0,-32296,0,0,0,4545,0,15195,0
13848,-1022,-8186,578,-42,16,14,31416,-3,4,997,288,36849,87,24,144,0,0,0,0,0,0,0,0,-32296,0,0,0,4546,0,15215,0
13858,-1044,-8160,594,-45,17,11,31417,6,-3,995,280,36850,85,24,144,0,0,0,0,0,0,0,0,-32296,0,0,0,4547,0,15235,0
13868,-1038,-8130,644,-42,10,17,31419,3,-3,997,288,36857,86,24,144,0,0,0,0,0,0,0,0,-32296,0,0,0,4546,0,15255,0
13878,-1050,-8162,656,-44,14,14,31419,4,8,1000,296,36855,81,24,144,0,0,0,0,0,0,0,0,-32296,0,0,0,4547,0,15275,0
13888,-992,-8138,620,-50,20,14,31419,1,-2,1001,288,36856,74,24,144,0,0,0,0,0,0,0,0,-32296,0,0,0,4547,0,15295,0
13898,-1000,-8146,628,-50,16,18,31420,7,0,997,296,36852,76,24,144,0,0,0,0,0,0,0,0,-32296,0,0,0,4546,0,15315,0
13908,-1010,-8102,596,-54,11,20,31420,1,0,999,288,36854,87,24,144,0,0,0,0,0,0,0,0,-32296,0,0,0,4546,0,15335,0
13918,-1026,-8136,574,-50,11,17,31420,-8,-1,996,288,36853,81,24,144,0,0,0,0,0,0,0,0,-32296,0,0,0,4547,0,15355,0
13928,-1102,-8180,556,-48,15,18,31421,5,0,996,288,36853,87,24,144,0,0,0,0,0,0,0,0,-32296,0,0,0,4545,0,15375,0
13938,-1012,-8148,586,-47,23,8,31421,2,1,1000,304,36855,80,24,144,0,0,0,0,0,0,0,0,-32296,0,0,0,4547,0,15395,0
13948,-996,-8180,578,-43,20,13,31421,4,3,1000,288,36857,77,24,144,0,0,0,0,0,0,0,0,-32296,0,0,0,4547,0,15415,0
13958,-1000,-8162,582,-44,17,21,31422,4,-1,995,288,36857,77,24,144,0,0,0,0,0,0,0,0,-32296,0,0,0,4547,0,15435,0
13968,-1036,-8110,608,-47,14,8,31422,2,-4,996,280,36856,77,24,144,0,0,0,0,0,0,0,0,-32296,0,0,0,4547,0,15455,0
13978,-1050,-8174,600,-52,22,15,31424,8,5,996,296,36860,66,24,144,0,0,0,0,0,0,0,0,-32297,0,0,0,4547,0,15475,0
13988,-1046,-8168,582,-46,18,18,31423,0,-1,1003,288,36861,60,24,144,0,0,0,0,0,0,0,0,-32296,0,0,0,4547,0,15495,0
13998,-1064,-8138,622,-49,21,11,31423,0,-3,996,280,36862,63,24,144,0,0,0,0,0,0,0,0,-32296,0,0,0,4547,0,15515,0
14008,-1030,-8178,602,-55,13,5,31423,-2,-2,1000,272,36858,74,24,144,0,0,0,0,0,0,0,0,-32296,0,0,0,4547,0,15535,0
14018,-1000,-8166,542,-46,16,9,31424,4,2,995,280,36854,79,24,144,0,0,0,0,0,0,0,0,-32297,0,0,0,4547,0,15555,0
14028,-1098,-8124,574,-50,14,9,31423,-3,2,998,280,36852,80,24,144,0,0,0,0,0,0,0,0,-32296,0,0,0,4547,0,15575,0
14038,-1008,-8182,612,-49,11,8,31425,8,4,1003,272,36854,80,24,144,0,0,0,0,0,0,0,0,-32296,0,0,0,4546,0,15595,0
14048,-1050,-8184,626,-57,14,0,31424,-5,0,992,280,36854,76,24,144,0,0,0,0,0,0,0,0,-32296,0,0,0,4547,0,15615,0
14058,-1090,-8182,628,-52,19,2,31424,-6,4,997,280,36851,69,24,144,0,0,0,0,0,0,0,0,-32296,0,0,0,4547,0,15635,0
14068,-984,-8170,604,-50,18,-10,31426,7,2,995,280,36850,68,24,144,0,0,0,0,0,0,0,0,-32296,0,0,0,4547,0,15655,0
14078,-1034,-8156,602,-56,12,-1,31424,-1,-2,999,280,36850,66,24,144,0,0,0,0,0,0,0,0,-32296,0,0,0,4547,0,15675,0
14088,-996,-8148,614,-57,11,2,31424,-3,3,1003,288,36855,64,24,144,0,0,0,0,0,0,0,0,-32296,0,0,0,4546,0,15695,0
14098,-1040,-8140,570,-62,14,-1,31423,-3,-3,999,272,36855,62,24,144,0,0,0,0,0,0,0,0,-32296,0,0,0,4547,0,15715,0
14108,-966,-8156,556,-55,12,2,31424,-1,1,998,280,36854,67,24,144,0,0,0,0,0,0,0,0,-32296,0,0,0,4547,0,15735,0
14118,-1016,-8138,580,-53,14,1,31423,1,-1,997,288,36852,78,24,144,0,0,0,0,0,0,0,0,-32296,0,0,0,4547,0,15755,0
14128,-1014,-8168,570,-50,11,-1,31423,-1,1,1002,272,36852,77,24,144,0,0,0,0,0,0,0,0,-32296,0,0,0,4546,0,15775,0
14138,-1036,-8178,596,-45,16,1,31424,1,3,1000,256,36852,74,24,144,0,0,0,0,0,0,0,0,-32296,0,0,0,4547,0,15795,0
14148,-1032,-8158,594,-50,16,2,31424,5,-2,996,272,36849,75,24,144,0,0,0,0,0,0,0,0,-32296,0,0,0,4546,0,15815,0
14158,-1060,-8136,612,-42,13,4,31424,0,2,997,280,36848,82,24,144,0,0,0,0,0,0,0,0,-32296,0,0,0,4547,0,15835,0
14168,-998,-8202,600,-49,14,3,31423,2,-1,997,288,36848,86,24,144,0,0,0,0,0,0,0,0,-32296,0,0,0,4547,0,15855,0
14178,-1038,-8162,604,-51,10,-1,31423,-4,2,997,280,36850,80,24,144,0,0,0,0,0,0,0,0,-32296,0,0,0,4547,0,15875,0
14188,-1022,-8134,562,-56,13,8,31422,-6,1,1002,296,36855,73,24,144,0,0,0,0,0,0,0,0,-32296,0,0,0,4546,0,15895,0
14198,-1046,-8186,570,-55,15,2,31422,-2,2,998,288,36855,77,24,144,0,0,0,0,0,0,0,0,-32296,0,0,0,4547,0,15915,0
14208,-1042,-8188,580,-53,16,2,31422,0,1,997,280,36853,74,24,144,0,0,0,0,0,0,0,0,-32296,0,0,0,4547,0,15935,0
14218,-960,-8136,598,-54,12,5,31423,5,3,996,288,36851,73,24,144,0,0,0,0,0,0,0,0,-32296,0,0,0,4547,0,15955,0
14228,-992,-8206,584,-54,13,11,31423,0,-1,1001,288,36849,74,24,144,0,0,0,0,0,0,0,0,-32296,0,0,0,4548,0,15975,0
14238,-1026,-8146,596,-55,10,10,31423,2,0,1003,288,36849,72,24,144,0,0,0,0,0,0,0,0,-32296,0,0,0,4546,0,15995,0
14248,-1024,-8160,606,-49,12,8,31422,-3,-5,1002,272,36847,69,24,144,0,0,0,0,0,0,0,0,-32296,0,0,0,4546,0,16015,0
14258,-1014,-8202,596,-48,19,7,31423,-8,-6,996,280,36847,69,24,144,0,0,0,0,0,0,0,0,-32297,0,0,0,4547,0,16035,0
14268,-1040,-8170,598,-53,16,7,31423,-7,-6,997,280,36846,76,24,144,0,0,0,0,0,0,0,0,-32296,0,0,0,4546,0,16055,0
14278,-1012,-8154,574,-45,15,12,31422,-5,1,999,280,36847,72,24,144,0,0,0,0,0,0,0,0,-32297,0,0,0,4546,0,16075,0
14288,-1038,-8182,590,-52,12,7,31423,-1,-3,1000,280,36846,76,24,144,0,0,0,0,0,0,0,0,-32296,0,0,0,4546,0,16095,0
14298,-1054,-8120,600,-45,14,8,31424,5,1,994,272,36849,73,24,144,0,0,0,0,0,0,0,0,-32296,0,0,0,4547,0,16115,0
14308,-1026,-8180,582,-47,17,6,31424,0,1,996,272,36850,78,24,144,0,0,0,0,0,0,0,0,-32296,0,0,0,4546,0,16135,0
14318,-982,-8162,598,-50,15,13,31423,-1,-3,995,280,36850,83,24,144,0,0,0,0,0,0,0,0,-32296,0,0,0,4547,0,16155,0
14328,-980,-8152,614,-57,15,16,31423,-2,-7,995,288,36849,83,24,144,0,0,0,0,0,0,0,0,-32297,0,0,0,4547,0,16175,0
14338,-998,-8158,594,-53,10,13,31425,4,-1,1000,264,36846,76,24,144,0,0,0,0,0,0,0,0,-32296,0,0,0,4547,0,16195,0
14348,-990,-8170,554,-54,16,16,31424,2,0,1000,264,36845,68,24,144,0,0,0,0,0,0,0,0,-32296,0,0,0,4547,0,16215,0
14358,-1054,-8158,596,-53,18,13,31424,6,-7,993,280,36843,64,24,144,0,0,0,0,0,0,0,0,-32296,0,0,0,4548,0,16235,0
14368,-1082,-8178,598,-56,16,14,31425,6,-4,999,288,36845,67,24,144,0,0,0,0,0,0,0,0,-32296,0,0,0,4547,0,16255,0
14378,-1026,-8150,580,-51,16,6,31424,11,0,997,280,36845,67,24,144,0,0,0,0,0,0,0,0,-32296,0,0,0,4547,0,16275,0
14388,-1070,-8156,578,-44,14,11,31424,7,-2,998,272,36844,64,24,144,0,0,0,0,0,0,0,0,-32296,0,0,0,4547,0,16295,0
14398,-1060,-8170,568,-48,17,13,31425,5,4,996,280,36843,58,24,144,0,0,0,0,0,0,0,0,-32296,0,0,0,4547,0,16315,0
14408,-1044,-8160,634,-44,19,14,31424,2,2,999,272,36848,67,24,144,0,0,0,0,0,0,0,0,-32296,0,0,0,4547,0,16336,0
14418,-1036,-8136,636,-51,14,6,31424,0,2,995,288,36850,73,24,144,0,0,0,0,0,0,0,0,-32296,0,0,0,4546,0,16355,0
14428,-1022,-8146,602,-48,14,6,31424,0,-4,1002,288,36847,79,24,144,0,0,0,0,0,0,0,0,-32296,0,0,0,4547,0,16375,0
14438,-1026,-8174,572,-46,11,5,31425,0,3,1002,264,36840,81,24,144,0,0,0,0,0,0,0,0,-32296,0,0,0,4547,0,16395,0
14448,-1074,-8162,630,-52,17,-1,31423,-6,-1,999,288,36838,75,24,144,0,0,0,0,0,0,0,0,-32296,0,0,0,4547,0,16415,0
14458,-1032,-8162,600,-45,15,-3,31425,1,-1,998,272,36840,75,24,144,0,0,0,0,0,0,0,0,-32296,0,0,0,4546,0,16436,0
14468,-1032,-8144,570,-52,18,3,31424,-1,3,1000,288,36841,73,24,144,0,0,0,0,0,0,0,0,-32296,0,0,0,4547,0,16456,0
14478,-1042,-8196,600,-47,14,1,31424,-3,-1,1003,288,36842,70,24,144,0,0,0,0,0,0,0,0,-32296,0,0,0,4547,0,16476,0
14488,-1054,-8130,568,-54,13,-3,31424,0,-4,1001,280,36840,73,24,144,0,0,0,0,0,0,0,0,-32297,0,0,0,4546,0,16496,0
14498,-1046,-8120,574,-48,10,3,31425,3,0,996,280,36839,69,24,144,0,0,0,0,0,0,0,0,-32296,0,0,0,4546,0,16515,0
14508,-1078,-8184,572,-47,11,-3,31423,-5,1,992,280,36840,59,24,144,0,0,0,0,0,0,0,0,-32296,0,0,0,4546,0,16536,0
14518,-1014,-8144,582,-48,12,-2,31423,2,-2,999,288,36844,59,24,144,0,0,0,0,0,0,0,0,-32296,0,0,0,4547,0,16556,0
14528,-1006,-8158,576,-49,13,7,31424,-3,-6,996,272,36846,69,24,144,0,0,0,0,0,0,0,0,-32296,0,0,0,4547,0,16576,0
14538,-978,-8170,584,-44,10,5,31424,1,-2,1003,280,36845,69,24,144,0,0,0,0,0,0,0,0,-32296,0,0,0,4546,0,16596,0
14548,-972,-8136,592,-47,13,6,31424,0,1,997,280,36843,67,24,144,0,0,0,0,0,0,0,0,-32296,0,0,0,4546,0,16616,0
14558,-968,-8168,594,-46,16,6,31423,0,1,1001,288,36845,67,24,144,0,0,0,0,0,0,0,0,-32296,0,0,0,4547,0,16636,0
14568,-1016,-8158,594,-44,15,9,31424,-1,-1,997,280,36845,79,24,144,0,0,0,0,0,0,0,0,-32296,0,0,0,4546,0,16656,0
14578,-1020,-8158,582,-42,16,4,31423,-1,0,995,272,36843,83,24,144,0,0,0,0,0,0,0,0,-32296,0,0,0,4547,0,16676,0
14588,-1010,-8146,586,-53,12,12,31423,-7,6,997,280,36845,82,24,144,0,0,0,0,0,0,0,0,-32296,0,0,0,4547,0,16696,0
14598,-1052,-8184,612,-46,13,9,31424,0,-2,998,272,36860,80,24,144,0,0,0,0,0,0,0,0,-32296,0,0,0,4547,0,16716,0
14608,-1036,-8162,566,-53,15,12,31424,0,-2,995,280,36863,72,24,144,0,0,0,0,0,0,0,0,-32296,0,0,0,4547,0,16736,0
14618,-1026,-8164,568,-52,18,12,31424,5,3,996,288,36859,71,24,144,0,0,0,0,0,0,0,0,-32296,0,0,0,4546,0,16756,0
14628,-982,-8160,576,-50,15,8,31424,-1,-1,1002,288,36847,72,24,144,0,0,0,0,0,0,0,0,-32296,0,0,0,4547,0,16776,0
14638,-1020,-8174,588,-51,19,11,31424,-4,-2,996,272,36843,67,24,144,0,0,0,0,0,0,0,0,-32296,0,0,0,4547,0,16796,0
14648,-1008,-8140,568,-43,20,6,31424,4,1,994,272,36843,70,24,144,0,0,0,0,0,0,0,0,-32296,0,0,0,4547,0,16816,0
14658,-986,-8202,606,-46,14,11,31423,-5,-4,995,280,36842,77,24,144,0,0,0,0,0,0,0,0,-32296,0,0,0,4546,0,16836,0
14668,-982,-8154,598,-44,15,7,31423,-9,3,997,296,36841,76,24,144,0,0,0,0,0,0,0,0,-32296,0,0,0,4547,0,16856,0
14678,-1054,-8156,598,-46,17,10,31423,-3,1,998,280,36843,75,24,144,0,0,0,0,0,0,0,0,-32296,0,0,0,4546,0,16876,0
14688,-1038,-8190,616,-47,9,10,31425,4,3,997,272,36844,59,24,144,0,0,0,0,0,0,0,0,-32296,0,0,0,4547,0,16896,0
14698,-1012,-8154,622,-44,15,4,31423,-4,0,996,272,36844,53,24,144,0,0,0,0,0,0,0,0,-32296,0,0,0,4547,0,16916,0
14708,-1064,-8170,592,-55,11,10,31424,1,3,996,272,36844,58,24,144,0,0,0,0,0,0,0,0,-32296,0,0,0,4547,0,16936,0
14718,-1070,-8188,590,-55,15,5,31424,-10,-2,998,288,36849,66,24,144,0,0,0,0,0,0,0,0,-32296,0,0,0,4546,0,16956,0
14728,-998,-8152,588,-55,12,0,31424,-2,-2,996,272,36853,67,24,144,0,0,0,0,0,0,0,0,-32296,0,0,0,4548,0,16976,0
14738,-992,-8192,554,-50,15,-2,31424,0,-4,997,288,36855,72,24,144,0,0,0,0,0,0,0,0,-32296,0,0,0,4547,0,16996,0
14748,-980,-8168,586,-52,15,3,31425,4,4,1000,272,36856,74,24,144,0,0,0,0,0,0,0,0,-32296,0,0,0,4547,0,17016,0
14758,-1064,-8148,590,-50,16,2,31425,0,2,998,288,36849,73,24,144,0,0,0,0,0,0,0,0,-32296,0,0,0,4546,0,17037,0
14768,-1024,-8146,594,-46,14,7,31423,-9,-2,1000,296,36850,70,24,144,0,0,0,0,0,0,0,0,-32296,0,0,0,4547,0,17056,0
14778,-1044,-8164,572,-46,16,5,31424,0,0,1001,272,36850,68,24,144,0,0,0,0,0,0,0,0,-32296,0,0,0,4547,0,17076,0
14788,-996,-8160,586,-43,12,2,31423,-8,-1,994,272,36849,76,24,144,0,0,0,0,0,0,0,0,-32296,0,0,0,4547,0,17096,0
14798,-960,-8160,598,-45,15,1,31424,0,-5,1000,280,36847,77,24,144,0,0,0,0,0,0,0,0,-32296,0,0,0,4547,0,17116,0
14808,-1032,-8158,606,-48,12,4,31423,2,0,998,280,36851,70,24,144,0,0,0,0,0,0,0,0,-32296,0,0,0,4547,0,17136,0
14818,-978,-8160,618,-49,14,9,31422,-5,2,999,288,36858,78,24,144,0,0,0,0,0,0,0,0,-32296,0,0,0,4547,0,17157,0
14828,-1000,-8134,566,-52,13,2,31422,-4,0,1001,280,36860,80,24,144,0,0,0,0,0,0,0,0,-32296,0,0,0,4547,0,17177,0
14838,-1024,-8168,552,-49,19,4,31424,7,-1,997,272,36854,77,24,144,0,0,0,0,0,0,0,0,-32296,0,0,0,4547,0,17197,0
14848,-970,-8162,570,-49,12,8,31422,0,-4,996,288,36851,77,24,144,0,0,0,0,0,0,0,0,-32296,0,0,0,4546,0,17217,0
14858,-1008,-8116,606,-51,9,11,31422,0,6,997,280,36850,75,24,144,0,0,0,0,0,0,0,0,-32296,0,0,0,4547,0,17237,0
14868,-1056,-8194,600,-49,16,6,31424,3,-3,1001,272,36852,74,24,144,0,0,0,0,0,0,0,0,-32296,0,0,0,4547,0,17257,0
14878,-1080,-8136,556,-51,19,10,31423,-1,1,998,280,36852,67,24,144,0,0,0,0,0,0,0,0,-32296,0,0,0,4546,0,17277,0
14888,-1068,-8192,622,-48,24,6,31423,3,-2,999,288,36851,64,24,144,0,0,0,0,0,0,0,0,-32296,0,0,0,4546,0,17297,0
14898,-1002,-8150,582,-55,17,1,31422,0,-5,997,280,36854,63,24,144,0,0,0,0,0,0,0,0,-32296,0,0,0,4545,0,17317,0
14908,-1032,-8174,596,-45,12,6,31423,8,3,998,280,36854,62,24,144,0,0,0,0,0,0,0,0,-32297,0,0,0,4547,0,17337,0
14918,-1036,-8134,622,-55,13,5,31422,-1,2,998,280,36855,66,24,144,0,0,0,0,0,0,0,0,-32296,0,0,0,4546,0,17357,0
14928,-1038,-8126,588,-58,12,6,31421,-9,-4,996,272,36857,68,24,144,0,0,0,0,0,0,0,0,-32296,0,0,0,4547,0,17377,0
14938,-992,-8196,616,-55,17,2,31422,-7,-1,999,280,36856,75,24,144,0,0,0,0,0,0,0,0,-32296,0,0,0,4546,0,17397,0
14948,-1024,-8132,596,-50,17,3,31423,4,-2,994,280,36856,73,24,144,0,0,0,0,0,0,0,0,-32296,0,0,0,4546,0,17417,0
14958,-1012,-8204,582,-51,16,-1,31423,-3,1,998,280,36852,76,24,144,0,0,0,0,0,0,0,0,-32296,0,0,0,4546,0,17437,0
14968,-1004,-8170,578,-54,16,6,31423,-1,4,996,280,36857,84,24,144,0,0,0,0,0,0,0,0,-32296,0,0,0,4547,0,17457,0
14978,-988,-8154,558,-50,11,5,31422,-6,1,1000,288,36858,87,24,144,0,0,0,0,0,0,0,0,-32296,0,0,0,4547,0,17477,0
14988,-1000,-8170,574,-51,17,16,31423,-1,3,999,264,36857,85,24,144,0,0,0,0,0,0,0,0,-32296,0,0,0,4546,0,17497,0
14998,-996,-8168,584,-51,11,16,31423,11,-3,996,280,36854,71,24,144,0,0,0,0,0,0,0,0,-32296,0,0,0,4546,0,17517,0
15008,-1010,-8152,600,-55,20,19,31425,3,2,996,280,36855,65,24,144,0,0,0,0,0,0,0,0,-32296,0,0,0,4547,0,17537,0
15018,-1040,-8162,588,-52,12,20,31424,1,1,998,272,36858,66,24,144,0,0,0,0,0,0,0,0,-32296,0,0,0,4547,0,17557,0
15028,-1002,-8160,588,-50,16,16,31424,-1,-3,1001,288,36861,70,24,144,0,0,0,0,0,0,0,0,-32296,0,0,0,4547,0,17577,0
15038,-1014,-8144,586,-55,19,19,31425,7,-2,997,280,36861,69,24,144,0,0,0,0,0,0,0,0,-32296,0,0,0,4547,0,17597,0
15048,-1016,-8158,570,-49,14,16,31425,2,2,997,272,36860,70,24,144,0,0,0,0,0,0,0,0,-32296,0,0,0,4547,0,17617,0
15058,-1052,-8170,578,-52,17,18,31425,2,-2,999,280,36858,70,24,144,0,0,0,0,0,0,0,0,-32296,0,0,0,4546,0,17637,0
15068,-1044,-8180,586,-41,17,13,31424,-6,-7,997,280,36851,77,24,144,0,0,0,0,0,0,0,0,-32296,0,0,0,4547,0,17657,0
15078,-1034,-8156,604,-48,17,23,31426,1,0,1003,272,36850,75,24,144,0,0,0,0,0,0,0,0,-32296,0,0,0,4547,0,17677,0
15088,-1024,-8200,562,-45,14,19,31426,2,6,1001,288,36850,77,24,144,0,0,0,0,0,0,0,0,-32296,0,0,0,4546,0,17697,0
15098,-1032,-8134,584,-44,18,17,31426,-3,-1,998,272,36851,80,24,144,0,0,0,0,0,0,0,0,-32296,0,0,0,4548,0,17717,0
15108,-1038,-8130,626,-48,9,22,31428,-1,3,996,288,36851,84,24,144,0,0,0,0,0,0,0,0,-32296,0,0,0,4547,0,17737,0
15118,-1054,-8174,644,-48,13,15,31431,2,6,996,296,36851,80,24,144,0,0,0,0,0,0,0,0,-32296,0,0,0,4547,0,17757,0
15128,-1024,-8118,588,-57,14,19,31434,6,3,997,304,36851,85,24,144,0,0,0,0,0,0,0,0,-32296,0,0,0,4549,0,17777,0
15138,-1046,-8164,580,-55,9,16,31437,3,5,1001,304,36859,78,24,144,0,0,0,0,0,0,0,0,-32296,0,0,0,4548,0,17797,0
15148,-1032,-8170,594,-52,10,16,31444,11,7,998,280,36859,76,24,144,0,0,0,0,0,0,0,0,-32296,0,0,0,4548,0,17817,0
15158,-1062,-8200,586,-57,15,17,31446,5,0,999,280,36858,78,24,144,0,0,0,0,0,0,0,0,-32296,0,0,0,4548,0,17837,0
15168,-1082,-8168,598,-50,18,3,31445,-2,-11,993,280,36847,62,24,144,0,0,0,0,0,0,0,0,-32296,0,0,0,4549,0,17857,0
15178,-1020,-8166,600,-54,17,3,31445,-1,-2,1000,288,36845,62,24,144,0,0,0,0,0,0,0,0,-32296,0,0,0,4548,0,17877,0
15188,-1044,-8182,612,-54,14,8,31446,2,1,1001,280,36848,65,24,144,0,0,0,0,0,0,0,0,-32296,0,0,0,4548,0,17897,0
15198,-1040,-8148,596,-53,11,9,31446,0,-3,997,280,36848,70,24,144,0,0,0,0,0,0,0,0,-32296,0,0,0,4548,0,17917,0
15208,-1044,-8170,594,-44,11,11,31445,-1,6,1002,280,36847,56,24,144,0,0,0,0,0,0,0,0,-32296,0,0,0,4548,0,17937,0
15218,-1014,-8148,576,-48,14,13,31447,-1,-1,992,280,36848,61,24,144,0,0,0,0,0,0,0,0,-32296,0,0,0,4548,0,17957,0
15228,-1040,-8168,606,-43,12,11,31448,3,-4,1000,288,36854,79,24,144,0,0,0,0,0,0,0,0,-32296,0,0,0,4548,0,17977,0
15238,-1058,-8156,600,-48,12,4,31447,4,3,997,288,36855,87,24,144,0,0,0,0,0,0,0,0,-32296,0,0,0,4548,0,17997,0
15248,-1074,-8164,560,-54,13,7,31447,-3,4,996,288,36851,80,24,144,0,0,0,0,0,0,0,0,-32296,0,0,0,4549,0,18017,0
15258,-1040,-8144,566,-46,13,2,31446,1,2,997,280,36847,71,24,144,0,0,0,0,0,0,0,0,-32296,0,0,0,4548,0,18038,0
15268,-1056,-8198,570,-54,21,4,31447,-3,-4,998,272,36844,72,24,144,0,0,0,0,0,0,0,0,-32296,0,0,0,4548,0,18057,0
15278,-1038,-8140,592,-47,14,3,31448,0,-3,999,280,36846,73,24,144,0,0,0,0,0,0,0,0,-32296,0,0,0,4549,0,18077,0
15288,-1040,-8148,576,-51,17,11,31448,0,5,999,280,36846,68,24,144,0,0,0,0,0,0,0,0,-32296,0,0,0,4548,0,18097,0
15298,-980,-8178,592,-51,21,10,31446,-7,6,995,272,36844,70,24,144,0,0,0,0,0,0,0,0,-32296,0,0,0,4548,0,18117,0
15308,-1020,-8150,582,-50,19,10,31447,-1,-3,1000,288,36843,68,24,144,0,0,0,0,0,0,0,0,-32296,0,0,0,4549,0,18137,0
15318,-1004,-8154,612,-54,17,9,31447,-5,-5,999,296,36846,73,24,144,0,0,0,0,0,0,0,0,-32296,0,0,0,4549,0,18157,0
15328,-1038,-8154,590,-47,16,12,31448,2,-3,1003,280,36844,66,24,144,0,0,0,0,0,0,0,0,-32296,0,0,0,4548,0,18177,0
15338,-1132,-8162,564,-46,14,7,31448,1,-2,997,288,36852,58,24,144,0,0,0,0,0,0,0,0,-32296,0,0,0,4547,0,18197,0
15348,-988,-8146,584,-43,15,11,31447,0,2,1001,280,36850,56,24,144,0,0,0,0,0,0,0,0,-32296,0,0,0,4548,0,18217,0
15358,-1076,-8164,588,-47,15,9,31449,1,2,1000,280,36848,72,24,144,0,0,0,0,0,0,0,0,-32296,0,0,0,4548,0,18237,0
15368,-1020,-8164,558,-43,11,14,31449,-1,-2,997,296,36844,74,24,144,0,0,0,0,0,0,0,0,-32296,0,0,0,4548,0,18257,0
15378,-1008,-8152,592,-48,11,14,31449,0,2,999,288,36843,80,24,144,0,0,0,0,0,0,0,0,-32296,0,0,0,4549,0,18277,0
15388,-998,-8152,570,-52,14,9,31449,-2,2,999,272,36843,77,24,144,0,0,0,0,0,0,0,0,-32296,0,0,0,4548,0,18297,0
15398,-1048,-8164,582,-43,14,11,31450,2,0,996,272,36842,71,24,144,0,0,0,0,0,0,0,0,-32296,0,0,0,4549,0,18317,0
15408,-1032,-8152,592,-53,15,8,31450,1,3,997,280,36843,67,24,144,0,0,0,0,0,0,0,0,-32296,0,0,0,4548,0,18338,0
15418,-1050,-8166,602,-48,12,4,31451,6,5,998,288,36845,62,24,144,0,0,0,0,0,0,0,0,-32296,0,0,0,4548,0,18358,0
15428,-1046,-8162,594,-48,12,4,31451,2,0,999,272,36844,59,24,144,0,0,0,0,0,0,0,0,-32296,0,0,0,4548,0,18378,0
15438,-1032,-8154,586,-55,17,4,31451,-2,0,1006,280,36841,61,24,144,0,0,0,0,0,0,0,0,-32296,0,0,0,4548,0,18398,0
15448,-1034,-8164,584,-47,14,4,31452,9,-1,998,296,36838,64,24,144,0,0,0,0,0,0,0,0,-32296,0,0,0,4549,0,18418,0
15458,-1044,-8182,588,-52,17,8,31450,-1,1,999,280,36840,72,24,144,0,0,0,0,0,0,0,0,-32296,0,0,0,4548,0,18438,0
15468,-1016,-8122,598,-43,13,7,31450,-7,-3,995,288,36839,68,24,144,0,0,0,0,0,0,0,0,-32296,0,0,0,4548,0,18458,0
15478,-1014,-8154,610,-51,15,12,31451,4,2,1000,272,36837,75,24,144,0,0,0,0,0,0,0,0,-32296,0,0,0,4548,0,18478,0
15488,-1028,-8160,592,-46,15,8,31450,0,-1,1000,280,36837,72,24,144,0,0,0,0,0,0,0,0,-32296,0,0,0,4549,0,18498,0
15498,-1014,-8170,584,-48,10,9,31451,11,2,997,272,36838,63,24,144,0,0,0,0,0,0,0,0,-32296,0,0,0,4548,0,18518,0
15508,-1032,-8152,554,-44,12,8,31451,0,0,1003,280,36838,62,24,144,0,0,0,0,0,0,0,0,-32296,0,0,0,4548,0,18538,0
15518,-1022,-8156,578,-43,17,8,31451,0,-2,1002,296,36839,64,24,144,0,0,0,0,0,0,0,0,-32296,0,0,0,4549,0,18558,0
15528,-1026,-8146,594,-54,13,9,31452,5,1,997,288,36841,71,24,144,0,0,0,0,0,0,0,0,-32296,0,0,0,4548,0,18578,0
15538,-1040,-8160,564,-48,14,5,31451,-6,-2,999,288,36841,67,24,144,0,0,0,0,0,0,0,0,-32296,0,0,0,4549,0,18598,0
15548,-1030,-8170,588,-51,14,8,31453,11,-1,1002,280,36840,67,24,144,0,0,0,0,0,0,0,0,-32296,0,0,0,4549,0,18618,0
15558,-1040,-8164,628,-42,14,8,31451,1,-4,999,280,36848,70,24,144,0,0,0,0,0,0,0,0,-32297,0,0,0,4549,0,18638,0
15568,-1010,-8136,590,-45,16,12,31451,0,-2,996,280,36849,72,24,144,0,0,0,0,0,0,0,0,-32296,0,0,0,4548,0,18658,0
15578,-998,-8166,602,-52,17,9,31451,-5,-1,999,272,36848,69,24,144,0,0,0,0,0,0,0,0,-32296,0,0,0,4548,0,18678,0
15588,-1050,-8132,612,-46,11,7,31452,0,5,1001,272,36840,64,24,144,0,0,0,0,0,0,0,0,-32296,0,0,0,4549,0,18698,0
15598,-1058,-8144,628,-51,17,7,31452,-8,-1,1000,272,36840,72,24,144,0,0,0,0,0,0,0,0,-32296,0,0,0,4548,0,18718,0
15608,-1068,-8168,600,-46,12,2,31452,1,2,1000,280,36844,77,24,144,0,0,0,0,0,0,0,0,-32296,0,0,0,4548,0,18738,0
15618,-1044,-8174,586,-52,19,10,31451,-3,2,1000,272,36844,75,24,144,0,0,0,0,0,0,0,0,-32296,0,0,0,4548,0,18758,0
15628,-972,-8170,592,-42,14,7,31453,3,-7,996,288,36846,70,24,144,0,0,0,0,0,0,0,0,-32296,0,0,0,4549,0,18778,0
15638,-1006,-8174,586,-43,16,10,31452,2,-1,1000,280,36845,69,24,144,0,0,0,0,0,0,0,0,-32296,0,0,0,4548,0,18798,0
15648,-1044,-8172,592,-48,12,10,31453,5,-4,995,280,36847,69,24,144,0,0,0,0,0,0,0,0,-32296,0,0,0,4548,0,18818,0
15658,-1022,-8150,610,-46,9,12,31451,1,-3,996,280,36851,68,24,144,0,0,0,0,0,0,0,0,-32296,0,0,0,4548,0,18838,0
15668,-1032,-8164,586,-51,12,13,31452,1,2,996,288,36849,71,24,144,0,0,0,0,0,0,0,0,-32296,0,0,0,4549,0,18858,0
15678,-1024,-8172,620,-51,13,14,31453,-4,-1,1001,280,36847,71,24,144,0,0,0,0,0,0,0,0,-32296,0,0,0,4548,0,18878,0
15688,-992,-8170,574,-59,15,13,31453,-1,1,996,280,36846,75,24,144,0,0,0,0,0,0,0,0,-32296,0,0,0,4549,0,18898,0
15698,-1048,-8164,588,-53,15,11,31454,4,1,994,272,36844,73,24,144,0,0,0,0,0,0,0,0,-32296,0,0,0,4548,0,18918,0
15708,-1038,-8134,598,-52,13,10,31454,-1,1,995,288,36845,75,24,144,0,0,0,0,0,0,0,0,-32296,0,0,0,4548,0,18938,0
15718,-998,-8154,608,-58,16,13,31455,0,2,1000,280,36844,76,24,144,0,0,0,0,0,0,0,0,-32296,0,0,0,4549,0,18958,0
15728,-1044,-8178,592,-50,18,16,31455,8,-7,1001,280,36844,76,24,144,0,0,0,0,0,0,0,0,-32296,0,0,0,4549,0,18978,0
15738,-1070,-8148,580,-51,23,19,31456,-6,1,998,280,36843,75,24,144,0,0,0,0,0,0,0,0,-32296,0,0,0,4549,0,18998,0
15748,-1010,-8148,578,-44,13,11,31457,3,-4,1004,264,36843,72,24,144,0,0,0,0,0,0,0,0,-32296,0,0,0,4550,0,19018,0
15758,-1036,-8166,586,-46,17,14,31456,-4,-2,1001,256,36843,72,24,144,0,0,0,0,0,0,0,0,-32296,0,0,0,4548,0,19038,0
15768,-1086,-8160,566,-38,12,10,31455,-3,-4,996,272,36850,84,24,144,0,0,0,0,0,0,0,0,-32296,0,0,0,4549,0,19058,0
15778,-1018,-8180,556,-42,13,7,31458,5,6,1000,264,36853,85,24,144,0,0,0,0,0,0,0,0,-32296,0,0,0,4549,0,19078,0
15788,-1062,-8204,548,-49,17,9,31457,0,2,1004,264,36855,79,24,144,0,0,0,0,0,0,0,0,-32296,0,0,0,4549,0,19098,0
15798,-1058,-8166,588,-33,9,8,31457,1,-4,997,256,36848,68,24,144,0,0,0,0,0,0,0,0,-32296,0,0,0,4549,0,19118,0
15808,-1044,-8184,624,-52,18,9,31457,-6,-6,993,272,36844,64,24,144,0,0,0,0,0,0,0,0,-32296,0,0,0,4549,0,19138,0
15818,-1056,-8150,636,-48,13,10,31457,0,2,1002,272,36846,65,24,144,0,0,0,0,0,0,0,0,-32296,0,0,0,4550,0,19159,0
15828,-1052,-8172,580,-50,14,5,31458,1,0,999,248,36849,60,24,144,0,0,0,0,0,0,0,0,-32296,0,0,0,4550,0,19179,0
15838,-1058,-8160,606,-53,16,13,31458,-1,-3,1003,256,36852,60,24,144,0,0,0,0,0,0,0,0,-32296,0,0,0,4550,0,19199,0
15848,-1052,-8146,560,-53,16,8,31459,0,2,995,256,36852,59,24,144,0,0,0,0,0,0,0,0,-32296,0,0,0,4549,0,19219,0
15858,-1072,-8150,600,-54,16,9,31458,0,-2,998,248,36852,75,24,144,0,0,0,0,0,0,0,0,-32296,0,0,0,4550,0,19239,0
15868,-1072,-8146,606,-51,14,7,31459,0,-2,998,264,36855,73,24,144,0,0,0,0,0,0,0,0,-32296,0,0,0,4549,0,19259,0
15878,-1042,-8166,578,-46,17,4,31458,0,2,1003,264,36868,83,24,144,0,0,0,0,0,0,0,0,-32296,0,0,0,4549,0,19279,0
15888,-1026,-8164,602,-45,14,7,31459,1,0,999,248,36878,83,24,144,0,0,0,0,0,0,0,0,-32296,0,0,0,4550,0,19299,0
15898,-1040,-8174,604,-44,12,3,31459,0,2,998,248,36879,83,24,144,0,0,0,0,0,0,0,0,-32296,0,0,0,4550,0,19319,0
15908,-1032,-8174,596,-43,8,3,31460,3,-2,999,248,36868,81,24,144,0,0,0,0,0,0,0,0,-32296,0,0,0,4549,0,19339,0
15918,-1086,-8160,540,-41,10,5,31459,2,2,999,256,36858,71,24,144,0,0,0,0,0,0,0,0,-32296,0,0,0,4548,0,19359,0
15928,-1056,-8158,592,-50,13,0,31459,2,-4,998,264,36853,65,24,144,0,0,0,0,0,0,0,0,-32296,0,0,0,4549,0,19379,0
15938,-1064,-8180,626,-43,10,6,31458,0,-3,996,256,36852,70,24,144,0,0,0,0,0,0,0,0,-32296,0,0,0,4549,0,19399,0
15948,-1028,-8156,584,-52,20,4,31460,-1,2,1002,256,36852,68,24,144,0,0,0,0,0,0,0,0,-32296,0,0,0,4549,0,19419,0
15958,-1050,-8166,614,-49,17,4,31459,-5,-1,991,264,36853,61,24,144,0,0,0,0,0,0,0,0,-32296,0,0,0,4549,0,19439,0
15968,-1030,-8192,576,-54,16,6,31459,-1,5,998,264,36858,57,24,144,0,0,0,0,0,0,0,0,-32296,0,0,0,4549,0,19459,0
15978,-988,-8186,588,-53,15,11,31459,0,2,1000,272,36861,66,24,144,0,0,0,0,0,0,0,0,-32296,0,0,0,4550,0,19479,0
15988,-942,-8152,582,-49,19,11,31460,3,0,997,248,36860,69,24,144,0,0,0,0,0,0,0,0,-32296,0,0,0,4550,0,19499,0
15998,-1020,-8146,610,-51,17,18,31459,-1,4,1001,256,36860,69,24,144,0,0,0,0,0,0,0,0,-32296,0,0,0,4550,0,19519,0
16008,-1034,-8170,588,-43,18,15,31460,7,2,997,256,36854,69,24,144,0,0,0,0,0,0,0,0,-32296,0,0,0,4549,0,19539,0
16018,-1042,-8154,610,-49,20,13,31458,-6,0,1001,256,36853,76,24,144,0,0,0,0,0,0,0,0,-32296,0,0,0,4550,0,19559,0
16028,-1100,-8164,588,-43,14,13,31459,-2,-3,1000,264,36855,72,24,144,0,0,0,0,0,0,0,0,-32296,0,0,0,4549,0,19579,0
16038,-1068,-8152,574,-46,16,16,31461,1,3,996,264,36855,71,24,144,0,0,0,0,0,0,0,0,-32296,0,0,0,4550,0,19599,0
16048,-1068,-8136,578,-43,14,12,31460,-3,2,998,256,36858,71,24,144,0,0,0,0,0,0,0,0,-32296,0,0,0,4549,0,19619,0
16058,-1038,-8150,588,-42,13,15,31462,9,2,994,272,36855,81,24,144,0,0,0,0,0,0,0,0,-32296,0,0,0,4550,0,19639,0
16068,-1046,-8166,600,-55,20,15,31462,4,0,1003,264,36851,86,24,144,0,0,0,0,0,0,0,0,-32296,0,0,0,4550,0,19659,0
16078,-1080,-8148,590,-49,6,9,31462,8,-1,995,272,36853,74,24,144,0,0,0,0,0,0,0,0,-32296,0,0,0,4550,0,19679,0
16088,-1088,-8144,574,-58,17,13,31463,1,1,998,280,36852,66,24,144,0,0,0,0,0,0,0,0,-32296,0,0,0,4549,0,19699,0
16098,-1000,-8162,578,-51,12,15,31461,0,1,999,256,36856,69,24,144,0,0,0,0,0,0,0,0,-32296,0,0,0,4549,0,19719,0
16108,-1076,-8138,610,-52,23,12,31463,5,1,994,272,36853,72,24,144,0,0,0,0,0,0,0,0,-32296,0,0,0,4549,0,19739,0
16118,-1058,-8170,642,-55,18,17,31462,-1,4,1001,280,36850,81,24,144,0,0,0,0,0,0,0,0,-32296,0,0,0,4550,0,19759,0
16128,-1038,-8158,602,-50,15,14,31464,0,3,998,264,36849,77,24,144,0,0,0,0,0,0,0,0,-32296,0,0,0,4550,0,19779,0
16138,-1082,-8160,594,-56,19,12,31464,5,-3,999,272,36849,74,24,144,0,0,0,0,0,0,0,0,-32296,0,0,0,4549,0,19799,0
16148,-1430,-8538,742,-10,71,-86,31429,-132,-69,208,0,36851,61,24,144,0,0,0,0,0,0,0,0,-32296,0,0,0,4548,0,19819,0
16158,-1936,-7962,528,-40,82,-126,31363,-121,-146,235,0,36853,64,24,144,0,0,0,0,0,0,0,0,-32296,0,0,0,4544,0,19841,0
16168,-1104,-8072,640,-42,108,-117,31320,-81,-6,162,0,36852,79,24,144,0,0,0,0,0,0,0,0,-32296,0,0,0,4541,0,19861,0
16178,-632,-8148,682,-49,50,-60,31301,-22,96,73,0,36856,82,24,144,0,0,0,0,0,0,0,0,-32296,0,0,0,4540,0,19881,0
16188,-788,-8196,554,-50,1,-19,31292,-24,56,56,0,36857,86,24,144,0,0,0,0,0,0,0,0,-32296,0,0,0,4538,0,19901,0
16198,-1172,-8148,486,-41,9,-23,31275,-32,3,77,0,36861,84,24,144,0,0,0,0,0,0,0,0,-32296,0,0,0,4539,0,19921,0
16208,-1136,-8126,598,-36,24,-26,31265,-12,4,36,0,36859,77,24,144,0,0,0,0,0,0,0,0,-32296,0,0,0,4537,0,19941,0
16218,-818,-8164,756,-42,21,-13,31266,3,26,2,0,36852,66,24,144,0,0,0,0,0,0,0,0,-32296,0,0,0,4537,0,19961,0
16228,-906,-8162,678,-57,9,9,31264,-2,15,7,0,36853,66,24,144,0,0,0,0,0,0,0,0,-32295,0,0,0,4537,0,19981,0
16238,-1078,-8150,550,-59,9,14,31265,0,-2,2,0,36855,65,24,144,0,0,0,0,0,0,0,0,-32296,0,0,0,4536,0,20001,0
16248,-1116,-8156,444,-47,23,-1,31265,0,1,0,0,36856,68,24,144,0,0,0,0,0,0,0,0,-32295,0,0,0,4536,0,20021,0
16258,-1032,-8174,552,-43,20,1,31264,-5,2,3,0,36851,66,24,144,0,0,0,0,0,0,0,0,-32295,0,0,0,4537,0,20041,0
16268,-952,-8158,674,-40,12,9,31264,0,6,4,0,36848,67,24,144,0,0,0,0,0,0,0,0,-32295,0,0,0,4537,0,20061,0
16278,-1000,-8168,666,-55,14,7,31262,-1,0,2,0,36852,66,24,144,0,0,0,0,0,0,0,0,-32295,0,0,0,4537,0,20081,0
16288,-1066,-8152,560,-51,14,4,31263,-2,-1,1,0,36854,81,24,144,0,0,0,0,0,0,0,0,-32295,0,0,0,4536,0,20101,0
16298,-1060,-8166,522,-54,20,6,31263,-4,-3,1,0,36856,74,24,144,0,0,0,0,0,0,0,0,-32295,0,0,0,4537,0,20121,0
16308,-988,-8176,586,-45,17,4,31263,1,-1,4,0,36855,72,24,144,0,0,0,0,0,0,0,0,-32296,0,0,0,4537,0,20141,0
16318,-976,-8172,620,-44,15,9,31262,-2,-4,2,0,36849,63,24,144,0,0,0,0,0,0,0,0,-32296,0,0,0,4537,0,20161,0
16328,-964,-8182,616,-44,16,17,31262,1,3,2,0,36848,64,24,144,0,0,0,0,0,0,0,0,-32296,0,0,0,4536,0,20181,0
16338,-1014,-8170,564,-43,17,17,31262,0,2,1,0,36848,67,24,144,0,0,0,0,0,0,0,0,-32296,0,0,0,4536,0,20201,0
16348,-1044,-8152,584,-39,16,18,31262,3,6,0,0,36848,66,24,144,0,0,0,0,0,0,0,0,-32296,0,0,0,4536,0,20221,0
16358,-1018,-8138,600,-43,19,16,31262,6,0,3,0,36847,62,24,144,0,0,0,0,0,0,0,0,-32295,0,0,0,4537,0,20241,0
16368,-996,-8164,596,-48,16,16,31261,-9,0,2,0,36845,63,24,144,0,0,0,0,0,0,0,0,-32296,0,0,0,4537,0,20261,0
16378,-1026,-8150,602,-46,13,15,31263,0,-1,3,0,36847,59,24,144,0,0,0,0,0,0,0,0,-32296,0,0,0,4537,0,20281,0
16388,-1038,-8164,590,-44,11,13,31262,-2,-4,0,0,36854,64,24,144,0,0,0,0,0,0,0,0,-32296,0,0,0,4537,0,20301,0
16398,-1044,-8164,626,-48,10,9,31262,0,2,1,0,36852,68,24,144,0,0,0,0,0,0,0,0,-32296,0,0,0,4537,0,20321,0
16408,-1034,-8162,634,-51,19,7,31263,10,4,3,0,36852,71,24,144,0,0,0,0,0,0,0,0,-32295,0,0,0,4537,0,20341,0
16418,-1020,-8154,602,-51,16,10,31263,3,-1,0,0,36845,76,24,144,0,0,0,0,0,0,0,0,-32296,0,0,0,4537,0,20361,0
16428,-1026,-8152,586,-52,16,9,31262,-1,1,2,0,36848,76,24,144,0,0,0,0,0,0,0,0,-32296,0,0,0,4537,0,20381,0
16438,-1038,-8188,592,-48,5,11,31264,8,-1,1,0,36849,69,24,144,0,0,0,0,0,0,0,0,-32295,0,0,0,4537,0,20401,0
16448,-1040,-8176,548,-53,16,3,31263,0,0,0,0,36848,62,24,144,0,0,0,0,0,0,0,0,-32296,0,0,0,4537,0,20421,0
16458,-1032,-8146,592,-51,15,7,31262,1,0,2,0,36846,57,24,144,0,0,0,0,0,0,0,0,-32296,0,0,0,4537,0,20441,0
16468,-1054,-8182,600,-45,16,4,31262,-6,1,2,0,36844,65,24,144,0,0,0,0,0,0,0,0,-32295,0,0,0,4537,0,20461,0
16478,-1030,-8152,586,-45,8,1,31262,-2,-1,1,0,36842,60,24,144,0,0,0,0,0,0,0,0,-32296,0,0,0,4536,0,20481,0
16488,-994,-8174,612,-47,14,4,31262,-1,1,1,0,36852,61,24,144,0,0,0,0,0,0,0,0,-32295,0,0,0,4538,0,20501,0
16498,-1074,-8180,600,-51,12,3,31263,0,-2,3,0,36855,66,24,144,0,0,0,0,0,0,0,0,-32296,0,0,0,4537,0,20521,0
16508,-1040,-8160,622,-50,11,1,31263,7,4,3,0,36855,67,24,144,0,0,0,0,0,0,0,0,-32296,0,0,0,4537,0,20541,0
16518,-994,-8134,612,-46,10,-3,31262,0,-3,2,0,36847,69,24,144,0,0,0,0,0,0,0,0,-32296,0,0,0,4537,0,20561,0
16528,-1032,-8144,588,-49,9,-1,31261,4,-1,3,0,36846,67,24,144,0,0,0,0,0,0,0,0,-32296,0,0,0,4536,0,20581,0
16538,-1022,-8142,584,-46,16,-1,31262,2,-2,1,0,36846,65,24,144,0,0,0,0,0,0,0,0,-32296,0,0,0,4537,0,20601,0
16548,-1022,-8152,634,-48,10,1,31259,-8,1,1,0,36845,76,24,144,0,0,0,0,0,0,0,0,-32296,0,0,0,4537,0,20621,0
16558,-1034,-8180,616,-49,15,0,31261,-4,-4,4,0,36846,73,24,144,0,0,0,0,0,0,0,0,-32296,0,0,0,4537,0,20641,0
16568,-1004,-8166,598,-49,14,-3,31259,-3,0,1,0,36849,67,24,144,0,0,0,0,0,0,0,0,-32296,0,0,0,4536,0,20661,0
16578,-1026,-8138,614,-51,13,-3,31260,1,0,3,0,36849,67,24,144,0,0,0,0,0,0,0,0,-32296,0,0,0,4537,0,20681,0
16588,-998,-8164,614,-50,13,-2,31261,1,-3,4,0,36852,65,24,144,0,0,0,0,0,0,0,0,-32296,0,0,0,4536,0,20701,0
16598,-1018,-8160,602,-51,9,5,31259,-2,0,2,0,36853,64,24,144,0,0,0,0,0,0,0,0,-32296,0,0,0,4536,0,20721,0
16608,-990,-8142,598,-47,11,2,31259,-2,4,3,0,36855,66,24,144,0,0,0,0,0,0,0,0,-32296,0,0,0,4537,0,20741,0
16618,-1026,-8176,574,-46,13,5,31260,0,-3,5,0,36855,59,24,144,0,0,0,0,0,0,0,0,-32296,0,0,0,4536,0,20761,0
16628,-1010,-8152,568,-49,11,1,31260,4,1,4,0,36849,55,24,144,0,0,0,0,0,0,0,0,-32296,0,0,0,4536,0,20781,0
16638,-1006,-8170,592,-47,12,2,31258,-4,2,4,0,36850,49,24,144,0,0,0,0,0,0,0,0,-32295,0,0,0,4537,0,20801,0
16648,-998,-8168,634,-50,14,5,31256,-7,-4,2,0,36854,52,24,144,0,0,0,0,0,0,0,0,-32295,0,0,0,4537,0,20821,0
16658,-1014,-8152,614,-47,11,4,31257,-7,-2,2,0,36856,51,24,144,0,0,0,0,0,0,0,0,-32296,0,0,0,4536,0,20846,0
16668,-996,-8122,622,-47,14,4,31258,-4,-7,2,0,36852,54,24,144,0,0,0,0,0,0,0,0,-32296,0,0,0,4536,0,20866,0
16678,-1002,-8152,608,-51,15,4,31257,5,3,2,0,36848,63,24,144,0,0,0,0,0,0,0,0,-32296,0,0,0,4536,0,20886,0
16688,-1004,-8142,588,-52,15,4,31258,4,3,0,0,36851,68,24,144,0,0,0,0,0,0,0,0,-32295,0,0,0,4536,0,20906,0
16698,-988,-8154,586,-59,17,12,31256,-1,-2,-1,0,36857,79,24,144,0,0,0,0,0,0,0,0,-32296,0,0,0,4536,0,20926,0
16708,-1014,-8162,584,-51,14,9,31257,-2,4,3,0,36857,70,24,144,0,0,0,0,0,0,0,0,-32295,0,0,0,4536,0,20946,0
16718,-1016,-8178,602,-51,14,17,31257,-3,0,1,0,36855,86,24,144,0,0,0,0,0,0,0,0,-32296,0,0,0,4536,0,20966,0
16728,-1036,-8182,592,-55,14,10,31257,0,1,0,0,36848,79,24,144,0,0,0,0,0,0,0,0,-32296,0,0,0,4536,0,20986,0
16738,-1020,-8150,584,-44,15,5,31257,-3,-6,3,0,36850,77,24,144,0,0,0,0,0,0,0,0,-32296,0,0,0,4536,0,21006,0
16748,-1042,-8168,598,-43,16,7,31257,1,-2,0,0,36853,70,24,144,0,0,0,0,0,0,0,0,-32296,0,0,0,4536,0,21026,0
16758,-1042,-8168,610,-48,17,10,31258,0,2,2,0,36853,73,24,144,0,0,0,0,0,0,0,0,-32295,0,0,0,4536,0,21047,0
16768,-1018,-8154,630,-45,13,4,31257,-1,-1,1,0,36850,77,24,144,0,0,0,0,0,0,0,0,-32296,0,0,0,4537,0,21067,0
16778,-1040,-8186,610,-48,15,0,31258,0,3,2,0,36847,70,24,144,0,0,0,0,0,0,0,0,-32296,0,0,0,4536,0,21087,0
16788,-1038,-8140,620,-53,10,7,31257,-3,-1,2,0,36849,66,24,144,0,0,0,0,0,0,0,0,-32296,0,0,0,4537,0,21107,0
16798,-1014,-8154,606,-51,10,5,31257,-3,1,1,0,36852,67,24,144,0,0,0,0,0,0,0,0,-32295,0,0,0,4536,0,21127,0
16808,-1000,-8160,614,-51,10,0,31255,-6,0,4,0,36858,71,24,144,0,0,0,0,0,0,0,0,-32295,0,0,0,4536,0,21147,0
16818,-1006,-8178,600,-47,16,6,31258,8,3,2,0,36860,67,24,144,0,0,0,0,0,0,0,0,-32296,0,0,0,4536,0,21168,0
16828,-988,-8164,538,-48,12,6,31256,0,2,3,0,36862,65,24,144,0,0,0,0,0,0,0,0,-32296,0,0,0,4536,0,21188,0
16838,-1006,-8178,582,-47,9,2,31256,0,-1,1,0,36860,65,24,144,0,0,0,0,0,0,0,0,-32295,0,0,0,4536,0,21208,0
16848,-1002,-8152,618,-42,15,6,31257,0,-2,2,0,36858,67,24,144,0,0,0,0,0,0,0,0,-32295,0,0,0,4536,0,21228,0
16858,-1022,-8160,598,-51,14,7,31257,-3,-4,3,0,36858,68,24,144,0,0,0,0,0,0,0,0,-32295,0,0,0,4536,0,21248,0
16868,-1016,-8184,602,-50,14,4,31255,-10,1,2,0,36858,68,24,144,0,0,0,0,0,0,0,0,-32295,0,0,0,4536,0,21268,0
16878,-1030,-8164,612,-48,16,9,31256,-3,0,1,0,36857,68,24,144,0,0,0,0,0,0,0,0,-32296,0,0,0,4536,0,21288,0
16888,-1022,-8168,626,-49,15,7,31256,-5,-4,3,0,36858,65,24,144,0,0,0,0,0,0,0,0,-32296,0,0,0,4536,0,21308,0
16898,-1018,-8178,634,-49,19,10,31257,6,0,2,0,36856,65,24,144,0,0,0,0,0,0,0,0,-32295,0,0,0,4536,0,21328,0
16908,-1020,-8164,588,-57,20,9,31256,-2,3,4,0,36862,73,24,144,0,0,0,0,0,0,0,0,-32295,0,0,0,4536,0,21348,0
16918,-1008,-8150,598,-46,15,9,31257,3,1,2,0,36862,74,24,144,0,0,0,0,0,0,0,0,-32295,0,0,0,4536,0,21368,0
16928,-998,-8176,588,-55,13,10,31257,2,6,3,0,36861,78,24,144,0,0,0,0,0,0,0,0,-32296,0,0,0,4536,0,21388,0
16938,-1006,-8156,634,-54,17,7,31258,4,3,2,0,36856,68,24,144,0,0,0,0,0,0,0,0,-32296,0,0,0,4536,0,21408,0
16948,-1020,-8136,594,-53,14,13,31256,4,2,0,0,36857,67,24,144,0,0,0,0,0,0,0,0,-32295,0,0,0,4536,0,21428,0
16958,-1060,-8196,602,-52,18,15,31255,-1,2,0,0,36857,58,24,144,0,0,0,0,0,0,0,0,-32296,0,0,0,4537,0,21448,0
16968,-1038,-8156,602,-48,13,11,31256,-2,-5,0,0,36857,59,24,144,0,0,0,0,0,0,0,0,-32296,0,0,0,4536,0,21468,0
16978,-1040,-8164,618,-54,17,7,31257,3,2,1,0,36858,66,24,144,0,0,0,0,0,0,0,0,-32296,0,0,0,4537,0,21488,0
16988,-1042,-8174,594,-51,12,7,31257,3,3,0,0,36859,68,24,144,0,0,0,0,0,0,0,0,-32296,0,0,0,4537,0,21508,0
16998,-1026,-8144,594,-49,11,-1,31257,4,2,0,0,36857,65,24,144,0,0,0,0,0,0,0,0,-32295,0,0,0,4536,0,21528,0
17008,-1024,-8172,610,-48,14,12,31256,3,-1,2,0,36861,62,24,144,0,0,0,0,0,0,0,0,-32296,0,0,0,4536,0,21548,0
17018,-1032,-8184,612,-50,14,7,31258,5,0,0,0,36864,66,24,144,0,0,0,0,0,0,0,0,-32296,0,0,0,4537,0,21568,0
17028,-1002,-8150,612,-53,17,6,31257,2,3,3,0,36866,64,24,144,0,0,0,0,0,0,0,0,-32297,0,0,0,4536,0,21588,0
17038,-1052,-8172,578,-52,15,6,31256,-4,2,2,0,36865,64,24,144,0,0,0,0,0,0,0,0,-32296,0,0,0,4536,0,21608,0
17048,-1032,-8180,598,-51,13,8,31256,2,2,0,0,36860,61,24,144,0,0,0,0,0,0,0,0,-32296,0,0,0,4537,0,21628,0
17058,-1030,-8154,628,-54,17,7,31257,-5,0,1,0,36861,73,24,144,0,0,0,0,0,0,0,0,-32295,0,0,0,4536,0,21648,0
17068,-1014,-8162,602,-55,14,9,31257,-4,1,1,0,36858,72,24,144,0,0,0,0,0,0,0,0,-32296,0,0,0,4536,0,21668,0
17078,-1040,-8170,590,-46,13,9,31257,-2,3,2,0,36855,70,24,144,0,0,0,0,0,0,0,0,-32296,0,0,0,4537,0,21688,0
17088,-998,-8182,584,-45,11,7,31257,-1,-1,0,0,36855,66,24,144,0,0,0,0,0,0,0,0,-32296,0,0,0,4537,0,21708,0
17098,-1010,-8168,610,-42,11,12,31256,-3,-1,0,0,36855,57,24,144,0,0,0,0,0,0,0,0,-32296,0,0,0,4536,0,21728,0
17108,-1012,-8158,604,-49,12,19,31257,0,1,1,0,36856,58,24,144,0,0,0,0,0,0,0,0,-32296,0,0,0,4537,0,21748,0
17118,-1000,-8144,608,-51,11,19,31257,9,6,0,0,36860,56,24,144,0,0,0,0,0,0,0,0,-32296,0,0,0,4537,0,21768,0
17128,-1026,-8168,596,-48,15,11,31257,-1,0,2,0,36858,69,24,144,0,0,0,0,0,0,0,0,-32295,0,0,0,4537,0,21788,0
17138,-1042,-8136,616,-52,19,13,31257,-3,-2,1,0,36858,70,24,144,0,0,0,0,0,0,0,0,-32296,0,0,0,4536,0,21808,0
17148,-1022,-8176,578,-48,14,12,31256,-1,5,1,0,36856,64,24,144,0,0,0,0,0,0,0,0,-32296,0,0,0,4536,0,21828,0
17158,-1034,-8160,594,-50,11,14,31259,3,-1,3,0,36870,55,24,144,0,0,0,0,0,0,0,0,-32296,0,0,0,4536,0,21848,0
17168,-1056,-8206,596,-54,16,11,31256,-3,2,2,0,36868,54,24,144,0,0,0,0,0,0,0,0,-32295,0,0,0,4536,0,21868,0
17178,-1030,-8172,562,-51,13,11,31257,-3,-1,3,0,36864,51,24,144,0,0,0,0,0,0,0,0,-32295,0,0,0,4536,0,21888,0
17188,-1016,-8164,586,-51,19,5,31258,10,5,1,0,36852,57,24,144,0,0,0,0,0,0,0,0,-32295,0,0,0,4536,0,21908,0
17198,-1018,-8164,592,-49,15,13,31256,-4,2,0,0,36854,62,24,144,0,0,0,0,0,0,0,0,-32295,0,0,0,4536,0,21928,0
17208,-1038,-8176,592,-50,18,15,31258,0,-4,4,0,36857,68,25,144,0,0,0,0,0,0,0,0,-32295,0,0,0,4537,0,21948,0
17218,-1026,-8138,628,-52,17,13,31258,5,-1,1,0,36857,74,24,144,0,0,0,0,0,0,0,0,-32295,0,0,0,4538,0,21968,0
17228,-1052,-8188,598,-49,12,13,31257,1,0,2,0,36854,64,24,144,0,0,0,0,0,0,0,0,-32295,0,0,0,4537,0,21988,0
17238,-1048,-8168,614,-53,17,7,31257,2,-2,2,0,36855,59,24,144,0,0,0,0,0,0,0,0,-32295,0,0,0,4537,0,22008,0
17248,-1000,-8152,582,-51,15,5,31257,-3,-2,1,0,36856,59,24,144,0,0,0,0,0,0,0,0,-32296,0,0,0,4537,0,22028,0
17258,-1006,-8160,590,-48,10,6,31259,7,-3,2,0,36855,64,24,144,0,0,0,0,0,0,0,0,-32296,0,0,0,4536,0,22048,0
17268,-1072,-8150,616,-45,14,12,31257,-2,-3,2,0,36850,60,24,144,0,0,0,0,0,0,0,0,-32296,0,0,0,4536,0,22068,0
17278,-1022,-8188,606,-56,16,7,31257,0,1,2,0,36849,65,24,144,0,0,0,0,0,0,0,0,-32295,0,0,0,4536,0,22088,0
17288,-1028,-8150,606,-48,13,5,31258,3,-1,0,0,36849,59,24,144,0,0,0,0,0,0,0,0,-32295,0,0,0,4536,0,22108,0
17298,-1008,-8164,594,-50,15,5,31257,-2,2,1,0,36851,57,24,144,0,0,0,0,0,0,0,0,-32295,0,0,0,4536,0,22128,0
17308,-1000,-8140,588,-52,12,8,31258,-1,0,2,0,36850,58,24,144,0,0,0,0,0,0,0,0,-32296,0,0,0,4536,0,22148,0
17318,-1012,-8152,584,-49,12,4,31257,0,-2,0,0,36858,65,24,144,0,0,0,0,0,0,0,0,-32296,0,0,0,4536,0,22168,0
17328,-1032,-8158,572,-51,10,10,31257,7,1,2,0,36858,69,24,144,0,0,0,0,0,0,0,0,-32296,0,0,0,4536,0,22188,0
17338,-998,-8152,608,-51,14,5,31257,7,6,1,0,36856,77,24,144,0,0,0,0,0,0,0,0,-32296,0,0,0,4537,0,22208,0
17348,-1006,-8140,596,-51,11,5,31257,3,-2,0,0,36849,72,25,144,0,0,0,0,0,0,0,0,-32295,0,0,0,4537,0,22228,0
17358,-1004,-8136,614,-50,12,9,31257,-1,-1,2,0,36849,78,24,144,0,0,0,0,0,0,0,0,-32295,0,0,0,4537,0,22248,0
17368,-1042,-8148,594,-48,17,9,31257,2,-1,2,0,36847,70,24,144,0,0,0,0,0,0,0,0,-32296,0,0,0,4537,0,22268,0
17378,-1030,-8156,554,-50,19,5,31258,4,5,0,0,36848,62,24,144,0,0,0,0,0,0,0,0,-32295,0,0,0,4536,0,22288,0
17388,-1026,-8196,620,-47,13,8,31257,0,6,2,0,36847,61,24,144,0,0,0,0,0,0,0,0,-32296,0,0,0,4536,0,22308,0
17398,-1052,-8152,602,-49,10,7,31257,0,2,0,0,36848,60,24,144,0,0,0,0,0,0,0,0,-32295,0,0,0,4536,0,22328,0
17408,-1056,-8018,620,-56,15,-4,31256,-8,-4,2,0,36846,53,24,144,0,0,0,0,0,0,0,0,-32296,0,0,0,4536,0,22348,0
17418,-1006,-8110,638,-54,19,-1,31257,-1,0,0,0,36847,49,24,144,0,0,0,0,0,0,0,0,-32296,0,0,0,4536,0,22368,0
17428,-990,-8280,496,-42,14,4,31257,5,-6,1,0,36848,58,24,144,0,0,0,0,0,0,0,0,-32295,0,0,0,4536,0,22388,0
17438,-1010,-7988,462,-34,8,-5,31256,-3,0,1,0,36850,64,24,144,0,0,0,0,0,0,0,0,-32295,0,0,0,4537,0,22408,0
17448,-1066,-8160,624,-33,9,0,31256,0,-1,0,0,36851,63,24,144,0,0,0,0,0,0,0,0,-32295,0,0,0,4536,0,22428,0
17458,-1076,-8318,486,-39,13,4,31257,1,-5,1,0,36849,65,24,144,0,0,0,0,0,0,0,0,-32295,0,0,0,4536,0,22448,0
17468,-940,-8222,496,-34,18,2,31257,-9,5,1,0,36846,72,24,144,0,0,0,0,0,0,0,0,-32296,0,0,0,4537,0,22468,0
17478,-934,-8072,698,-29,18,4,31257,3,0,2,0,36843,69,24,144,0,0,0,0,0,0,0,0,-32295,0,0,0,4536,0,22488,0
17488,-1042,-8288,734,-42,16,22,31257,2,3,1,0,36843,65,24,144,0,0,0,0,0,0,0,0,-32296,0,0,0,4537,0,22508,0
17498,-998,-8036,762,-50,23,20,31258,0,1,0,0,36846,65,24,144,0,0,0,0,0,0,0,0,-32295,0,0,0,4537,0,22528,0
17508,-1004,-8042,640,-48,20,11,31258,3,-3,3,0,36846,70,24,144,0,0,0,0,0,0,0,0,-32295,0,0,0,4536,0,22548,0
17518,-984,-8198,648,-48,18,32,31257,5,-1,0,0,36843,66,24,144,0,0,0,0,0,0,0,0,-32295,0,0,0,4536,0,22568,0
17528,-992,-8076,560,-43,15,28,31257,-1,1,0,0,36851,70,24,144,0,0,0,0,0,0,0,0,-32296,0,0,0,4537,0,22588,0
17538,-988,-8230,410,-40,10,29,31258,-3,-1,1,0,36853,64,24,144,0,0,0,0,0,0,0,0,-32295,0,0,0,4537,0,22608,0
17548,-1018,-8238,430,-28,16,35,31257,-3,0,1,0,36854,62,24,144,0,0,0,0,0,0,0,0,-32296,0,0,0,4536,0,22628,0
17558,-1068,-8252,510,-16,20,42,31257,-4,5,1,0,36845,58,24,144,0,0,0,0,0,0,0,0,-32296,0,0,0,4537,0,22648,0
17568,-1062,-8258,612,-21,19,27,31257,-11,-2,0,0,36845,60,24,144,0,0,0,0,0,0,0,0,-32296,0,0,0,4538,0,22668,0
17578,-1140,-8084,836,-24,17,32,31260,13,5,0,0,36846,64,24,144,0,0,0,0,0,0,0,0,-32296,0,0,0,4538,0,22688,0
17588,-1120,-8104,746,-44,15,25,31259,3,-3,1,0,36846,62,24,144,0,0,0,0,0,0,0,0,-32296,0,0,0,4537,0,22708,0
17598,-1064,-8112,648,-45,10,10,31259,0,-6,0,0,36844,50,24,144,0,0,0,0,0,0,0,0,-32295,0,0,0,4537,0,22728,0
17608,-1086,-8082,612,-42,5,7,31259,2,0,2,0,36845,55,24,144,0,0,0,0,0,0,0,0,-32295,0,0,0,4538,0,22748,0
17618,-1036,-8164,596,-40,8,9,31259,0,-2,0,0,36848,67,24,144,0,0,0,0,0,0,0,0,-32296,0,0,0,4538,0,22768,0
17628,-1036,-8144,566,-41,17,2,31258,1,2,1,0,36860,67,24,144,0,0,0,0,0,0,0,0,-32296,0,0,0,4538,0,22788,0
17638,-1006,-8202,536,-42,18,-4,31259,1,-3,4,0,36860,66,24,144,0,0,0,0,0,0,0,0,-32295,0,0,0,4537,0,22808,0
17648,-1006,-8188,634,-31,19,12,31259,1,-2,0,0,36863,65,24,144,0,0,0,0,0,0,0,0,-32296,0,0,0,4538,0,22828,0
17658,-984,-8186,658,-38,14,12,31259,-6,-4,1,0,36855,73,24,144,0,0,0,0,0,0,0,0,-32295,0,0,0,4538,0,22848,0
17668,-1002,-8156,660,-42,14,16,31259,0,1,1,0,36852,74,24,144,0,0,0,0,0,0,0,0,-32296,0,0,0,4538,0,22868,0
17678,-992,-8196,646,-48,14,29,31259,6,2,1,0,36849,71,24,144,0,0,0,0,0,0,0,0,-32295,0,0,0,4538,0,22888,0
17688,-1004,-8138,618,-42,13,29,31258,-9,-1,1,0,36846,70,24,144,0,0,0,0,0,0,0,0,-32296,0,0,0,4538,0,22908,0
17698,-1004,-8126,596,-44,11,28,31258,-2,-7,0,0,36848,69,24,144,0,0,0,0,0,0,0,0,-32295,0,0,0,4538,0,22928,0
17708,-1080,-8180,578,-52,16,34,31259,-3,0,2,0,36848,62,24,144,0,0,0,0,0,0,0,0,-32295,0,0,0,4538,0,22948,0
17718,-1068,-8172,552,-42,19,30,31260,4,0,-1,0,36848,60,24,144,0,0,0,0,0,0,0,0,-32296,0,0,0,4538,0,22968,0
17728,-1072,-8086,592,-32,9,14,31259,-6,-1,0,0,36847,58,24,144,0,0,0,0,0,0,0,0,-32295,0,0,0,4538,0,22988,0
17738,-1064,-8216,632,-35,12,17,31260,-3,0,2,0,36850,63,24,144,0,0,0,0,0,0,0,0,-32295,0,0,0,4538,0,23008,0
17748,-1076,-8168,668,-48,8,10,31261,-2,2,0,0,36854,62,24,144,0,0,0,0,0,0,0,0,-32296,0,0,0,4538,0,23028,0
17758,-1064,-8176,646,-45,16,10,31260,0,-1,0,0,36855,65,24,144,0,0,0,0,0,0,0,0,-32295,0,0,0,4538,0,23049,0
17768,-1056,-8118,674,-47,15,12,31259,-7,-3,0,0,36851,62,24,144,0,0,0,0,0,0,0,0,-32295,0,0,0,4538,0,23069,0
17778,-1078,-8188,684,-49,11,16,31259,-1,0,0,0,36849,64,24,144,0,0,0,0,0,0,0,0,-32295,0,0,0,4538,0,23089,0
17788,-1058,-8146,656,-64,18,9,31259,1,5,2,0,36851,65,24,144,0,0,0,0,0,0,0,0,-32296,0,0,0,4538,0,23109,0
17798,-1100,-8156,638,-56,13,4,31259,-7,0,0,0,36854,64,25,144,0,0,0,0,0,0,0,0,-32296,0,0,0,4538,0,23129,0
17808,-1058,-8162,576,-57,14,6,31260,0,4,1,0,36853,63,25,144,0,0,0,0,0,0,0,0,-32295,0,0,0,4538,0,23149,0
17818,-1042,-8148,598,-59,15,-2,31260,2,5,1,0,36851,59,24,144,0,0,0,0,0,0,0,0,-32296,0,0,0,4538,0,23169,0
17828,-1028,-8162,580,-59,15,-4,31260,7,5,2,0,36852,60,25,144,0,0,0,0,0,0,0,0,-32296,0,0,0,4538,0,23190,0
17838,-1064,-8182,592,-56,10,1,31259,-2,-3,6,0,36864,52,25,144,0,0,0,0,0,0,0,0,-32296,0,0,0,4538,0,23210,0
17848,-1034,-8178,592,-55,15,-4,31259,-7,-2,2,0,36866,63,25,144,0,0,0,0,0,0,0,0,-32296,0,0,0,4538,0,23230,0
17858,-1048,-8142,604,-53,12,-7,31260,9,0,2,0,36863,71,24,144,0,0,0,0,0,0,0,0,-32295,0,0,0,4538,0,23250,0
17868,-1046,-8190,660,-56,18,-4,31259,-3,-3,2,0,36860,82,24,144,0,0,0,0,0,0,0,0,-32295,0,0,0,4538,0,23270,0
17878,-1024,-8182,644,-58,18,-2,31259,-3,-7,1,0,36856,76,24,144,0,0,0,0,0,0,0,0,-32296,0,0,0,4538,0,23290,0
17888,-1038,-8158,618,-59,19,-5,31260,1,3,3,0,36857,64,24,144,0,0,0,0,0,0,0,0,-32295,0,0,0,4538,0,23310,0
17898,-1082,-8160,630,-58,15,-3,31259,-5,1,2,0,36854,59,24,144,0,0,0,0,0,0,0,0,-32295,0,0,0,4537,0,23330,0
17908,-1042,-8206,634,-64,17,1,31259,0,0,1,0,36855,57,24,144,0,0,0,0,0,0,0,0,-32296,0,0,0,4538,0,23350,0
17918,-1030,-8124,586,-60,22,-5,31260,6,-2,2,0,36856,62,24,144,0,0,0,0,0,0,0,0,-32296,0,0,0,4538,0,23370,0
17928,-1014,-8158,560,-62,10,-2,31258,-3,-1,0,0,36855,61,24,144,0,0,0,0,0,0,0,0,-32295,0,0,0,4538,0,23390,0
17938,-1004,-8178,600,-57,13,3,31259,-2,3,1,0,36854,63,24,144,0,0,0,0,0,0,0,0,-32295,0,0,0,4538,0,23410,0
17948,-1038,-8150,606,-61,13,3,31260,2,-1,0,0,36859,69,24,144,0,0,0,0,0,0,0,0,-32296,0,0,0,4538,0,23430,0
17958,-1054,-8144,592,-62,16,3,31260,0,-1,2,0,36862,65,24,144,0,0,0,0,0,0,0,0,-32295,0,0,0,4537,0,23450,0
17968,-1050,-8182,584,-54,14,5,31260,-1,-3,3,0,36864,62,25,144,0,0,0,0,0,0,0,0,-32295,0,0,0,4538,0,23470,0
17978,-1038,-8160,596,-58,17,-1,31260,7,6,1,0,36859,59,25,144,0,0,0,0,0,0,0,0,-32295,0,0,0,4538,0,23490,0
17988,-1048,-8166,630,-56,19,-2,31258,-9,-1,2,0,36858,63,25,144,0,0,0,0,0,0,0,0,-32296,0,0,0,4537,0,23510,0
17998,-1024,-8194,646,-57,12,1,31259,7,0,1,0,36857,70,24,144,0,0,0,0,0,0,0,0,-32296,0,0,0,4538,0,23530,0
18008,-992,-8142,566,-56,12,-2,31259,-4,1,1,0,36856,77,24,144,0,0,0,0,0,0,0,0,-32296,0,0,0,4538,0,23550,0
18018,-1010,-8168,606,-57,15,2,31260,4,4,2,0,36858,69,24,144,0,0,0,0,0,0,0,0,-32295,0,0,0,4538,0,23570,0
18028,-1056,-8172,594,-59,13,13,31258,-2,-4,1,0,36858,67,25,144,0,0,0,0,0,0,0,0,-32297,0,0,0,4538,0,23590,0
18038,-1046,-8146,588,-58,16,8,31260,-2,-2,3,0,36858,59,24,144,0,0,0,0,0,0,0,0,-32295,0,0,0,4538,0,23610,0
18048,-1010,-8158,558,-55,17,4,31259,-1,0,0,0,36864,58,25,144,0,0,0,0,0,0,0,0,-32295,0,0,0,4538,0,23630,0
18058,-1048,-8168,580,-56,14,12,31259,-3,0,1,0,36866,61,25,144,0,0,0,0,0,0,0,0,-32296,0,0,0,4538,0,23650,0
18068,-1038,-8192,598,-53,16,6,31259,-3,-1,1,0,36862,62,24,144,0,0,0,0,0,0,0,0,-32295,0,0,0,4538,0,23670,0
18078,-1054,-8144,594,-51,18,4,31259,2,0,2,0,36855,63,24,144,0,0,0,0,0,0,0,0,-32296,0,0,0,4539,0,23690,0
18088,-1040,-8154,620,-54,12,10,31260,4,1,2,0,36852,65,24,144,0,0,0,0,0,0,0,0,-32296,0,0,0,4538,0,23710,0
18098,-1046,-8144,604,-54,18,3,31258,0,-4,0,0,36854,64,24,144,0,0,0,0,0,0,0,0,-32295,0,0,0,4538,0,23730,0
18108,-1022,-8142,598,-55,17,1,31259,2,1,2,0,36853,56,24,144,0,0,0,0,0,0,0,0,-32295,0,0,0,4538,0,23750,0
18118,-1030,-8160,612,-56,12,4,31259,3,0,2,0,36852,54,25,144,0,0,0,0,0,0,0,0,-32295,0,0,0,4537,0,23770,0
18128,-1062,-8186,602,-52,14,3,31259,0,0,2,0,36852,64,24,144,0,0,0,0,0,0,0,0,-32295,0,0,0,4538,0,23790,0
18138,-1042,-8120,586,-56,15,-4,31259,2,3,3,0,36851,80,24,144,0,0,0,0,0,0,0,0,-32296,0,0,0,4538,0,23810,0
18148,-1074,-8156,580,-50,11,-1,31258,-2,1,2,0,36851,71,24,144,0,0,0,0,0,0,0,0,-32296,0,0,0,4538,0,23830,0
18158,-1044,-8204,584,-50,14,-3,31258,-1,1,1,0,36855,79,24,144,0,0,0,0,0,0,0,0,-32296,0,0,0,4538,0,23850,0
18168,-1004,-8144,568,-49,16,1,31260,3,-4,3,0,36856,84,24,144,0,0,0,0,0,0,0,0,-32296,0,0,0,4538,0,23870,0
18178,-992,-8154,594,-51,11,-5,31258,-1,-5,0,0,36852,78,24,144,0,0,0,0,0,0,0,0,-32296,0,0,0,4538,0,23890,0
18188,-1030,-8160,590,-45,13,4,31258,2,-8,1,0,36847,58,25,144,0,0,0,0,0,0,0,0,-32296,0,0,0,4538,0,23910,0
18198,-1030,-8140,610,-42,13,4,31259,11,0,2,0,36847,59,25,144,0,0,0,0,0,0,0,0,-32295,0,0,0,4537,0,23930,0
18208,-1006,-8194,640,-44,14,2,31258,0,-4,1,0,36852,61,24,144,0,0,0,0,0,0,0,0,-32296,0,0,0,4538,0,23950,0
18218,-1024,-8178,616,-48,4,7,31257,-3,3,1,0,36852,67,24,144,0,0,0,0,0,0,0,0,-32296,0,0,0,4538,0,23970,0
18228,-1020,-8164,590,-52,14,3,31259,2,-1,1,0,36851,58,24,144,0,0,0,0,0,0,0,0,-32296,0,0,0,4537,0,23990,0
18238,-1034,-8130,608,-48,10,3,31257,-9,0,4,0,36851,58,24,144,0,0,0,0,0,0,0,0,-32296,0,0,0,4538,0,24010,0
18248,-1048,-8176,574,-46,12,12,31259,2,0,0,0,36852,58,24,144,0,0,0,0,0,0,0,0,-32296,0,0,0,4538,0,24030,0
18258,-1038,-8178,590,-49,11,9,31258,-2,-1,2,0,36852,72,24,144,0,0,0,0,0,0,0,0,-32295,0,0,0,4538,0,24050,0
18268,-1004,-8148,596,-45,13,9,31258,-5,0,3,0,36854,83,24,144,0,0,0,0,0,0,0,0,-32296,0,0,0,4538,0,24070,0
18278,-1052,-8196,596,-46,14,13,31260,8,-1,1,0,36852,83,25,144,0,0,0,0,0,0,0,0,-32296,0,0,0,4538,0,24090,0
18288,-1030,-8152,608,-43,16,11,31258,-1,1,2,0,36854,78,25,144,0,0,0,0,0,0,0,0,-32296,0,0,0,4538,0,24110,0
18298,-1060,-8144,610,-46,17,9,31259,7,5,1,0,36848,66,25,144,0,0,0,0,0,0,0,0,-32295,0,0,0,4538,0,24130,0
18308,-1054,-8188,600,-49,12,13,31258,-1,3,1,0,36849,69,25,144,0,0,0,0,0,0,0,0,-32296,0,0,0,4538,0,24150,0
18318,-1022,-8132,594,-50,18,10,31258,1,1,2,0,36848,70,25,144,0,0,0,0,0,0,0,0,-32296,0,0,0,4538,0,24170,0
18328,-1032,-8130,612,-40,11,3,31259,6,-4,1,0,36844,67,25,144,0,0,0,0,0,0,0,0,-32296,0,0,0,4538,0,24190,0
18338,-1074,-8158,612,-48,17,7,31258,0,-1,0,0,36843,60,25,144,0,0,0,0,0,0,0,0,-32295,0,0,0,4538,0,24210,0
18348,-1020,-8192,608,-47,13,5,31258,-2,-3,0,0,36845,61,25,144,0,0,0,0,0,0,0,0,-32296,0,0,0,4536,0,24230,0
18358,-1016,-8130,580,-43,16,3,31258,4,2,2,0,36847,62,25,144,0,0,0,0,0,0,0,0,-32296,0,0,0,4538,0,24250,0
18368,-1036,-8188,620,-39,11,5,31257,0,-4,5,0,36846,61,24,144,0,0,0,0,0,0,0,0,-32295,0,0,0,4538,0,24270,0
18378,-1038,-8162,640,-43,9,8,31257,-4,0,0,0,36849,77,25,144,0,0,0,0,0,0,0,0,-32295,0,0,0,4538,0,24290,0
18388,-1064,-8132,618,-47,14,2,31259,-3,-5,3,0,36849,77,24,144,0,0,0,0,0,0,0,0,-32296,0,0,0,4538,0,24310,0
18398,-1050,-8168,600,-48,15,4,31259,-3,-7,3,0,36849,83,24,144,0,0,0,0,0,0,0,0,-32296,0,0,0,4538,0,24330,0
18408,-1016,-8184,614,-45,10,2,31258,-5,0,0,0,36843,66,25,144,0,0,0,0,0,0,0,0,-32295,0,0,0,4538,0,24350,0
18418,-1014,-8152,628,-46,16,6,31258,-2,-2,2,0,36840,61,25,144,0,0,0,0,0,0,0,0,-32296,0,0,0,4538,0,24370,0
18428,-1016,-8158,608,-48,8,3,31258,5,-1,0,0,36845,66,24,144,0,0,0,0,0,0,0,0,-32296,0,0,0,4538,0,24390,0
18438,-1048,-8170,600,-51,11,4,31256,-10,3,0,0,36858,67,24,144,0,0,0,0,0,0,0,0,-32295,0,0,0,4537,0,24410,0
18448,-1014,-8142,596,-49,10,2,31256,-11,3,0,0,36871,68,25,144,0,0,0,0,0,0,0,0,-32296,0,0,0,4538,0,24430,0
18458,-1002,-8174,578,-46,18,3,31258,7,4,1,0,36872,67,25,144,0,0,0,0,0,0,0,0,-32295,0,0,0,4538,0,24450,0
18468,-1042,-8154,596,-46,11,7,31258,-1,5,3,0,36859,69,25,144,0,0,0,0,0,0,0,0,-32295,0,0,0,4538,0,24470,0
18478,-1038,-8140,618,-48,11,8,31257,-5,-1,1,0,36850,69,25,144,0,0,0,0,0,0,0,0,-32295,0,0,0,4538,0,24490,0
18488,-1040,-8148,596,-43,14,3,31258,0,3,0,0,36845,65,25,144,0,0,0,0,0,0,0,0,-32296,0,0,0,4538,0,24510,0
18498,-1048,-8152,624,-45,13,2,31258,3,6,2,0,36846,68,25,144,0,0,0,0,0,0,0,0,-32296,0,0,0,4538,0,24530,0
18508,-1024,-8160,602,-49,12,1,31259,0,0,0,0,36842,70,25,144,0,0,0,0,0,0,0,0,-32296,0,0,0,4538,0,24550,0
18518,-1014,-8150,578,-50,12,4,31257,0,0,3,0,36842,66,24,144,0,0,0,0,0,0,0,0,-32295,0,0,0,4537,0,24570,0
18528,-992,-8148,598,-44,12,2,31257,0,0,2,0,36843,72,24,144,0,0,0,0,0,0,0,0,-32296,0,0,0,4537,0,24590,0
18538,-1016,-8156,626,-48,8,10,31258,0,-1,1,0,36844,71,24,144,0,0,0,0,0,0,0,0,-32296,0,0,0,4537,0,24610,0
18548,-992,-8146,624,-49,16,7,31259,2,-4,0,0,36846,65,24,144,0,0,0,0,0,0,0,0,-32296,0,0,0,4538,0,24630,0
18558,-1030,-8164,632,-46,13,13,31258,2,0,1,0,36845,64,25,144,0,0,0,0,0,0,0,0,-32296,0,0,0,4538,0,24650,0
18568,-1040,-8150,612,-50,16,11,31258,1,0,1,0,36844,62,24,144,0,0,0,0,0,0,0,0,-32296,0,0,0,4538,0,24670,0
18578,-1020,-8144,630,-49,13,11,31257,-2,0,1,0,36851,64,24,144,0,0,0,0,0,0,0,0,-32296,0,0,0,4537,0,24690,0
18588,-1038,-8176,606,-50,19,11,31258,-1,2,2,0,36852,62,24,144,0,0,0,0,0,0,0,0,-32296,0,0,0,4538,0,24710,0
18598,-1046,-8154,594,-52,17,11,31257,-4,-3,0,0,36851,57,24,144,0,0,0,0,0,0,0,0,-32296,0,0,0,4538,0,24730,0
18608,-1054,-8142,582,-50,13,7,31259,-2,4,1,0,36849,59,25,144,0,0,0,0,0,0,0,0,-32296,0,0,0,4538,0,24750,0
18618,-1060,-8154,594,-50,9,1,31258,0,-3,3,0,36847,60,24,144,0,0,0,0,0,0,0,0,-32296,0,0,0,4538,0,24770,0
18628,-1060,-8164,632,-50,13,2,31259,0,0,2,0,36849,55,24,144,0,0,0,0,0,0,0,0,-32296,0,0,0,4538,0,24790,0
18638,-1046,-8142,616,-48,16,8,31258,0,-3,0,0,36847,56,25,144,0,0,0,0,0,0,0,0,-32295,0,0,0,4538,0,24810,0
18648,-1014,-8170,602,-48,14,1,31257,0,2,0,0,36848,64,24,144,0,0,0,0,0,0,0,0,-32295,0,0,0,4538,0,24830,0
18658,-1024,-8154,622,-45,10,5,31258,-1,4,1,0,36849,69,24,144,0,0,0,0,0,0,0,0,-32295,0,0,0,4538,0,24850,0
18668,-1054,-8124,604,-45,14,7,31258,1,-1,2,0,36849,77,24,144,0,0,0,0,0,0,0,0,-32296,0,0,0,4538,0,24870,0
18678,-982,-8168,624,-53,12,4,31260,13,5,1,0,36847,68,24,144,0,0,0,0,0,0,0,0,-32296,0,0,0,4538,0,24890,0
18688,-1028,-8184,586,-54,13,7,31257,4,2,0,0,36845,72,25,144,0,0,0,0,0,0,0,0,-32295,0,0,0,4538,0,24910,0
18698,-1050,-8150,606,-48,15,7,31258,3,1,2,0,36846,67,24,144,0,0,0,0,0,0,0,0,-32296,0,0,0,4538,0,24930,0
18708,-1030,-8196,606,-51,18,9,31258,0,-2,1,0,36847,67,24,144,0,0,0,0,0,0,0,0,-32295,0,0,0,4538,0,24950,0
18718,-1050,-8170,624,-50,16,3,31259,5,2,1,0,36849,62,24,144,0,0,0,0,0,0,0,0,-32296,0,0,0,4538,0,24970,0
18728,-1044,-8134,604,-51,19,8,31257,0,1,2,0,36850,63,24,144,0,0,0,0,0,0,0,0,-32296,0,0,0,4538,0,24990,0
18738,-1040,-8194,596,-53,14,3,31258,-1,-4,1,0,36849,65,24,144,0,0,0,0,0,0,0,0,-32296,0,0,0,4537,0,25010,0
18748,-1040,-8150,618,-50,10,2,31259,-1,2,1,0,36850,65,24,144,0,0,0,0,0,0,0,0,-32296,0,0,0,4537,0,25030,0
18758,-1040,-8144,608,-47,13,10,31257,0,-5,0,0,36851,68,24,144,0,0,0,0,0,0,0,0,-32296,0,0,0,4537,0,25050,0
18768,-1036,-8184,592,-55,15,5,31257,0,1,2,0,36849,68,25,144,0,0,0,0,0,0,0,0,-32296,0,0,0,4537,0,25071,0
18778,-1026,-8150,574,-52,12,7,31257,-2,2,1,0,36849,67,25,144,0,0,0,0,0,0,0,0,-32295,0,0,0,4538,0,25091,0
18788,-1038,-8146,628,-48,16,8,31258,-2,0,0,0,36855,65,24,144,0,0,0,0,0,0,0,0,-32295,0,0,0,4538,0,25111,0
18798,-1046,-8180,636,-47,13,4,31258,4,-10,1,0,36863,65,24,144,0,0,0,0,0,0,0,0,-32296,0,0,0,4538,0,25131,0
18808,-1058,-8170,612,-48,16,4,31258,-2,1,0,0,36864,72,24,144,0,0,0,0,0,0,0,0,-32296,0,0,0,4538,0,25151,0
18818,-1024,-8152,608,-52,18,2,31259,3,1,1,0,36859,70,24,144,0,0,0,0,0,0,0,0,-32295,0,0,0,4538,0,25171,0
18828,-1036,-8184,598,-46,13,2,31258,1,-3,1,0,36850,71,24,144,0,0,0,0,0,0,0,0,-32295,0,0,0,4538,0,25191,0
18838,-1022,-8160,630,-53,10,7,31258,-2,4,1,0,36852,67,24,144,0,0,0,0,0,0,0,0,-32296,0,0,0,4538,0,25211,0
18848,-1042,-8128,604,-50,13,4,31257,-4,0,1,0,36857,64,25,144,0,0,0,0,0,0,0,0,-32295,0,0,0,4538,0,25231,0
18858,-1020,-8174,574,-54,15,3,31258,1,0,1,0,36855,60,25,144,0,0,0,0,0,0,0,0,-32296,0,0,0,4538,0,25251,0
18868,-1002,-8162,586,-50,14,0,31257,-4,5,1,0,36854,63,24,144,0,0,0,0,0,0,0,0,-32295,0,0,0,4538,0,25271,0
18878,-1008,-8156,598,-44,14,8,31258,0,3,2,0,36851,68,24,144,0,0,0,0,0,0,0,0,-32295,0,0,0,4538,0,25291,0
18888,-1026,-8146,600,-45,9,8,31258,6,-1,0,0,36852,73,24,144,0,0,0,0,0,0,0,0,-32296,0,0,0,4538,0,25311,0
18898,-1032,-8174,618,-51,16,7,31258,-3,3,1,0,36860,82,24,144,0,0,0,0,0,0,0,0,-32296,0,0,0,4538,0,25331,0
18908,-1032,-8180,628,-57,17,8,31258,-3,-4,1,0,36861,83,25,144,0,0,0,0,0,0,0,0,-32296,0,0,0,4538,0,25351,0
18918,-1002,-8156,636,-50,18,9,31258,3,-5,1,0,36862,83,25,144,0,0,0,0,0,0,0,0,-32295,0,0,0,4537,0,25371,0
18928,-1040,-8140,620,-50,17,9,31257,0,3,1,0,36854,74,25,144,0,0,0,0,0,0,0,0,-32296,0,0,0,4538,0,25391,0
18938,-1040,-8160,580,-49,19,10,31258,-5,-6,2,0,36853,70,25,144,0,0,0,0,0,0,0,0,-32295,0,0,0,4537,0,25411,0
18948,-996,-8168,588,-48,17,10,31258,0,3,1,0,36856,67,25,144,0,0,0,0,0,0,0,0,-32296,0,0,0,4537,0,25431,0
18958,-986,-8166,598,-47,21,11,31258,-3,-3,0,0,36857,69,25,144,0,0,0,0,0,0,0,0,-32296,0,0,0,4537,0,25451,0
18968,-1036,-8172,642,-51,18,11,31257,0,2,2,0,36855,75,25,144,0,0,0,0,0,0,0,0,-32295,0,0,0,4538,0,25471,0
18978,-1022,-8178,612,-46,16,13,31258,-1,0,2,0,36855,75,25,144,0,0,0,0,0,0,0,0,-32296,0,0,0,4538,0,25491,0
18988,-1046,-8160,600,-49,14,9,31258,0,2,0,0,36855,73,25,144,0,0,0,0,0,0,0,0,-32296,0,0,0,4537,0,25511,0
18998,-1024,-8152,596,-48,20,11,31257,-1,2,2,0,36855,64,25,144,0,0,0,0,0,0,0,0,-32295,0,0,0,4538,0,25531,0
19008,-1056,-8160,612,-49,15,14,31258,-3,-1,0,0,36862,72,25,144,0,0,0,0,0,0,0,0,-32296,0,0,0,4538,0,25551,0
19018,-1070,-8166,604,-50,17,15,31258,-7,-3,0,0,36862,70,25,144,0,0,0,0,0,0,0,0,-32295,0,0,0,4538,0,25571,0
19028,-1034,-8154,594,-47,18,7,31257,-4,-1,3,0,36862,74,25,144,0,0,0,0,0,0,0,0,-32297,0,0,0,4538,0,25591,0
19038,-1028,-8164,608,-48,11,16,31258,5,-3,0,0,36856,59,25,144,0,0,0,0,0,0,0,0,-32295,0,0,0,4537,0,25611,0
19048,-1026,-8182,620,-47,24,10,31258,0,-4,1,0,36856,56,24,144,0,0,0,0,0,0,0,0,-32296,0,0,0,4538,0,25631,0
19058,-1052,-8140,610,-45,15,10,31259,1,0,0,0,36857,64,24,144,0,0,0,0,0,0,0,0,-32296,0,0,0,4537,0,25652,0
19068,-1082,-8168,632,-54,19,7,31258,2,6,2,0,36855,74,25,144,0,0,0,0,0,0,0,0,-32296,0,0,0,4538,0,25671,0
19078,-1082,-8156,610,-48,17,0,31258,0,-2,3,0,36854,77,25,144,0,0,0,0,0,0,0,0,-32295,0,0,0,4538,0,25691,0
19088,-1046,-8152,586,-44,11,-2,31258,-2,1,1,0,36853,73,24,144,0,0,0,0,0,0,0,0,-32295,0,0,0,4538,0,25711,0
19098,-1036,-8160,612,-48,12,1,31257,-5,-5,1,0,36855,75,24,144,0,0,0,0,0,0,0,0,-32295,0,0,0,4538,0,25731,0
19108,-992,-8176,596,-44,16,10,31258,-2,-5,0,0,36858,76,24,144,0,0,0,0,0,0,0,0,-32295,0,0,0,4538,0,25752,0
19118,-1026,-8160,596,-51,15,10,31257,-4,0,0,0,36858,73,24,144,0,0,0,0,0,0,0,0,-32295,0,0,0,4538,0,25771,0
19128,-1014,-8146,606,-42,14,8,31258,0,-2,3,0,36856,71,25,144,0,0,0,0,0,0,0,0,-32296,0,0,0,4538,0,25791,0
19138,-1024,-8180,590,-50,13,9,31258,-1,-2,1,0,36851,74,24,144,0,0,0,0,0,0,0,0,-32296,0,0,0,4537,0,25811,0
19148,-1050,-8136,600,-49,14,12,31258,0,-2,1,0,36848,79,24,144,0,0,0,0,0,0,0,0,-32296,0,0,0,4538,0,25831,0
19158,-1054,-8154,634,-50,12,4,31258,2,-3,1,0,36850,69,25,144,0,0,0,0,0,0,0,0,-32296,0,0,0,4537,0,25852,0
19168,-1030,-8178,628,-48,17,4,31257,-7,-1,1,0,36853,73,25,144,0,0,0,0,0,0,0,0,-32296,0,0,0,4538,0,25872,0
19178,-1032,-8154,634,-48,14,5,31257,-4,3,2,0,36851,69,25,144,0,0,0,0,0,0,0,0,-32296,0,0,0,4538,0,25892,0
19188,-1040,-8168,584,-50,19,10,31259,4,3,1,0,36846,72,24,144,0,0,0,0,0,0,0,0,-32295,0,0,0,4537,0,25912,0
19198,-1046,-8192,598,-50,14,8,31258,0,2,1,0,36846,65,25,144,0,0,0,0,0,0,0,0,-32296,0,0,0,4538,0,25932,0
19208,-1024,-8138,592,-46,17,2,31258,5,-3,4,0,36848,60,25,144,0,0,0,0,0,0,0,0,-32296,0,0,0,4538,0,25952,0
19218,-1022,-8150,610,-44,13,8,31259,5,-4,0,0,36853,62,25,144,0,0,0,0,0,0,0,0,-32295,0,0,0,4538,0,25972,0
19228,-1018,-8176,616,-47,15,12,31258,-1,3,2,0,36852,66,25,144,0,0,0,0,0,0,0,0,-32296,0,0,0,4538,0,25992,0
19238,-1036,-8158,614,-49,13,7,31258,4,1,2,0,36851,64,25,144,0,0,0,0,0,0,0,0,-32295,0,0,0,4538,0,26012,0
19248,-1046,-8132,616,-51,13,8,31257,-7,0,1,0,36853,60,25,144,0,0,0,0,0,0,0,0,-32296,0,0,0,4538,0,26032,0
19258,-1028,-8142,602,-50,10,5,31258,-7,5,0,0,36852,63,25,144,0,0,0,0,0,0,0,0,-32296,0,0,0,4538,0,26052,0
19268,-1036,-8148,628,-52,16,9,31258,-1,4,0,0,36852,64,25,144,0,0,0,0,0,0,0,0,-32296,0,0,0,4538,0,26072,0
19278,-1038,-8126,590,-52,15,3,31258,1,2,1,0,36849,69,25,144,0,0,0,0,0,0,0,0,-32296,0,0,0,4538,0,26092,0
19288,-1028,-8162,596,-46,15,5,31258,2,-1,0,0,36846,66,25,144,0,0,0,0,0,0,0,0,-32296,0,0,0,4538,0,26112,0
19298,-1022,-8208,616,-45,16,6,31257,0,1,2,0,36847,69,25,144,0,0,0,0,0,0,0,0,-32296,0,0,0,4537,0,26132,0
19308,-1040,-8156,626,-43,11,9,31257,-7,-1,3,0,36848,71,25,144,0,0,0,0,0,0,0,0,-32296,0,0,0,4538,0,26152,0
19318,-1058,-8156,602,-45,20,7,31260,12,-5,0,0,36854,72,25,144,0,0,0,0,0,0,0,0,-32296,0,0,0,4538,0,26172,0
19328,-1038,-8134,626,-50,17,4,31257,1,2,2,0,36851,68,25,144,0,0,0,0,0,0,0,0,-32296,0,0,0,4538,0,26192,0
19338,-1032,-8146,632,-49,17,6,31258,-5,-2,1,0,36850,62,25,144,0,0,0,0,0,0,0,0,-32296,0,0,0,4537,0,26212,0
19348,-1060,-8174,616,-46,16,2,31258,5,-4,1,0,36843,59,24,144,0,0,0,0,0,0,0,0,-32296,0,0,0,4537,0,26232,0
19358,-1010,-8148,612,-52,13,6,31258,8,1,2,0,36846,61,24,144,0,0,0,0,0,0,0,0,-32296,0,0,0,4538,0,26252,0
19368,-1036,-8124,610,-49,11,5,31258,-2,1,3,0,36846,72,25,144,0,0,0,0,0,0,0,0,-32295,0,0,0,4538,0,26272,0
19378,-1012,-8174,610,-48,12,3,31258,-3,-2,2,0,36844,70,25,144,0,0,0,0,0,0,0,0,-32296,0,0,0,4538,0,26292,0
19388,-1032,-8148,616,-47,16,12,31258,0,0,1,0,36843,67,25,144,0,0,0,0,0,0,0,0,-32295,0,0,0,4537,0,26312,0
19398,-1014,-8166,592,-53,15,10,31257,-3,4,1,0,36844,64,24,144,0,0,0,0,0,0,0,0,-32295,0,0,0,4538,0,26332,0
19408,-1012,-8158,590,-53,10,9,31258,-2,1,0,0,36843,62,24,144,0,0,0,0,0,0,0,0,-32296,0,0,0,4537,0,26352,0
19418,-1062,-8142,612,-49,11,11,31258,-3,-2,3,0,36843,59,25,144,0,0,0,0,0,0,0,0,-32295,0,0,0,4538,0,26372,0
19428,-1040,-8154,640,-48,17,10,31258,-7,1,3,0,36846,64,24,144,0,0,0,0,0,0,0,0,-32295,0,0,0,4538,0,26392,0
19438,-1014,-8136,604,-50,18,8,31258,1,0,0,0,36849,63,25,144,0,0,0,0,0,0,0,0,-32296,0,0,0,4537,0,26412,0
19448,-1014,-8184,596,-48,16,9,31258,3,0,1,0,36851,68,25,144,0,0,0,0,0,0,0,0,-32296,0,0,0,4538,0,26432,0
19458,-1016,-8164,614,-50,13,10,31257,-5,1,3,0,36845,70,25,144,0,0,0,0,0,0,0,0,-32295,0,0,0,4537,0,26452,0
19468,-1046,-8162,620,-48,15,10,31258,-1,-2,1,0,36844,74,25,144,0,0,0,0,0,0,0,0,-32296,0,0,0,4537,0,26472,0
19478,-1024,-8174,612,-54,15,13,31259,8,3,2,0,36840,80,25,144,0,0,0,0,0,0,0,0,-32295,0,0,0,4538,0,26492,0
19488,-1038,-8168,594,-50,12,10,31257,7,2,2,0,36839,70,25,144,0,0,0,0,0,0,0,0,-32296,0,0,0,4538,0,26512,0
19498,-998,-8166,602,-46,15,16,31258,7,6,0,0,36841,62,25,144,0,0,0,0,0,0,0,0,-32296,0,0,0,4538,0,26532,0
19508,-1054,-8166,618,-54,13,13,31257,-5,1,3,0,36843,61,25,144,0,0,0,0,0,0,0,0,-32295,0,0,0,4537,0,26552,0
19518,-1042,-8164,626,-49,17,13,31259,7,2,1,0,36843,63,25,144,0,0,0,0,0,0,0,0,-32296,0,0,0,4538,0,26572,0
19528,-1076,-8136,592,-53,13,5,31258,-4,-8,1,0,36846,56,25,144,0,0,0,0,0,0,0,0,-32296,0,0,0,4537,0,26592,0
19538,-1036,-8158,624,-54,10,3,31258,-1,4,1,0,36849,55,25,144,0,0,0,0,0,0,0,0,-32296,0,0,0,4538,0,26612,0
19548,-1032,-8168,576,-46,16,3,31258,6,2,1,0,36849,55,25,144,0,0,0,0,0,0,0,0,-32296,0,0,0,4538,0,26632,0
19558,-1042,-8152,576,-52,13,2,31259,3,4,2,0,36849,59,25,144,0,0,0,0,0,0,0,0,-32296,0,0,0,4538,0,26652,0
19568,-1040,-8184,600,-48,9,8,31258,-1,-2,1,0,36843,61,25,144,0,0,0,0,0,0,0,0,-32295,0,0,0,4538,0,26672,0
19578,-1068,-8152,612,-50,11,7,31258,-4,2,3,0,36845,66,25,144,0,0,0,0,0,0,0,0,-32296,0,0,0,4538,0,26692,0
19588,-1060,-8146,620,-52,12,4,31258,3,0,1,0,36847,77,25,144,0,0,0,0,0,0,0,0,-32295,0,0,0,4538,0,26712,0
19598,-1052,-8180,614,-52,14,0,31260,7,2,1,0,36847,76,25,144,0,0,0,0,0,0,0,0,-32296,0,0,0,4538,0,26732,0
19608,-1040,-8146,626,-51,15,6,31258,-3,-1,4,0,36845,77,25,144,0,0,0,0,0,0,0,0,-32295,0,0,0,4537,0,26752,0
19618,-1000,-8122,598,-52,18,7,31260,12,1,0,0,36845,80,25,144,0,0,0,0,0,0,0,0,-32296,0,0,0,4537,0,26772,0
19628,-1016,-8166,612,-49,16,6,31258,0,-2,3,0,36847,74,25,144,0,0,0,0,0,0,0,0,-32296,0,0,0,4538,0,26792,0
19638,-1020,-8134,588,-52,14,9,31257,0,-1,2,0,36852,65,25,144,0,0,0,0,0,0,0,0,-32295,0,0,0,4537,0,26812,0
19648,-1034,-8180,608,-54,15,9,31258,-1,-1,1,0,36850,61,25,144,0,0,0,0,0,0,0,0,-32296,0,0,0,4537,0,26832,0
19658,-1012,-8186,596,-54,19,11,31258,-2,2,2,0,36850,72,25,144,0,0,0,0,0,0,0,0,-32296,0,0,0,4536,0,26852,0
19668,-1038,-8162,622,-53,15,9,31257,-1,2,0,0,36846,75,25,144,0,0,0,0,0,0,0,0,-32296,0,0,0,4538,0,26872,0
